sender,sender_type,sender_id,timestamp,meta,,Blank,DownLeft1,DownLeft2,DownLeft3,DownLeft4,DownLeft5,DownLeft6,DownRight1,DownRight2,DownRight3,DownRight4,DownRight5,DownRight6,FoodHabits_Fru_item1,FoodHabits_Fru_item2,FoodHabits_Fru_item3,FoodHabits_Fru_item4,FoodHabits_Fru_item5,FoodHabits_Fru_item6,FoodHabits_Fru_item7,FoodHabits_Meat_item1,FoodHabits_Meat_item2,FoodHabits_Meat_item3,FoodHabits_Meat_item4,FoodHabits_Meat_item5,FoodHabits_Meat_item6,FoodHabits_Meat_item7,FoodHabits_Swe_item1,FoodHabits_Swe_item2,FoodHabits_Swe_item3,FoodHabits_Swe_item4,FoodHabits_Swe_item5,FoodHabits_Swe_item6,FoodHabits_Swe_item7,FoodHabits_Veg_item1,FoodHabits_Veg_item2,FoodHabits_Veg_item3,FoodHabits_Veg_item4,FoodHabits_Veg_item5,FoodHabits_Veg_item6,FoodHabits_Veg_item7,ImgA,ImgB,LeftBar,PSS_item01,PSS_item02,PSS_item03,PSS_item04,PSS_item05,PSS_item06,PSS_item07,PSS_item08,PSS_item09,PSS_item10,RefA,RefB,RefB1,RefB2,RefB3,RefB4,RefB5,RefB6,RefB7,Ref_PB,RightBar,UpLeft1,UpLeft2,UpLeft3,UpLeft4,UpLeft5,UpLeft6,UpRight1,UpRight2,UpRight3,UpRight4,UpRight5,UpRight6,VarA,VarA1,VarA2,VarA3,VarA4,VarB,VarB1,VarB2,VarB3,VarB4,VarB5,VarB6,Var_PB,attCheck_fileA,attCheck_fileB,attCheck_fileC,attCheck_fileD,attCheck_options,attCheck_valueA,attCheck_valueB,attCheck_valueC,attCheck_valueD,attention_check,block,break1,browser_name,choseL,choseR,consent_form1,consent_form2,consentconfirmation_form1,consentconfirmation_form2,correct,correctResponse,diet,disorder,duration,edu,ended_on,enjoy,full_version,gender,group,hunger,img,imgTask,input_age,input_meal,input_occ,input_remark,lateRespFeed,list,major_version,message,mixQ_item1,mixQ_item2,mixQ_item3,mixQ_item4,mixQ_item5,name,navigator_appName,navigator_userAgent,os,pracQ1_IDa,pracQ1_IDb,pracQ1_IDc,pracQ1_IDd,pracQ1_optionA,pracQ1_optionB,pracQ1_optionC,pracQ1_optionD,pracQ1_valueA,pracQ1_valueB,pracQ1_valueC,pracQ1_valueD,pracQ2_IDa,pracQ2_IDb,pracQ2_IDc,pracQ2_optionA,pracQ2_optionB,pracQ2_optionC,pracQ2_valueA,pracQ2_valueB,pracQ2_valueC,pracQ4_IDa,pracQ4_IDb,pracQ4_IDc,pracQ4_IDd,pracQ4_optionA,pracQ4_optionB,pracQ4_optionC,pracQ4_optionD,pracQ4_valueA,pracQ4_valueB,pracQ4_valueC,pracQ4_valueD,pracQ5_IDa,pracQ5_IDb,pracQ5_IDc,pracQ5_IDd,pracQ5_optionA,pracQ5_optionB,pracQ5_optionC,pracQ5_optionD,pracQ5_valueA,pracQ5_valueB,pracQ5_valueC,pracQ5_valueD,prefHealty,prefUnhealthy,prolific_ID,psessionID,pstudyID,rep,response,response_action,skip,snack,sublock,subtitle,task_difficulty,task_engagement,task_focus,textL,textR,time_commit,time_end,time_render,time_run,time_show,time_switch,trial_count,trial_countO,url,valence
Title,html.Page,0,2021-05-24T16:11:29.777Z,"{""labjs_version"":""20.2.2"",""labjs_build"":{""flavor"":""production"",""commit"":""a25486e0c714a0ae2ce03ff94b7bb6896854dcfa""},""location"":""https://run.pavlovia.org/E3lab/rebund/html/?PROLIFIC_PID=5f1604ab044c9b75a8ad5737&STUDY_ID=60008f34cd719d13b0d706dd&SESSION_ID=60abd009af602de8ad50f640"",""userAgent"":""Mozilla/5.0 (Windows NT 10.0; Win64; x64; rv:88.0) Gecko/20100101 Firefox/88.0"",""platform"":""Win32"",""language"":""el-GR"",""locale"":""el-GR"",""timeZone"":""Europe/Athens"",""timezoneOffset"":-180,""screen_width"":1366,""screen_height"":768,""scroll_width"":1366,""scroll_height"":555,""window_innerWidth"":1366,""window_innerHeight"":603,""devicePixelRatio"":1}",,,,,,,,,,,,,,,,,,,,,,,,,,,,,,,,,,,,,,,,,,,,,,,,,,,,,,,,,,,,,,,,,,,,,,,,,,,,,,,,,,,,,,,,,,,,,,,,,,,,,,,,,,,,,,,,,,,6601.52,,form submission,,,,,,,,,,,,,,,,,,,,,,,,,,,,,,,,,,,,,,,,,,,,,,,,,,,,,,,,,,,,,,,,,,,,,,,,,,,,,,,,,,,,,,,9986,9984,3365.82,3360,3382.48,10002.6,,,"{""PROLIFIC_PID"":""5f1604ab044c9b75a8ad5737"",""STUDY_ID"":""60008f34cd719d13b0d706dd"",""SESSION_ID"":""60abd009af602de8ad50f640""}",
get_systemInfo,canvas.Screen,1,2021-05-24T16:11:29.796Z,,,,,,,,,,,,,,,,,,,,,,,,,,,,,,,,,,,,,,,,,,,,,,,,,,,,,,,,,,,,,,,,,,,,,,,,,,,,,,,,,,,,,,,,,,,,,,,,,,,,,,,,,Firefox,,,,,,,,,,,3134.779999999999,,timeout,,88.0,,,,,,,,,,,,88,,,,,,,,Netscape,Mozilla/5.0 (Windows NT 10.0; Win64; x64; rv:88.0) Gecko/20100101 Firefox/88.0,Windows,,,,,,,,,,,,,,,,,,,,,,,,,,,,,,,,,,,,,,,,,,,,,,,,5f1604ab044c9b75a8ad5737,,60008f34cd719d13b0d706dd,,,,,,,,,,,,,10005,10003,9985.94,9992,10002.6,13137.38,,,,
ConsentForm,html.Form,2_0,2021-05-24T16:17:47.695Z,,,,,,,,,,,,,,,,,,,,,,,,,,,,,,,,,,,,,,,,,,,,,,,,,,,,,,,,,,,,,,,,,,,,,,,,,,,,,,,,,,,,,,,,,,,,,,,,,,,,,,,,,,,,true,true,,,,,,,374764.62,,form submission,,,,,,,,,,,,,,,,,,,,,,,,,,,,,,,,,,,,,,,,,,,,,,,,,,,,,,,,,,,,,,,,,,,,,,,,,,,,,,,,,,,,,,,387903,387902,10003,13133,13137.38,387920.26,,,,
PepTalk,html.Page,2_1,2021-05-24T16:18:00.928Z,,,,,,,,,,,,,,,,,,,,,,,,,,,,,,,,,,,,,,,,,,,,,,,,,,,,,,,,,,,,,,,,,,,,,,,,,,,,,,,,,,,,,,,,,,,,,,,,,,,,,,,,,,,,,,,,,,,,13215.73999999999,,form submission,,,,,,,,,,,,,,,,,,,,,,,,,,,,,,,,,,,,,,,,,,,,,,,,,,,,,,,,,,,,,,,,,,,,,,,,,,,,,,,,,,,,,,,401137,401136,387903.6,387906,387920.26,401160.3,,,,
Demographics,html.Form,2_2,2021-05-24T16:18:40.741Z,,,,,,,,,,,,,,,,,,,,,,,,,,,,,,,,,,,,,,,,,,,,,,,,,,,,,,,,,,,,,,,,,,,,,,,,,,,,,,,,,,,,,,,,,,,,,,,,,,,,,,,,,,,,,,,,,,,,39788.70000000001,2,form submission,,,2,,,,,30,,University student,,,,,,,,,,,,,,,,,,,,,,,,,,,,,,,,,,,,,,,,,,,,,,,,,,,,,,,,,,,,,,,,,,,,,,,,,,,,,440950,440949,401143.64,401137,401160.3,440960.94,,,,
InclusionCrit,html.Form,2_3,2021-05-24T16:18:56.993Z,,,,,,,,,,,,,,,,,,,,,,,,,,,,,,,,,,,,,,,,,,,,,,,,,,,,,,,,,,,,,,,,,,,,,,,,,,,,,,,,,,,,,,,,,,,,,,,,,,,,,,,,,,,,,,,,,,1,1,16240.059999999998,,form submission,1,,,,,,,,,,,,,,,,,,,,,,,,,,,,,,,,,,,,,,,,,,,,,,,,,,,,,,,,,,,,,,,,,,,,,,,,,,,,,,,,,,,,,,457202,457201,440944.28,440950,440960.94,457217.58,,,,
Selection,html.Page,2_4_0,2021-05-24T16:19:12.090Z,,,,,,,,,,,,,,,,,,,,,,,,,,,,,,,,,,,,,,,,,,,,,,,,,,,,,,,,,,,,,,,,,,,,,,,,,,,,,,,,,,,,,,,,,,,,,,,,,,,,,,,,,,,,,,,,,,,,15080.419999999984,,form submission,,,,,,,,,,,,,,,,,,,,,,,,,,,,,,,,,,,,,,,,,,,,,,,,,,,,,,,,,,,,,,,,,,,,,,,,,,,,,,,0,,,,,,,,472298,472298,457200.92,457203,457217.58,472324.1,,,,
Load,html.Page,2_4_1,2021-05-24T16:19:12.118Z,,,,,,,,,,,,,,,,,,,,,,,,,,,,,,,,,,,,,,,,,,,,,,,,,,,,,,,,,,,,,,,,,,,,,,,,,,,,,,,,,,,,,,,,,,,,,,,,,,,,,,,,,,,,,,,,,,,,5853.360000000044,,timeout,,,,,,,,,,,,,,,,,,,,,,,,,,,,,,,,,,,,,,,,,,,,,,,,,,,,,,,,,,,,,,,,,,,,,,,,,,,,,,,,,,,,,,,472327,472326,472307.42,472299,472324.1,478177.46,,,,
ratings_instructions,html.Screen,2_4_2_0,2021-05-24T16:19:43.532Z,,,,,,,,,,,,,,,,,,,,,,,,,,,,,,,,,,,,,,,,,,,,,,,,,,,,,,,,,,,,,,,,,,,,,,,,,,,,,,,,,,,,,,,,,,,,,,,,,,,,,,,,,,,,,,,,,,,,25538.53999999998,,response,,,,,,,,,,,,,,,,,,,,,,,,,,,,,,,,,,,,,,,,,,,,,,,,,,,,,,,,,,,,,,,,,,,,,,,,,,,,continue,keypress(Space),false,,,,,,,,,503741,503716,472326,478170,478177.46,503771.8,0,0,,
fixCross,canvas.Screen,2_4_2_1_0_0,2021-05-24T16:19:44.049Z,,,,,,,,,,,,,,,,,,,,,,,,,,,,,,,,,,,,,,,,,,,,,,,,,,,,,,,,,,,,,,,,,,,,,,,,,,,,,,,,,,,,,,,,,,,,,,,,,,,,,,,,,,,,,,,,,,,,500,,timeout,,,,healthy,,raspberry.png,,,,,,,,,,,,,,,raspberry,,,,,,,,,,,,,,,,,,,,,,,,,,,,,,,,,,,,,,,,,,,,,,,,,,,,,,,,,false,,,,,,,,,504257,504255.14,503755.14,503741,503771.8,504271.8,,,,
Rating,html.Form,2_4_2_1_0_1,2021-05-24T16:19:59.019Z,,,,,,,,,,,,,,,,,,,,,,,,,,,,,,,,,,,,,,,,,,,,,,,,,,,,,,,,,,,,,,,,,,,,,,,,,,,,,,,,,,,,,,,,,,,,,,,,,,,,,,,,,,,,,,,,,,,,14955.200000000012,,form submission,,,,healthy,,raspberry.png,,,,,,,,,,,,,,,raspberry,,,,,,,,,,,,,,,,,,,,,,,,,,,,,,,,,,,,,,,,,,,,,,,,,,,,,,,,,false,,,,,,,,,519228,519227,504255.14,504258,504271.8,519245.02,,,,74
rating_sequence,flow.Sequence,2_4_2_1_0,2021-05-24T16:19:59.019Z,,,,,,,,,,,,,,,,,,,,,,,,,,,,,,,,,,,,,,,,,,,,,,,,,,,,,,,,,,,,,,,,,,,,,,,,,,,,,,,,,,,,,,,,,,,,,,,,,,,,,,,,,,,,,,,,,,,,15455.200000000012,,completion,,,,healthy,,raspberry.png,,,,,,,,,,,,,,,raspberry,,,,,,,,,,,,,,,,,,,,,,,,,,,,,,,,,,,,,,,,,,,,,,,,,,,,,,,,,false,,,,,,,,,519228,519227,503755.14,503741,503771.8,519245.02,,,,
fixCross,canvas.Screen,2_4_2_1_1_0,2021-05-24T16:19:59.522Z,,,,,,,,,,,,,,,,,,,,,,,,,,,,,,,,,,,,,,,,,,,,,,,,,,,,,,,,,,,,,,,,,,,,,,,,,,,,,,,,,,,,,,,,,,,,,,,,,,,,,,,,,,,,,,,,,,,,500,,timeout,,,,healthy,,blueberry.png,,,,,,,,,,,,,,,blueberry,,,,,,,,,,,,,,,,,,,,,,,,,,,,,,,,,,,,,,,,,,,,,,,,,,,,,,,,,false,,,,,,,,,519730,519728.34,519228.34,519228,519245.02,519745.02,,,,
Rating,html.Form,2_4_2_1_1_1,2021-05-24T16:20:06.686Z,,,,,,,,,,,,,,,,,,,,,,,,,,,,,,,,,,,,,,,,,,,,,,,,,,,,,,,,,,,,,,,,,,,,,,,,,,,,,,,,,,,,,,,,,,,,,,,,,,,,,,,,,,,,,,,,,,,,7148.979999999981,,form submission,,,,healthy,,blueberry.png,,,,,,,,,,,,,,,blueberry,,,,,,,,,,,,,,,,,,,,,,,,,,,,,,,,,,,,,,,,,,,,,,,,,,,,,,,,,false,,,,,,,,,526895,526894,519728.34,519732,519745.02,526916.54,,,,82
rating_sequence,flow.Sequence,2_4_2_1_1,2021-05-24T16:20:06.686Z,,,,,,,,,,,,,,,,,,,,,,,,,,,,,,,,,,,,,,,,,,,,,,,,,,,,,,,,,,,,,,,,,,,,,,,,,,,,,,,,,,,,,,,,,,,,,,,,,,,,,,,,,,,,,,,,,,,,7648.979999999981,,completion,,,,healthy,,blueberry.png,,,,,,,,,,,,,,,blueberry,,,,,,,,,,,,,,,,,,,,,,,,,,,,,,,,,,,,,,,,,,,,,,,,,,,,,,,,,false,,,,,,,,,526895,526894,519228.34,519228,519245.02,526916.54,,,,
fixCross,canvas.Screen,2_4_2_1_2_0,2021-05-24T16:20:07.193Z,,,,,,,,,,,,,,,,,,,,,,,,,,,,,,,,,,,,,,,,,,,,,,,,,,,,,,,,,,,,,,,,,,,,,,,,,,,,,,,,,,,,,,,,,,,,,,,,,,,,,,,,,,,,,,,,,,,,500,,timeout,,,,unhealthy,,liqorice.png,,,,,,,,,,,,,,,liquorice,,,,,,,,,,,,,,,,,,,,,,,,,,,,,,,,,,,,,,,,,,,,,,,,,,,,,,,,,false,,,,,,,,,527401,527399.88,526898.5,526895,526916.54,527416.54,,,,
Rating,html.Form,2_4_2_1_2_1,2021-05-24T16:20:14.435Z,,,,,,,,,,,,,,,,,,,,,,,,,,,,,,,,,,,,,,,,,,,,,,,,,,,,,,,,,,,,,,,,,,,,,,,,,,,,,,,,,,,,,,,,,,,,,,,,,,,,,,,,,,,,,,,,,,,,7226.459999999963,,form submission,,,,unhealthy,,liqorice.png,,,,,,,,,,,,,,,liquorice,,,,,,,,,,,,,,,,,,,,,,,,,,,,,,,,,,,,,,,,,,,,,,,,,,,,,,,,,false,,,,,,,,,534644,534643,527399.88,527401,527416.54,534669.94,,,,21
rating_sequence,flow.Sequence,2_4_2_1_2,2021-05-24T16:20:14.435Z,,,,,,,,,,,,,,,,,,,,,,,,,,,,,,,,,,,,,,,,,,,,,,,,,,,,,,,,,,,,,,,,,,,,,,,,,,,,,,,,,,,,,,,,,,,,,,,,,,,,,,,,,,,,,,,,,,,,7726.459999999963,,completion,,,,unhealthy,,liqorice.png,,,,,,,,,,,,,,,liquorice,,,,,,,,,,,,,,,,,,,,,,,,,,,,,,,,,,,,,,,,,,,,,,,,,,,,,,,,,false,,,,,,,,,534644,534643,526898.5,526895,526916.54,534669.94,,,,
fixCross,canvas.Screen,2_4_2_1_3_0,2021-05-24T16:20:14.946Z,,,,,,,,,,,,,,,,,,,,,,,,,,,,,,,,,,,,,,,,,,,,,,,,,,,,,,,,,,,,,,,,,,,,,,,,,,,,,,,,,,,,,,,,,,,,,,,,,,,,,,,,,,,,,,,,,,,,500,,timeout,,,,unhealthy,,candy.png,,,,,,,,,,,,,,,candy,,,,,,,,,,,,,,,,,,,,,,,,,,,,,,,,,,,,,,,,,,,,,,,,,,,,,,,,,false,,,,,,,,,535155,535153.28,534653.28,534644,534669.94,535169.94,,,,
Rating,html.Form,2_4_2_1_3_1,2021-05-24T16:20:23.749Z,,,,,,,,,,,,,,,,,,,,,,,,,,,,,,,,,,,,,,,,,,,,,,,,,,,,,,,,,,,,,,,,,,,,,,,,,,,,,,,,,,,,,,,,,,,,,,,,,,,,,,,,,,,,,,,,,,,,8787.060000000056,,form submission,,,,unhealthy,,candy.png,,,,,,,,,,,,,,,candy,,,,,,,,,,,,,,,,,,,,,,,,,,,,,,,,,,,,,,,,,,,,,,,,,,,,,,,,,false,,,,,,,,,543957,543957,535153.28,535155,535169.94,543973.32,,,,77
rating_sequence,flow.Sequence,2_4_2_1_3,2021-05-24T16:20:23.749Z,,,,,,,,,,,,,,,,,,,,,,,,,,,,,,,,,,,,,,,,,,,,,,,,,,,,,,,,,,,,,,,,,,,,,,,,,,,,,,,,,,,,,,,,,,,,,,,,,,,,,,,,,,,,,,,,,,,,9287.060000000056,,completion,,,,unhealthy,,candy.png,,,,,,,,,,,,,,,candy,,,,,,,,,,,,,,,,,,,,,,,,,,,,,,,,,,,,,,,,,,,,,,,,,,,,,,,,,false,,,,,,,,,543958,543957,534653.28,534644,534669.94,543973.32,,,,
fixCross,canvas.Screen,2_4_2_1_4_0,2021-05-24T16:20:24.250Z,,,,,,,,,,,,,,,,,,,,,,,,,,,,,,,,,,,,,,,,,,,,,,,,,,,,,,,,,,,,,,,,,,,,,,,,,,,,,,,,,,,,,,,,,,,,,,,,,,,,,,,,,,,,,,,,,,,,500,,timeout,,,,unhealthy,,chocolate.png,,,,,,,,,,,,,,,chocolate,,,,,,,,,,,,,,,,,,,,,,,,,,,,,,,,,,,,,,,,,,,,,,,,,,,,,,,,,false,,,,,,,,,544459,544456.66,543956.66,543959,543973.32,544473.32,,,,
Rating,html.Form,2_4_2_1_4_1,2021-05-24T16:20:37.236Z,,,,,,,,,,,,,,,,,,,,,,,,,,,,,,,,,,,,,,,,,,,,,,,,,,,,,,,,,,,,,,,,,,,,,,,,,,,,,,,,,,,,,,,,,,,,,,,,,,,,,,,,,,,,,,,,,,,,12970.680000000051,,form submission,,,,unhealthy,,chocolate.png,,,,,,,,,,,,,,,chocolate,,,,,,,,,,,,,,,,,,,,,,,,,,,,,,,,,,,,,,,,,,,,,,,,,,,,,,,,,false,,,,,,,,,557444,557444,544456.66,544459,544473.32,557462.88,,,,91
rating_sequence,flow.Sequence,2_4_2_1_4,2021-05-24T16:20:37.237Z,,,,,,,,,,,,,,,,,,,,,,,,,,,,,,,,,,,,,,,,,,,,,,,,,,,,,,,,,,,,,,,,,,,,,,,,,,,,,,,,,,,,,,,,,,,,,,,,,,,,,,,,,,,,,,,,,,,,13470.680000000051,,completion,,,,unhealthy,,chocolate.png,,,,,,,,,,,,,,,chocolate,,,,,,,,,,,,,,,,,,,,,,,,,,,,,,,,,,,,,,,,,,,,,,,,,,,,,,,,,false,,,,,,,,,557445,557444,543956.66,543959,543973.32,557462.88,,,,
fixCross,canvas.Screen,2_4_2_1_5_0,2021-05-24T16:20:37.740Z,,,,,,,,,,,,,,,,,,,,,,,,,,,,,,,,,,,,,,,,,,,,,,,,,,,,,,,,,,,,,,,,,,,,,,,,,,,,,,,,,,,,,,,,,,,,,,,,,,,,,,,,,,,,,,,,,,,,500,,timeout,,,,unhealthy,,praline.png,,,,,,,,,,,,,,,praline,,,,,,,,,,,,,,,,,,,,,,,,,,,,,,,,,,,,,,,,,,,,,,,,,,,,,,,,,false,,,,,,,,,557948,557946.2,557446.2,557445,557462.88,557962.88,,,,
Rating,html.Form,2_4_2_1_5_1,2021-05-24T16:20:44.856Z,,,,,,,,,,,,,,,,,,,,,,,,,,,,,,,,,,,,,,,,,,,,,,,,,,,,,,,,,,,,,,,,,,,,,,,,,,,,,,,,,,,,,,,,,,,,,,,,,,,,,,,,,,,,,,,,,,,,7100.119999999995,,form submission,,,,unhealthy,,praline.png,,,,,,,,,,,,,,,praline,,,,,,,,,,,,,,,,,,,,,,,,,,,,,,,,,,,,,,,,,,,,,,,,,,,,,,,,,false,,,,,,,,,565064,565063,557946.2,557949,557962.88,565082.84,,,,91
rating_sequence,flow.Sequence,2_4_2_1_5,2021-05-24T16:20:44.856Z,,,,,,,,,,,,,,,,,,,,,,,,,,,,,,,,,,,,,,,,,,,,,,,,,,,,,,,,,,,,,,,,,,,,,,,,,,,,,,,,,,,,,,,,,,,,,,,,,,,,,,,,,,,,,,,,,,,,7600.119999999995,,completion,,,,unhealthy,,praline.png,,,,,,,,,,,,,,,praline,,,,,,,,,,,,,,,,,,,,,,,,,,,,,,,,,,,,,,,,,,,,,,,,,,,,,,,,,false,,,,,,,,,565064,565063,557446.2,557445,557462.88,565082.84,,,,
fixCross,canvas.Screen,2_4_2_1_6_0,2021-05-24T16:20:45.360Z,,,,,,,,,,,,,,,,,,,,,,,,,,,,,,,,,,,,,,,,,,,,,,,,,,,,,,,,,,,,,,,,,,,,,,,,,,,,,,,,,,,,,,,,,,,,,,,,,,,,,,,,,,,,,,,,,,,,500,,timeout,,,,unhealthy,,marshmallow.png,,,,,,,,,,,,,,,marshmallow,,,,,,,,,,,,,,,,,,,,,,,,,,,,,,,,,,,,,,,,,,,,,,,,,,,,,,,,,false,,,,,,,,,565568,565566.16,565066.16,565064,565082.84,565582.84,,,,
Rating,html.Form,2_4_2_1_6_1,2021-05-24T16:20:51.086Z,,,,,,,,,,,,,,,,,,,,,,,,,,,,,,,,,,,,,,,,,,,,,,,,,,,,,,,,,,,,,,,,,,,,,,,,,,,,,,,,,,,,,,,,,,,,,,,,,,,,,,,,,,,,,,,,,,,,5711.160000000033,,form submission,,,,unhealthy,,marshmallow.png,,,,,,,,,,,,,,,marshmallow,,,,,,,,,,,,,,,,,,,,,,,,,,,,,,,,,,,,,,,,,,,,,,,,,,,,,,,,,false,,,,,,,,,571294,571294,565566.16,565569,565582.84,571319.38,,,,58
rating_sequence,flow.Sequence,2_4_2_1_6,2021-05-24T16:20:51.086Z,,,,,,,,,,,,,,,,,,,,,,,,,,,,,,,,,,,,,,,,,,,,,,,,,,,,,,,,,,,,,,,,,,,,,,,,,,,,,,,,,,,,,,,,,,,,,,,,,,,,,,,,,,,,,,,,,,,,6211.160000000033,,completion,,,,unhealthy,,marshmallow.png,,,,,,,,,,,,,,,marshmallow,,,,,,,,,,,,,,,,,,,,,,,,,,,,,,,,,,,,,,,,,,,,,,,,,,,,,,,,,false,,,,,,,,,571295,571294,565066.16,565064,565082.84,571319.38,,,,
fixCross,canvas.Screen,2_4_2_1_7_0,2021-05-24T16:20:51.596Z,,,,,,,,,,,,,,,,,,,,,,,,,,,,,,,,,,,,,,,,,,,,,,,,,,,,,,,,,,,,,,,,,,,,,,,,,,,,,,,,,,,,,,,,,,,,,,,,,,,,,,,,,,,,,,,,,,,,500,,timeout,,,,healthy,,coconut.png,,,,,,,,,,,,,,,coconut,,,,,,,,,,,,,,,,,,,,,,,,,,,,,,,,,,,,,,,,,,,,,,,,,,,,,,,,,false,,,,,,,,,571804,571802.72,571302.72,571295,571319.38,571819.38,,,,
Rating,html.Form,2_4_2_1_7_1,2021-05-24T16:20:56.069Z,,,,,,,,,,,,,,,,,,,,,,,,,,,,,,,,,,,,,,,,,,,,,,,,,,,,,,,,,,,,,,,,,,,,,,,,,,,,,,,,,,,,,,,,,,,,,,,,,,,,,,,,,,,,,,,,,,,,4457.619999999995,,form submission,,,,healthy,,coconut.png,,,,,,,,,,,,,,,coconut,,,,,,,,,,,,,,,,,,,,,,,,,,,,,,,,,,,,,,,,,,,,,,,,,,,,,,,,,false,,,,,,,,,576278,576277,571802.72,571804,571819.38,576304.16,,,,68
rating_sequence,flow.Sequence,2_4_2_1_7,2021-05-24T16:20:56.070Z,,,,,,,,,,,,,,,,,,,,,,,,,,,,,,,,,,,,,,,,,,,,,,,,,,,,,,,,,,,,,,,,,,,,,,,,,,,,,,,,,,,,,,,,,,,,,,,,,,,,,,,,,,,,,,,,,,,,4957.619999999995,,completion,,,,healthy,,coconut.png,,,,,,,,,,,,,,,coconut,,,,,,,,,,,,,,,,,,,,,,,,,,,,,,,,,,,,,,,,,,,,,,,,,,,,,,,,,false,,,,,,,,,576278,576277,571302.72,571295,571319.38,576304.16,,,,
fixCross,canvas.Screen,2_4_2_1_8_0,2021-05-24T16:20:56.582Z,,,,,,,,,,,,,,,,,,,,,,,,,,,,,,,,,,,,,,,,,,,,,,,,,,,,,,,,,,,,,,,,,,,,,,,,,,,,,,,,,,,,,,,,,,,,,,,,,,,,,,,,,,,,,,,,,,,,500,,timeout,,,,unhealthy,,m&m.png,,,,,,,,,,,,,,,m&m,,,,,,,,,,,,,,,,,,,,,,,,,,,,,,,,,,,,,,,,,,,,,,,,,,,,,,,,,false,,,,,,,,,576790,576787.48,576287.48,576278,576304.16,576804.16,,,,
Rating,html.Form,2_4_2_1_8_1,2021-05-24T16:21:01.632Z,,,,,,,,,,,,,,,,,,,,,,,,,,,,,,,,,,,,,,,,,,,,,,,,,,,,,,,,,,,,,,,,,,,,,,,,,,,,,,,,,,,,,,,,,,,,,,,,,,,,,,,,,,,,,,,,,,,,5035.839999999967,,form submission,,,,unhealthy,,m&m.png,,,,,,,,,,,,,,,m&m,,,,,,,,,,,,,,,,,,,,,,,,,,,,,,,,,,,,,,,,,,,,,,,,,,,,,,,,,false,,,,,,,,,581840,581840,576787.48,576790,576804.16,581857.56,,,,95
rating_sequence,flow.Sequence,2_4_2_1_8,2021-05-24T16:21:01.632Z,,,,,,,,,,,,,,,,,,,,,,,,,,,,,,,,,,,,,,,,,,,,,,,,,,,,,,,,,,,,,,,,,,,,,,,,,,,,,,,,,,,,,,,,,,,,,,,,,,,,,,,,,,,,,,,,,,,,5535.839999999967,,completion,,,,unhealthy,,m&m.png,,,,,,,,,,,,,,,m&m,,,,,,,,,,,,,,,,,,,,,,,,,,,,,,,,,,,,,,,,,,,,,,,,,,,,,,,,,false,,,,,,,,,581841,581840,576287.48,576278,576304.16,581857.56,,,,
fixCross,canvas.Screen,2_4_2_1_9_0,2021-05-24T16:21:02.134Z,,,,,,,,,,,,,,,,,,,,,,,,,,,,,,,,,,,,,,,,,,,,,,,,,,,,,,,,,,,,,,,,,,,,,,,,,,,,,,,,,,,,,,,,,,,,,,,,,,,,,,,,,,,,,,,,,,,,500,,timeout,,,,healthy,,pear.png,,,,,,,,,,,,,,,pear,,,,,,,,,,,,,,,,,,,,,,,,,,,,,,,,,,,,,,,,,,,,,,,,,,,,,,,,,false,,,,,,,,,582342,582340.9,581840.9,581841,581857.56,582357.56,,,,
Rating,html.Form,2_4_2_1_9_1,2021-05-24T16:21:11.104Z,,,,,,,,,,,,,,,,,,,,,,,,,,,,,,,,,,,,,,,,,,,,,,,,,,,,,,,,,,,,,,,,,,,,,,,,,,,,,,,,,,,,,,,,,,,,,,,,,,,,,,,,,,,,,,,,,,,,8955.439999999944,,form submission,,,,healthy,,pear.png,,,,,,,,,,,,,,,pear,,,,,,,,,,,,,,,,,,,,,,,,,,,,,,,,,,,,,,,,,,,,,,,,,,,,,,,,,false,,,,,,,,,591313,591313,582340.9,582342,582357.56,591327.44,,,,67
rating_sequence,flow.Sequence,2_4_2_1_9,2021-05-24T16:21:11.106Z,,,,,,,,,,,,,,,,,,,,,,,,,,,,,,,,,,,,,,,,,,,,,,,,,,,,,,,,,,,,,,,,,,,,,,,,,,,,,,,,,,,,,,,,,,,,,,,,,,,,,,,,,,,,,,,,,,,,9455.439999999944,,completion,,,,healthy,,pear.png,,,,,,,,,,,,,,,pear,,,,,,,,,,,,,,,,,,,,,,,,,,,,,,,,,,,,,,,,,,,,,,,,,,,,,,,,,false,,,,,,,,,591313,591313,581840.9,581841,581857.56,591327.44,,,,
fixCross,canvas.Screen,2_4_2_1_10_0,2021-05-24T16:21:11.605Z,,,,,,,,,,,,,,,,,,,,,,,,,,,,,,,,,,,,,,,,,,,,,,,,,,,,,,,,,,,,,,,,,,,,,,,,,,,,,,,,,,,,,,,,,,,,,,,,,,,,,,,,,,,,,,,,,,,,500,,timeout,,,,healthy,,apple.png,,,,,,,,,,,,,,,apple,,,,,,,,,,,,,,,,,,,,,,,,,,,,,,,,,,,,,,,,,,,,,,,,,,,,,,,,,false,,,,,,,,,591813,591810.78,591310.78,591313,591327.44,591827.44,,,,
Rating,html.Form,2_4_2_1_10_1,2021-05-24T16:21:17.833Z,,,,,,,,,,,,,,,,,,,,,,,,,,,,,,,,,,,,,,,,,,,,,,,,,,,,,,,,,,,,,,,,,,,,,,,,,,,,,,,,,,,,,,,,,,,,,,,,,,,,,,,,,,,,,,,,,,,,6214.560000000056,,form submission,,,,healthy,,apple.png,,,,,,,,,,,,,,,apple,,,,,,,,,,,,,,,,,,,,,,,,,,,,,,,,,,,,,,,,,,,,,,,,,,,,,,,,,false,,,,,,,,,598042,598042,591810.78,591814,591827.44,598063.94,,,,70
rating_sequence,flow.Sequence,2_4_2_1_10,2021-05-24T16:21:17.834Z,,,,,,,,,,,,,,,,,,,,,,,,,,,,,,,,,,,,,,,,,,,,,,,,,,,,,,,,,,,,,,,,,,,,,,,,,,,,,,,,,,,,,,,,,,,,,,,,,,,,,,,,,,,,,,,,,,,,6714.560000000056,,completion,,,,healthy,,apple.png,,,,,,,,,,,,,,,apple,,,,,,,,,,,,,,,,,,,,,,,,,,,,,,,,,,,,,,,,,,,,,,,,,,,,,,,,,false,,,,,,,,,598043,598042,591310.78,591313,591327.44,598063.94,,,,
fixCross,canvas.Screen,2_4_2_1_11_0,2021-05-24T16:21:18.341Z,,,,,,,,,,,,,,,,,,,,,,,,,,,,,,,,,,,,,,,,,,,,,,,,,,,,,,,,,,,,,,,,,,,,,,,,,,,,,,,,,,,,,,,,,,,,,,,,,,,,,,,,,,,,,,,,,,,,500,,timeout,,,,unhealthy,,chocolate_truffle.png,,,,,,,,,,,,,,,chocolate truffle,,,,,,,,,,,,,,,,,,,,,,,,,,,,,,,,,,,,,,,,,,,,,,,,,,,,,,,,,false,,,,,,,,,598550,598547.26,598047.26,598043,598063.94,598563.94,,,,
Rating,html.Form,2_4_2_1_11_1,2021-05-24T16:21:22.840Z,,,,,,,,,,,,,,,,,,,,,,,,,,,,,,,,,,,,,,,,,,,,,,,,,,,,,,,,,,,,,,,,,,,,,,,,,,,,,,,,,,,,,,,,,,,,,,,,,,,,,,,,,,,,,,,,,,,,4483.060000000056,,form submission,,,,unhealthy,,chocolate_truffle.png,,,,,,,,,,,,,,,chocolate truffle,,,,,,,,,,,,,,,,,,,,,,,,,,,,,,,,,,,,,,,,,,,,,,,,,,,,,,,,,false,,,,,,,,,603048,603047,598547.26,598550,598563.94,603067.08,,,,92
rating_sequence,flow.Sequence,2_4_2_1_11,2021-05-24T16:21:22.840Z,,,,,,,,,,,,,,,,,,,,,,,,,,,,,,,,,,,,,,,,,,,,,,,,,,,,,,,,,,,,,,,,,,,,,,,,,,,,,,,,,,,,,,,,,,,,,,,,,,,,,,,,,,,,,,,,,,,,4983.060000000056,,completion,,,,unhealthy,,chocolate_truffle.png,,,,,,,,,,,,,,,chocolate truffle,,,,,,,,,,,,,,,,,,,,,,,,,,,,,,,,,,,,,,,,,,,,,,,,,,,,,,,,,false,,,,,,,,,603048,603047,598047.26,598043,598063.94,603067.08,,,,
fixCross,canvas.Screen,2_4_2_1_12_0,2021-05-24T16:21:23.343Z,,,,,,,,,,,,,,,,,,,,,,,,,,,,,,,,,,,,,,,,,,,,,,,,,,,,,,,,,,,,,,,,,,,,,,,,,,,,,,,,,,,,,,,,,,,,,,,,,,,,,,,,,,,,,,,,,,,,500,,timeout,,,,healthy,,orange.png,,,,,,,,,,,,,,,orange,,,,,,,,,,,,,,,,,,,,,,,,,,,,,,,,,,,,,,,,,,,,,,,,,,,,,,,,,false,,,,,,,,,603551,603550.4,603050.4,603048,603067.08,603567.08,,,,
Rating,html.Form,2_4_2_1_12_1,2021-05-24T16:21:30.239Z,,,,,,,,,,,,,,,,,,,,,,,,,,,,,,,,,,,,,,,,,,,,,,,,,,,,,,,,,,,,,,,,,,,,,,,,,,,,,,,,,,,,,,,,,,,,,,,,,,,,,,,,,,,,,,,,,,,,6879.920000000042,,form submission,,,,healthy,,orange.png,,,,,,,,,,,,,,,orange,,,,,,,,,,,,,,,,,,,,,,,,,,,,,,,,,,,,,,,,,,,,,,,,,,,,,,,,,false,,,,,,,,,610448,610447,603550.4,603551,603567.08,610470.26,,,,94
rating_sequence,flow.Sequence,2_4_2_1_12,2021-05-24T16:21:30.239Z,,,,,,,,,,,,,,,,,,,,,,,,,,,,,,,,,,,,,,,,,,,,,,,,,,,,,,,,,,,,,,,,,,,,,,,,,,,,,,,,,,,,,,,,,,,,,,,,,,,,,,,,,,,,,,,,,,,,7379.920000000042,,completion,,,,healthy,,orange.png,,,,,,,,,,,,,,,orange,,,,,,,,,,,,,,,,,,,,,,,,,,,,,,,,,,,,,,,,,,,,,,,,,,,,,,,,,false,,,,,,,,,610448,610447,603050.4,603048,603067.08,610470.26,,,,
fixCross,canvas.Screen,2_4_2_1_13_0,2021-05-24T16:21:30.746Z,,,,,,,,,,,,,,,,,,,,,,,,,,,,,,,,,,,,,,,,,,,,,,,,,,,,,,,,,,,,,,,,,,,,,,,,,,,,,,,,,,,,,,,,,,,,,,,,,,,,,,,,,,,,,,,,,,,,500,,timeout,,,,healthy,,strawberry.png,,,,,,,,,,,,,,,strawberry,,,,,,,,,,,,,,,,,,,,,,,,,,,,,,,,,,,,,,,,,,,,,,,,,,,,,,,,,false,,,,,,,,,610955,610953.58,610453.58,610448,610470.26,610970.26,,,,
Rating,html.Form,2_4_2_1_13_1,2021-05-24T16:21:34.957Z,,,,,,,,,,,,,,,,,,,,,,,,,,,,,,,,,,,,,,,,,,,,,,,,,,,,,,,,,,,,,,,,,,,,,,,,,,,,,,,,,,,,,,,,,,,,,,,,,,,,,,,,,,,,,,,,,,,,4195.739999999991,,form submission,,,,healthy,,strawberry.png,,,,,,,,,,,,,,,strawberry,,,,,,,,,,,,,,,,,,,,,,,,,,,,,,,,,,,,,,,,,,,,,,,,,,,,,,,,,false,,,,,,,,,615166,615166,610953.58,610955,610970.26,615188.54,,,,90
rating_sequence,flow.Sequence,2_4_2_1_13,2021-05-24T16:21:34.957Z,,,,,,,,,,,,,,,,,,,,,,,,,,,,,,,,,,,,,,,,,,,,,,,,,,,,,,,,,,,,,,,,,,,,,,,,,,,,,,,,,,,,,,,,,,,,,,,,,,,,,,,,,,,,,,,,,,,,4695.739999999991,,completion,,,,healthy,,strawberry.png,,,,,,,,,,,,,,,strawberry,,,,,,,,,,,,,,,,,,,,,,,,,,,,,,,,,,,,,,,,,,,,,,,,,,,,,,,,,false,,,,,,,,,615166,615166,610453.58,610448,610470.26,615188.54,,,,
fixCross,canvas.Screen,2_4_2_1_14_0,2021-05-24T16:21:35.465Z,,,,,,,,,,,,,,,,,,,,,,,,,,,,,,,,,,,,,,,,,,,,,,,,,,,,,,,,,,,,,,,,,,,,,,,,,,,,,,,,,,,,,,,,,,,,,,,,,,,,,,,,,,,,,,,,,,,,500,,timeout,,,,unhealthy,,gummybear.png,,,,,,,,,,,,,,,gummybear,,,,,,,,,,,,,,,,,,,,,,,,,,,,,,,,,,,,,,,,,,,,,,,,,,,,,,,,,false,,,,,,,,,615674,615671.86,615171.86,615167,615188.54,615688.54,,,,
Rating,html.Form,2_4_2_1_14_1,2021-05-24T16:21:43.292Z,,,,,,,,,,,,,,,,,,,,,,,,,,,,,,,,,,,,,,,,,,,,,,,,,,,,,,,,,,,,,,,,,,,,,,,,,,,,,,,,,,,,,,,,,,,,,,,,,,,,,,,,,,,,,,,,,,,,7812.459999999963,,form submission,,,,unhealthy,,gummybear.png,,,,,,,,,,,,,,,gummybear,,,,,,,,,,,,,,,,,,,,,,,,,,,,,,,,,,,,,,,,,,,,,,,,,,,,,,,,,false,,,,,,,,,623501,623501,615671.86,615674,615688.54,623525.3,,,,11
rating_sequence,flow.Sequence,2_4_2_1_14,2021-05-24T16:21:43.293Z,,,,,,,,,,,,,,,,,,,,,,,,,,,,,,,,,,,,,,,,,,,,,,,,,,,,,,,,,,,,,,,,,,,,,,,,,,,,,,,,,,,,,,,,,,,,,,,,,,,,,,,,,,,,,,,,,,,,8312.459999999963,,completion,,,,unhealthy,,gummybear.png,,,,,,,,,,,,,,,gummybear,,,,,,,,,,,,,,,,,,,,,,,,,,,,,,,,,,,,,,,,,,,,,,,,,,,,,,,,,false,,,,,,,,,623501,623501,615171.86,615167,615188.54,623525.3,,,,
fixCross,canvas.Screen,2_4_2_1_15_0,2021-05-24T16:21:43.802Z,,,,,,,,,,,,,,,,,,,,,,,,,,,,,,,,,,,,,,,,,,,,,,,,,,,,,,,,,,,,,,,,,,,,,,,,,,,,,,,,,,,,,,,,,,,,,,,,,,,,,,,,,,,,,,,,,,,,500,,timeout,,,,healthy,,grape.png,,,,,,,,,,,,,,,grape,,,,,,,,,,,,,,,,,,,,,,,,,,,,,,,,,,,,,,,,,,,,,,,,,,,,,,,,,false,,,,,,,,,624010,624008.62,623508.62,623502,623525.3,624025.3,,,,
Rating,html.Form,2_4_2_1_15_1,2021-05-24T16:21:49.447Z,,,,,,,,,,,,,,,,,,,,,,,,,,,,,,,,,,,,,,,,,,,,,,,,,,,,,,,,,,,,,,,,,,,,,,,,,,,,,,,,,,,,,,,,,,,,,,,,,,,,,,,,,,,,,,,,,,,,5628.699999999953,,form submission,,,,healthy,,grape.png,,,,,,,,,,,,,,,grape,,,,,,,,,,,,,,,,,,,,,,,,,,,,,,,,,,,,,,,,,,,,,,,,,,,,,,,,,false,,,,,,,,,629655,629654,624008.62,624011,624025.3,629678.48,,,,89
rating_sequence,flow.Sequence,2_4_2_1_15,2021-05-24T16:21:49.449Z,,,,,,,,,,,,,,,,,,,,,,,,,,,,,,,,,,,,,,,,,,,,,,,,,,,,,,,,,,,,,,,,,,,,,,,,,,,,,,,,,,,,,,,,,,,,,,,,,,,,,,,,,,,,,,,,,,,,6128.699999999953,,completion,,,,healthy,,grape.png,,,,,,,,,,,,,,,grape,,,,,,,,,,,,,,,,,,,,,,,,,,,,,,,,,,,,,,,,,,,,,,,,,,,,,,,,,false,,,,,,,,,629658,629654,623508.62,623502,623525.3,629678.48,,,,
fixCross,canvas.Screen,2_4_2_1_16_0,2021-05-24T16:21:49.956Z,,,,,,,,,,,,,,,,,,,,,,,,,,,,,,,,,,,,,,,,,,,,,,,,,,,,,,,,,,,,,,,,,,,,,,,,,,,,,,,,,,,,,,,,,,,,,,,,,,,,,,,,,,,,,,,,,,,,500,,timeout,,,,unhealthy,,maltesers.png,,,,,,,,,,,,,,,malteser,,,,,,,,,,,,,,,,,,,,,,,,,,,,,,,,,,,,,,,,,,,,,,,,,,,,,,,,,false,,,,,,,,,630164,630161.82,629661.82,629659,629678.48,630178.48,,,,
Rating,html.Form,2_4_2_1_16_1,2021-05-24T16:21:55.058Z,,,,,,,,,,,,,,,,,,,,,,,,,,,,,,,,,,,,,,,,,,,,,,,,,,,,,,,,,,,,,,,,,,,,,,,,,,,,,,,,,,,,,,,,,,,,,,,,,,,,,,,,,,,,,,,,,,,,5087.520000000019,,form submission,,,,unhealthy,,maltesers.png,,,,,,,,,,,,,,,malteser,,,,,,,,,,,,,,,,,,,,,,,,,,,,,,,,,,,,,,,,,,,,,,,,,,,,,,,,,false,,,,,,,,,635267,635266,630161.82,630164,630178.48,635281.58,,,,96
rating_sequence,flow.Sequence,2_4_2_1_16,2021-05-24T16:21:55.059Z,,,,,,,,,,,,,,,,,,,,,,,,,,,,,,,,,,,,,,,,,,,,,,,,,,,,,,,,,,,,,,,,,,,,,,,,,,,,,,,,,,,,,,,,,,,,,,,,,,,,,,,,,,,,,,,,,,,,5587.520000000019,,completion,,,,unhealthy,,maltesers.png,,,,,,,,,,,,,,,malteser,,,,,,,,,,,,,,,,,,,,,,,,,,,,,,,,,,,,,,,,,,,,,,,,,,,,,,,,,false,,,,,,,,,635268,635266,629661.82,629659,629678.48,635281.58,,,,
fixCross,canvas.Screen,2_4_2_1_17_0,2021-05-24T16:21:55.558Z,,,,,,,,,,,,,,,,,,,,,,,,,,,,,,,,,,,,,,,,,,,,,,,,,,,,,,,,,,,,,,,,,,,,,,,,,,,,,,,,,,,,,,,,,,,,,,,,,,,,,,,,,,,,,,,,,,,,500,,timeout,,,,healthy,,cherry.png,,,,,,,,,,,,,,,cherry,,,,,,,,,,,,,,,,,,,,,,,,,,,,,,,,,,,,,,,,,,,,,,,,,,,,,,,,,false,,,,,,,,,635766,635764.92,635264.92,635268,635281.58,635781.58,,,,
Rating,html.Form,2_4_2_1_17_1,2021-05-24T16:22:01.431Z,,,,,,,,,,,,,,,,,,,,,,,,,,,,,,,,,,,,,,,,,,,,,,,,,,,,,,,,,,,,,,,,,,,,,,,,,,,,,,,,,,,,,,,,,,,,,,,,,,,,,,,,,,,,,,,,,,,,5856.420000000042,,form submission,,,,healthy,,cherry.png,,,,,,,,,,,,,,,cherry,,,,,,,,,,,,,,,,,,,,,,,,,,,,,,,,,,,,,,,,,,,,,,,,,,,,,,,,,false,,,,,,,,,641640,641638,635764.92,635767,635781.58,641666.58,,,,95
rating_sequence,flow.Sequence,2_4_2_1_17,2021-05-24T16:22:01.432Z,,,,,,,,,,,,,,,,,,,,,,,,,,,,,,,,,,,,,,,,,,,,,,,,,,,,,,,,,,,,,,,,,,,,,,,,,,,,,,,,,,,,,,,,,,,,,,,,,,,,,,,,,,,,,,,,,,,,6356.420000000042,,completion,,,,healthy,,cherry.png,,,,,,,,,,,,,,,cherry,,,,,,,,,,,,,,,,,,,,,,,,,,,,,,,,,,,,,,,,,,,,,,,,,,,,,,,,,false,,,,,,,,,641640,641638,635264.92,635268,635281.58,641666.58,,,,
rating_loop,flow.Loop,2_4_2_1,2021-05-24T16:22:01.432Z,,,,,,,,,,,,,,,,,,,,,,,,,,,,,,,,,,,,,,,,,,,,,,,,,,,,,,,,,,,,,,,,,,,,,,,,,,,,,,,,,,,,,,,,,,,,,,,,,,,,,,,,,,,,,,,,,,,,137866.2,,completion,,,,,,,,,,,,,,,,,,,,,,,,,,,,,,,,,,,,,,,,,,,,,,,,,,,,,,,,,,,,,,,,,,,,,,,,,,,,,,false,,,,,,,,,641641,641638,503755.14,503741,503771.8,641666.58,,,,
data_transmission,html.Screen,2_4_2_2,2021-05-24T16:22:01.436Z,,,,,,,,,,,,,,,,,,,,,,,,,,,,,,,,,,,,,,,,,,,,,,,,,,,,,,,,,,,,,,,,,,,,,,,,,,,,,,,,,,,,,,,,,,,,,,,,,,,,,,,,,,,,,,,,,,,,NaN,,no compatible backend,,,,,,,,,,,,,,,Transferring data,,,,,,,,,,,,,,,,,,,,,,,,,,,,,,,,,,,,,,,,,,,,,,,,,,,,,,,,,,,,,,,false,,,Please wait a second…,,,,,,641644,641643,,641642,,641666.58,,,,
instructions,html.Screen,2_4_2_3,2021-05-24T16:24:23.637Z,,,,,,,,,,,,,,,,,,,,,,,,,,,,,,,,,,,,,,,,,,,,,,,,,,,,,,,,,,,,,,,,,,,,,,,,,,,,,,,,,,,,,,,,,,,,,,,,,,,,,,,,,,,,,,,,,,,,142176.42000000004,,done,,,,,,,,,,,,,,,,,,,,,,,,,,,,,,,,,,,,,,,,,,,,,,,,,,,,,,,,,,,,,,,,,,,,,,,,,,,,,,false,,,,,,,,,783844,783843,641649.92,641645,641666.58,783864.3,,,,
Q1,html.Screen,2_4_2_4_0,2021-05-24T16:24:34.629Z,,,,,,,,,,,,,,,,,,,,,,,,,,,,,,,,,,,,,,,,,,,,,,,,,,,,,,,,,,,,,,,,,,,,,,,,,,,,,,,,,,,,,,,,,,,,,,,,,,,,,,,,,,,,,,,,false,input_Q1==3,,,10959.699999999953,,response,,,,,,,,,,,,,,,,,,,,,,,,,Q1_i2,Q1_i4,Q1_i1,Q1_i3,2,4,1,3,false,false,false,correct,,,,,,,,,,,,,,,,,,,,,,,,,,,,,,,,,,,,,,,,,click #Q1_i3,false,,,,,,,,,794838,794824,783847.64,783846,783864.3,794852.54,,,,
Q1_correct,html.Screen,2_4_2_4_1,2021-05-24T16:24:36.647Z,,,,,,,,,,,,,,,,,,,,,,,,,,,,,,,,,,,,,,,,,,,,,,,,,,,,,,,,,,,,,,,,,,,,,,,,,,,,,,,,,,,,,,,,,,,,,,,,,,,,,,,,,,,,,,,,,,,,1987.4599999999627,,response,,,,,,,,,,,,,,,,,,,,,,,,,,,,,,,,,,,,,,,,,,,,,,,,,,,,,,,,,,,,,,,,,,,,,,,,,,,,,keypress,false,,,,,,,,,796855,796840,794835.86,794838,794852.54,796885.86,,,,
Q2,html.Screen,2_4_2_4_2,2021-05-24T16:24:45.893Z,,,,,,,,,,,,,,,,,,,,,,,,,,,,,,,,,,,,,,,,,,,,,,,,,,,,,,,,,,,,,,,,,,,,,,,,,,,,,,,,,,,,,,,,,,,,,,,,,,,,,,,,,,,,,,,,,,,,9204.140000000014,,response,,,,,,,,,,,,,,,,,,,,,,,,,,,,,,,,,,,,,Q2_i3,Q2_i2,Q2_i1,Same amount,Option 2,Option 1,same,opt2,correct,,,,,,,,,,,,,,,,,,,,,,,,,,,,,,,,click #Q2_i1,false,,,,,,,,,806102,806090,796869.2,796856,796885.86,806123.66,,,,
Q2_correct,html.Screen,2_4_2_4_3,2021-05-24T16:24:46.975Z,,,,,,,,,,,,,,,,,,,,,,,,,,,,,,,,,,,,,,,,,,,,,,,,,,,,,,,,,,,,,,,,,,,,,,,,,,,,,,,,,,,,,,,,,,,,,,,,,,,,,,,,,,,,,,,,,,,,1044.3399999999674,,response,,,,,,,,,,,,,,,,,,,,,,,,,,,,,,,,,,,,,,,,,,,,,,,,,,,,,,,,,,,,,,,,,,,,,,,,,,,,,keypress,false,,,,,,,,,807184,807168,806106.98,806102,806123.66,807206.98,,,,
Q4,html.Screen,2_4_2_4_4,2021-05-24T16:25:04.645Z,,,,,,,,,,,,,,,,,,,,,,,,,,,,,,,,,,,,,,,,,,,,,,,,,,,,,,,,,,,,,,,,,,,,,,,,,,,,,,,,,,,,,,,,,,,,,,,,,,,,,,,,,,,,,,,,,,,,17633.02000000002,,response,,,,,,,,,,,,,,,,,,,,,,,,,,,,,,,,,,,,,,,,,,,,,,Q4_i4,Q4_i1,Q4_i2,Q4_i3,Press the space key,Press the arrow key that corresponds with the snack option I prefer,Indicate the number of food items in each snack option,Press the arrow key that corresponds with the snack option with more food items,pressspace,correct,indicate,morefood,,,,,,,,,,,,,,,,,,,,click #Q4_i1,false,,,,,,,,,824853,824840,807190.32,807184,807206.98,824881.44,,,,
Q4_correct,html.Screen,2_4_2_4_5,2021-05-24T16:25:06.573Z,,,,,,,,,,,,,,,,,,,,,,,,,,,,,,,,,,,,,,,,,,,,,,,,,,,,,,,,,,,,,,,,,,,,,,,,,,,,,,,,,,,,,,,,,,,,,,,,,,,,,,,,,,,,,,,,,,,,1879.5600000000559,,response,,,,,,,,,,,,,,,,,,,,,,,,,,,,,,,,,,,,,,,,,,,,,,,,,,,,,,,,,,,,,,,,,,,,,,,,,,,,,keypress,false,,,,,,,,,826782,826761,824864.78,824854,824881.44,826799.64,,,,
Q5,html.Screen,2_4_2_4_6,2021-05-24T16:25:11.781Z,,,,,,,,,,,,,,,,,,,,,,,,,,,,,,,,,,,,,,,,,,,,,,,,,,,,,,,,,,,,,,,,,,,,,,,,,,,,,,,,,,,,,,,,,,,,,,,,,,,,,,,,,,,,,,,,,,,,5165.359999999986,,response,,,,,,,,,,,,,,,,,,,,,,,,,,,,,,,,,,,,,,,,,,,,,,,,,,,,,,,,,,Q5_i2,Q5_i4,Q5_i3,Q5_i1,There are more pieces of chocolate in snack Option 2,Snack Option 1 has been chosen,There are more slices of kiwi in snack Option 1,Snack Option 2 has been chosen,morechoc2,chose1,morekiwi1,correct,,,,,,,,click #Q5_i1,false,,,,,,,,,831989,831965,826782.96,826783,826799.64,832017.92,,,,
Q5_correct,html.Screen,2_4_2_4_7,2021-05-24T16:25:12.759Z,,,,,,,,,,,,,,,,,,,,,,,,,,,,,,,,,,,,,,,,,,,,,,,,,,,,,,,,,,,,,,,,,,,,,,,,,,,,,,,,,,,,,,,,,,,,,,,,,,,,,,,,,,,,,,,,,,,,931.0799999999581,,response,,,,,,,,,,,,,,,,,,,,,,,,,,,,,,,,,,,,,,,,,,,,,,,,,,,,,,,,,,,,,,,,,,,,,,,,,,,,,keypress,false,,,,,,,,,832968,832949,832001.26,831990,832017.92,832986.14,,,,
practice_sequence,flow.Sequence,2_4_2_4,2021-05-24T16:25:12.759Z,,,,,,,,,,,,,,,,,,,,,,,,,,,,,,,,,,,,,,,,,,,,,,,,,,,,,,,,,,,,,,,,,,,,,,,,,,,,,,,,,,,,,,,,,,,,,,,,,,,,,,,,,,,,,,,,,,,,49084.69999999995,,completion,,,,,,,,,,,,,,,,,,,,,,,,,,,,,,,,,,,,,,,,,,,,,,,,,,,,,,,,,,,,,,,,,,,,,,,,,,,,,,false,,,,,,,,,832968,832949,783847.64,783846,783864.3,832986.14,,,,
final_instru,html.Screen,2_4_2_5,2021-05-24T16:26:22.047Z,,,,,,,,,,,,,,,,,,,,,,,,,,,,,,,,,,,,,,,,,,,,,,,,,,,,,,,,,,,,,,,,,,,,,,,,,,,,,,,,,,,,,,,,,,,,,,,,,,,,,,,,,,,,,,,,,,,,69268.85999999999,,done,,,,,,,,,,,,,,,,,,,,,,,,,,,,,,,,,,,,,,,,,,,,,,,,,,,,,,,,,,,,,,,,,,,,,,,,,,,,,,false,,,,,,,,,902256,902255,832969.48,832968,832986.14,902283.08,,,,
blank_screen,canvas.Screen,2_4_2_6_0,2021-05-24T16:26:24.061Z,,,,,,,,,,,,,,,,,,,,,,,,,,,,,,,,,,,,,,,,,,,,,,,,,,,,,,,,,,,,,,,,,,,,,,,,,,,,,,,,,,,,,,,,,,,,,,,,,,,,,,,,,,,,,,,,,,,,2068.359999999986,,timeout,,,,,,,,,,,,,,,,,,,,,,,,,,,,,,,,,,,,,,,,,,,,,,,,,,,,,,,,,,,,,,,,,,,,,,,,,,,,,,false,,,,,,,,,904270,904268.1,902266.4,902256,902283.08,904351.44,,,,
fixCross,canvas.Screen,2_4_2_6_1_0_0_0_0_0_0,2021-05-24T16:26:24.378Z,,,blank.png,blank.png,blank.png,blank.png,blank.png,blank.png,blank.png,"[""maltesers.png""]",blank.png,blank.png,blank.png,blank.png,blank.png,,,,,,,,,,,,,,,,,,,,,,,,,,,,,"[""maltesers.png""]","[""cherry.png""]",PB18.png,,,,,,,,,,,0,6,"[""cherry.png""]","[""cherry.png""]","[""cherry.png""]","[""cherry.png""]","[""cherry.png""]","[""cherry.png""]",blank.png,PB18.png,PB01.png,"[""cherry.png""]","[""cherry.png""]","[""cherry.png""]","[""cherry.png""]","[""cherry.png""]","[""cherry.png""]",blank.png,blank.png,blank.png,blank.png,blank.png,blank.png,1,"[""maltesers.png""]",blank.png,blank.png,blank.png,0,blank.png,blank.png,blank.png,blank.png,blank.png,blank.png,PB01.png,,,,,,,,,,,1,,,,,,,,,,,,,633.3400000000838,,timeout,,,,,,,,,,,,,4,,,,,,,,,,,,,,,,,,,,,,,,,,,,,,,,,,,,,,,,,,,,,,,,,,,,,,,,,"[""cherry.png""]","[""maltesers.png""]",,,,2,,,false,,1,,,,,,,904586,904584.78,904268.1,904353,904351.44,904984.78,1,,,
timeout,canvas.Screen,2_4_2_6_1_0_0_0_0_0_1,2021-05-24T16:26:25.261Z,,,blank.png,blank.png,blank.png,blank.png,blank.png,blank.png,blank.png,"[""maltesers.png""]",blank.png,blank.png,blank.png,blank.png,blank.png,,,,,,,,,,,,,,,,,,,,,,,,,,,,,"[""maltesers.png""]","[""cherry.png""]",PB18.png,,,,,,,,,,,0,6,"[""cherry.png""]","[""cherry.png""]","[""cherry.png""]","[""cherry.png""]","[""cherry.png""]","[""cherry.png""]",blank.png,PB18.png,PB01.png,"[""cherry.png""]","[""cherry.png""]","[""cherry.png""]","[""cherry.png""]","[""cherry.png""]","[""cherry.png""]",blank.png,blank.png,blank.png,blank.png,blank.png,blank.png,1,"[""maltesers.png""]",blank.png,blank.png,blank.png,0,blank.png,blank.png,blank.png,blank.png,blank.png,blank.png,PB01.png,,,,,,,,,,,1,,,,,,,,,,,,,666.6599999999162,,timeout,,,,,,,,,,,,,4,,,,,,,,,,,,,,,,,,,,,,,,,,,,,,,,,,,,,,,,,,,,,,,,,,,,,,,,,"[""cherry.png""]","[""maltesers.png""]",,,,2,,,false,,1,,,,,,,905470,905468.1,904584.78,904958,904984.78,905651.44,,,,
choice,canvas.Screen,2_4_2_6_1_0_0_0_0_0_2,2021-05-24T16:26:27.547Z,,,blank.png,blank.png,blank.png,blank.png,blank.png,blank.png,blank.png,"[""maltesers.png""]",blank.png,blank.png,blank.png,blank.png,blank.png,,,,,,,,,,,,,,,,,,,,,,,,,,,,,"[""maltesers.png""]","[""cherry.png""]",PB18.png,,,,,,,,,,,0,6,"[""cherry.png""]","[""cherry.png""]","[""cherry.png""]","[""cherry.png""]","[""cherry.png""]","[""cherry.png""]",blank.png,PB18.png,PB01.png,"[""cherry.png""]","[""cherry.png""]","[""cherry.png""]","[""cherry.png""]","[""cherry.png""]","[""cherry.png""]",blank.png,blank.png,blank.png,blank.png,blank.png,blank.png,1,"[""maltesers.png""]",blank.png,blank.png,blank.png,0,blank.png,blank.png,blank.png,blank.png,blank.png,blank.png,PB01.png,,,,,,,,,,,1,,,,,,,,,,,,,2078.560000000056,,response,,,,,,,,,,,,,4,,,,,,,,,,,,,,,,,,,,,,,,,,,,,,,,,,,,,,,,,,,,,,,,,,,,,,,,,"[""cherry.png""]","[""maltesers.png""]",,,,2,left,keydown(ArrowLeft),false,,1,,,,,,,907756,907730,905468.1,905644,905651.44,907819.7,,1,,
square,canvas.Screen,2_4_2_6_1_0_0_0_0_0_3,2021-05-24T16:26:28.596Z,,,blank.png,blank.png,blank.png,blank.png,blank.png,blank.png,blank.png,"[""maltesers.png""]",blank.png,blank.png,blank.png,blank.png,blank.png,,,,,,,,,,,,,,,,,,,,,,,,,,,,,"[""maltesers.png""]","[""cherry.png""]",PB18.png,,,,,,,,,,,0,6,"[""cherry.png""]","[""cherry.png""]","[""cherry.png""]","[""cherry.png""]","[""cherry.png""]","[""cherry.png""]",blank.png,PB18.png,PB01.png,"[""cherry.png""]","[""cherry.png""]","[""cherry.png""]","[""cherry.png""]","[""cherry.png""]","[""cherry.png""]",blank.png,blank.png,blank.png,blank.png,blank.png,blank.png,1,"[""maltesers.png""]",blank.png,blank.png,blank.png,0,blank.png,blank.png,blank.png,blank.png,blank.png,blank.png,PB01.png,,,,,,,,,,,1,,,#33ff3f,#808080,,,,,,,,,1000,,timeout,,,,,,,,,,,,,4,,,,,,,,,,,,,,,,,,,,,,,,,,,,,,,,,,,,,,,,,,,,,,,,,,,,,,,,,"[""cherry.png""]","[""maltesers.png""]",,,,2,,,false,,1,,,,,black,white,908804,908803.04,907803.04,907789,907819.7,908819.7,,,,
ITI_late,canvas.Screen,2_4_2_6_1_0_0_0_0_0_4,2021-05-24T16:26:29.346Z,,,blank.png,blank.png,blank.png,blank.png,blank.png,blank.png,blank.png,"[""maltesers.png""]",blank.png,blank.png,blank.png,blank.png,blank.png,,,,,,,,,,,,,,,,,,,,,,,,,,,,,"[""maltesers.png""]","[""cherry.png""]",PB18.png,,,,,,,,,,,0,6,"[""cherry.png""]","[""cherry.png""]","[""cherry.png""]","[""cherry.png""]","[""cherry.png""]","[""cherry.png""]",blank.png,PB18.png,PB01.png,"[""cherry.png""]","[""cherry.png""]","[""cherry.png""]","[""cherry.png""]","[""cherry.png""]","[""cherry.png""]",blank.png,blank.png,blank.png,blank.png,blank.png,blank.png,1,"[""maltesers.png""]",blank.png,blank.png,blank.png,0,blank.png,blank.png,blank.png,blank.png,blank.png,blank.png,PB01.png,,,,,,,,,,,1,,,,,,,,,,,,,750,,timeout,,,,,,,,,,,,white,4,,,,,,,,,,,,,,,,,,,,,,,,,,,,,,,,,,,,,,,,,,,,,,,,,,,,,,,,,"[""cherry.png""]","[""maltesers.png""]",,,,2,,,false,,1,,,,,,,909554,909553.04,908803.04,908818,908819.7,909569.7,,,,
choice_sequence,flow.Sequence,2_4_2_6_1_0_0_0_0_0,2021-05-24T16:26:29.347Z,,,blank.png,blank.png,blank.png,blank.png,blank.png,blank.png,blank.png,"[""maltesers.png""]",blank.png,blank.png,blank.png,blank.png,blank.png,,,,,,,,,,,,,,,,,,,,,,,,,,,,,"[""maltesers.png""]","[""cherry.png""]",PB18.png,,,,,,,,,,,0,6,"[""cherry.png""]","[""cherry.png""]","[""cherry.png""]","[""cherry.png""]","[""cherry.png""]","[""cherry.png""]",blank.png,PB18.png,PB01.png,"[""cherry.png""]","[""cherry.png""]","[""cherry.png""]","[""cherry.png""]","[""cherry.png""]","[""cherry.png""]",blank.png,blank.png,blank.png,blank.png,blank.png,blank.png,1,"[""maltesers.png""]",blank.png,blank.png,blank.png,0,blank.png,blank.png,blank.png,blank.png,blank.png,blank.png,PB01.png,,,,,,,,,,,1,,,,,,,,,,,,,5201.600000000093,,completion,,,,,,,,,,,,,4,,,,,,,,,,,,,,,,,,,,,,,,,,,,,,,,,,,,,,,,,,,,,,,,,,,,,,,,,"[""cherry.png""]","[""maltesers.png""]",,,,2,,,false,,1,,,,,,,909555,909553.04,904268.1,904347,904351.44,909569.7,,,,
fixCross,canvas.Screen,2_4_2_6_1_0_0_0_0_1_0,2021-05-24T16:26:29.596Z,,,blank.png,"[""maltesers.png""]",blank.png,blank.png,blank.png,blank.png,blank.png,blank.png,blank.png,blank.png,blank.png,blank.png,blank.png,,,,,,,,,,,,,,,,,,,,,,,,,,,,,"[""maltesers.png""]","[""cherry.png""]",PB17.png,,,,,,,,,,,0,6,"[""cherry.png""]","[""cherry.png""]","[""cherry.png""]","[""cherry.png""]","[""cherry.png""]","[""cherry.png""]",blank.png,PB18.png,PB18.png,"[""cherry.png""]","[""cherry.png""]","[""cherry.png""]","[""cherry.png""]","[""cherry.png""]","[""cherry.png""]","[""cherry.png""]","[""cherry.png""]","[""cherry.png""]","[""cherry.png""]","[""cherry.png""]","[""cherry.png""]",1,"[""maltesers.png""]",blank.png,blank.png,blank.png,6,"[""cherry.png""]","[""cherry.png""]","[""cherry.png""]","[""cherry.png""]","[""cherry.png""]","[""cherry.png""]",PB17.png,,,,,,,,,,,1,,,,,,,,,,,,,350,,timeout,,,,,,,,,,,,,3,,,,,,,,,,,,,,,,,,,,,,,,,,,,,,,,,,,,,,,,,,,,,,,,,,,,,,,,,"[""cherry.png""]","[""maltesers.png""]",,,,2,,,false,,1,,,,,,,909805,909803.04,909553.04,909568,909569.7,909919.7,2,,,
timeout,canvas.Screen,2_4_2_6_1_0_0_0_0_1_1,2021-05-24T16:26:30.197Z,,,blank.png,"[""maltesers.png""]",blank.png,blank.png,blank.png,blank.png,blank.png,blank.png,blank.png,blank.png,blank.png,blank.png,blank.png,,,,,,,,,,,,,,,,,,,,,,,,,,,,,"[""maltesers.png""]","[""cherry.png""]",PB17.png,,,,,,,,,,,0,6,"[""cherry.png""]","[""cherry.png""]","[""cherry.png""]","[""cherry.png""]","[""cherry.png""]","[""cherry.png""]",blank.png,PB18.png,PB18.png,"[""cherry.png""]","[""cherry.png""]","[""cherry.png""]","[""cherry.png""]","[""cherry.png""]","[""cherry.png""]","[""cherry.png""]","[""cherry.png""]","[""cherry.png""]","[""cherry.png""]","[""cherry.png""]","[""cherry.png""]",1,"[""maltesers.png""]",blank.png,blank.png,blank.png,6,"[""cherry.png""]","[""cherry.png""]","[""cherry.png""]","[""cherry.png""]","[""cherry.png""]","[""cherry.png""]",PB17.png,,,,,,,,,,,1,,,,,,,,,,,,,500,,timeout,,,,,,,,,,,,,3,,,,,,,,,,,,,,,,,,,,,,,,,,,,,,,,,,,,,,,,,,,,,,,,,,,,,,,,,"[""cherry.png""]","[""maltesers.png""]",,,,2,,,false,,1,,,,,,,910405,910403.04,909803.04,909909,909919.7,910419.7,,,,
choice,canvas.Screen,2_4_2_6_1_0_0_0_0_1_2,2021-05-24T16:26:31.967Z,,,blank.png,"[""maltesers.png""]",blank.png,blank.png,blank.png,blank.png,blank.png,blank.png,blank.png,blank.png,blank.png,blank.png,blank.png,,,,,,,,,,,,,,,,,,,,,,,,,,,,,"[""maltesers.png""]","[""cherry.png""]",PB17.png,,,,,,,,,,,0,6,"[""cherry.png""]","[""cherry.png""]","[""cherry.png""]","[""cherry.png""]","[""cherry.png""]","[""cherry.png""]",blank.png,PB18.png,PB18.png,"[""cherry.png""]","[""cherry.png""]","[""cherry.png""]","[""cherry.png""]","[""cherry.png""]","[""cherry.png""]","[""cherry.png""]","[""cherry.png""]","[""cherry.png""]","[""cherry.png""]","[""cherry.png""]","[""cherry.png""]",1,"[""maltesers.png""]",blank.png,blank.png,blank.png,6,"[""cherry.png""]","[""cherry.png""]","[""cherry.png""]","[""cherry.png""]","[""cherry.png""]","[""cherry.png""]",PB17.png,,,,,,,,,,,1,,,,,,,,,,,,,1732.3000000000466,,response,,,,,,,,,,,,,3,,,,,,,,,,,,,,,,,,,,,,,,,,,,,,,,,,,,,,,,,,,,,,,,,,,,,,,,,"[""cherry.png""]","[""maltesers.png""]",,,,2,left,keydown(ArrowLeft),false,,1,,,,,,,912175,912152,910403.04,910430,910419.7,912221.26,,2,,
square,canvas.Screen,2_4_2_6_1_0_0_0_0_1_3,2021-05-24T16:26:32.999Z,,,blank.png,"[""maltesers.png""]",blank.png,blank.png,blank.png,blank.png,blank.png,blank.png,blank.png,blank.png,blank.png,blank.png,blank.png,,,,,,,,,,,,,,,,,,,,,,,,,,,,,"[""maltesers.png""]","[""cherry.png""]",PB17.png,,,,,,,,,,,0,6,"[""cherry.png""]","[""cherry.png""]","[""cherry.png""]","[""cherry.png""]","[""cherry.png""]","[""cherry.png""]",blank.png,PB18.png,PB18.png,"[""cherry.png""]","[""cherry.png""]","[""cherry.png""]","[""cherry.png""]","[""cherry.png""]","[""cherry.png""]","[""cherry.png""]","[""cherry.png""]","[""cherry.png""]","[""cherry.png""]","[""cherry.png""]","[""cherry.png""]",1,"[""maltesers.png""]",blank.png,blank.png,blank.png,6,"[""cherry.png""]","[""cherry.png""]","[""cherry.png""]","[""cherry.png""]","[""cherry.png""]","[""cherry.png""]",PB17.png,,,,,,,,,,,1,,,#33ff3f,#808080,,,,,,,,,1000,,timeout,,,,,,,,,,,,,3,,,,,,,,,,,,,,,,,,,,,,,,,,,,,,,,,,,,,,,,,,,,,,,,,,,,,,,,,"[""cherry.png""]","[""maltesers.png""]",,,,2,,,false,,1,,,,,black,white,913206,913204.6,912204.6,912198,912221.26,913221.26,,,,
ITI_late,canvas.Screen,2_4_2_6_1_0_0_0_0_1_4,2021-05-24T16:26:33.248Z,,,blank.png,"[""maltesers.png""]",blank.png,blank.png,blank.png,blank.png,blank.png,blank.png,blank.png,blank.png,blank.png,blank.png,blank.png,,,,,,,,,,,,,,,,,,,,,,,,,,,,,"[""maltesers.png""]","[""cherry.png""]",PB17.png,,,,,,,,,,,0,6,"[""cherry.png""]","[""cherry.png""]","[""cherry.png""]","[""cherry.png""]","[""cherry.png""]","[""cherry.png""]",blank.png,PB18.png,PB18.png,"[""cherry.png""]","[""cherry.png""]","[""cherry.png""]","[""cherry.png""]","[""cherry.png""]","[""cherry.png""]","[""cherry.png""]","[""cherry.png""]","[""cherry.png""]","[""cherry.png""]","[""cherry.png""]","[""cherry.png""]",1,"[""maltesers.png""]",blank.png,blank.png,blank.png,6,"[""cherry.png""]","[""cherry.png""]","[""cherry.png""]","[""cherry.png""]","[""cherry.png""]","[""cherry.png""]",PB17.png,,,,,,,,,,,1,,,,,,,,,,,,,250,,timeout,,,,,,,,,,,,white,3,,,,,,,,,,,,,,,,,,,,,,,,,,,,,,,,,,,,,,,,,,,,,,,,,,,,,,,,,"[""cherry.png""]","[""maltesers.png""]",,,,2,,,false,,1,,,,,,,913457,913454.6,913204.6,913211,913221.26,913471.26,,,,
choice_sequence,flow.Sequence,2_4_2_6_1_0_0_0_0_1,2021-05-24T16:26:33.249Z,,,blank.png,"[""maltesers.png""]",blank.png,blank.png,blank.png,blank.png,blank.png,blank.png,blank.png,blank.png,blank.png,blank.png,blank.png,,,,,,,,,,,,,,,,,,,,,,,,,,,,,"[""maltesers.png""]","[""cherry.png""]",PB17.png,,,,,,,,,,,0,6,"[""cherry.png""]","[""cherry.png""]","[""cherry.png""]","[""cherry.png""]","[""cherry.png""]","[""cherry.png""]",blank.png,PB18.png,PB18.png,"[""cherry.png""]","[""cherry.png""]","[""cherry.png""]","[""cherry.png""]","[""cherry.png""]","[""cherry.png""]","[""cherry.png""]","[""cherry.png""]","[""cherry.png""]","[""cherry.png""]","[""cherry.png""]","[""cherry.png""]",1,"[""maltesers.png""]",blank.png,blank.png,blank.png,6,"[""cherry.png""]","[""cherry.png""]","[""cherry.png""]","[""cherry.png""]","[""cherry.png""]","[""cherry.png""]",PB17.png,,,,,,,,,,,1,,,,,,,,,,,,,3884.9000000000233,,completion,,,,,,,,,,,,,3,,,,,,,,,,,,,,,,,,,,,,,,,,,,,,,,,,,,,,,,,,,,,,,,,,,,,,,,,"[""cherry.png""]","[""maltesers.png""]",,,,2,,,false,,1,,,,,,,913458,913454.6,909553.04,909566,909569.7,913471.26,,,,
fixCross,canvas.Screen,2_4_2_6_1_0_0_0_0_2_0,2021-05-24T16:26:33.998Z,,,blank.png,blank.png,blank.png,blank.png,blank.png,blank.png,blank.png,"[""maltesers.png""]",blank.png,blank.png,blank.png,blank.png,blank.png,,,,,,,,,,,,,,,,,,,,,,,,,,,,,"[""maltesers.png""]","[""cherry.png""]",PB18.png,,,,,,,,,,,0,6,"[""cherry.png""]","[""cherry.png""]","[""cherry.png""]","[""cherry.png""]","[""cherry.png""]","[""cherry.png""]",blank.png,PB18.png,PB16.png,"[""cherry.png""]","[""cherry.png""]","[""cherry.png""]","[""cherry.png""]","[""cherry.png""]","[""cherry.png""]","[""cherry.png""]","[""cherry.png""]","[""cherry.png""]","[""cherry.png""]","[""cherry.png""]",blank.png,1,"[""maltesers.png""]",blank.png,blank.png,blank.png,5,"[""cherry.png""]","[""cherry.png""]","[""cherry.png""]","[""cherry.png""]","[""cherry.png""]",blank.png,PB16.png,,,,,,,,,,,1,,,,,,,,,,,,,866.6600000000326,,timeout,,,,,,,,,,,,,4,,,,,,,,,,,,,,,,,,,,,,,,,,,,,,,,,,,,,,,,,,,,,,,,,,,,,,,,,"[""cherry.png""]","[""maltesers.png""]",,,,2,,,false,,1,,,,,,,914206,914204.6,913454.6,913475,913471.26,914337.92,3,,,
timeout,canvas.Screen,2_4_2_6_1_0_0_0_0_2_1,2021-05-24T16:26:34.616Z,,,blank.png,blank.png,blank.png,blank.png,blank.png,blank.png,blank.png,"[""maltesers.png""]",blank.png,blank.png,blank.png,blank.png,blank.png,,,,,,,,,,,,,,,,,,,,,,,,,,,,,"[""maltesers.png""]","[""cherry.png""]",PB18.png,,,,,,,,,,,0,6,"[""cherry.png""]","[""cherry.png""]","[""cherry.png""]","[""cherry.png""]","[""cherry.png""]","[""cherry.png""]",blank.png,PB18.png,PB16.png,"[""cherry.png""]","[""cherry.png""]","[""cherry.png""]","[""cherry.png""]","[""cherry.png""]","[""cherry.png""]","[""cherry.png""]","[""cherry.png""]","[""cherry.png""]","[""cherry.png""]","[""cherry.png""]",blank.png,1,"[""maltesers.png""]",blank.png,blank.png,blank.png,5,"[""cherry.png""]","[""cherry.png""]","[""cherry.png""]","[""cherry.png""]","[""cherry.png""]",blank.png,PB16.png,,,,,,,,,,,1,,,,,,,,,,,,,501.61999999999534,,timeout,,,,,,,,,,,,,4,,,,,,,,,,,,,,,,,,,,,,,,,,,,,,,,,,,,,,,,,,,,,,,,,,,,,,,,,"[""cherry.png""]","[""maltesers.png""]",,,,2,,,false,,1,,,,,,,914824,914822.88,914204.6,914328,914337.92,914839.54,,,,
choice,canvas.Screen,2_4_2_6_1_0_0_0_0_2_2,2021-05-24T16:26:36.135Z,,,blank.png,blank.png,blank.png,blank.png,blank.png,blank.png,blank.png,"[""maltesers.png""]",blank.png,blank.png,blank.png,blank.png,blank.png,,,,,,,,,,,,,,,,,,,,,,,,,,,,,"[""maltesers.png""]","[""cherry.png""]",PB18.png,,,,,,,,,,,0,6,"[""cherry.png""]","[""cherry.png""]","[""cherry.png""]","[""cherry.png""]","[""cherry.png""]","[""cherry.png""]",blank.png,PB18.png,PB16.png,"[""cherry.png""]","[""cherry.png""]","[""cherry.png""]","[""cherry.png""]","[""cherry.png""]","[""cherry.png""]","[""cherry.png""]","[""cherry.png""]","[""cherry.png""]","[""cherry.png""]","[""cherry.png""]",blank.png,1,"[""maltesers.png""]",blank.png,blank.png,blank.png,5,"[""cherry.png""]","[""cherry.png""]","[""cherry.png""]","[""cherry.png""]","[""cherry.png""]",blank.png,PB16.png,,,,,,,,,,,1,,,,,,,,,,,,,1484.4599999999627,,response,,,,,,,,,,,,,4,,,,,,,,,,,,,,,,,,,,,,,,,,,,,,,,,,,,,,,,,,,,,,,,,,,,,,,,,"[""cherry.png""]","[""maltesers.png""]",,,,2,right,keydown(ArrowRight),false,,1,,,,,,,916343,916324,914822.88,914850,914839.54,916389.54,,3,,
square,canvas.Screen,2_4_2_6_1_0_0_0_0_2_3,2021-05-24T16:26:37.166Z,,,blank.png,blank.png,blank.png,blank.png,blank.png,blank.png,blank.png,"[""maltesers.png""]",blank.png,blank.png,blank.png,blank.png,blank.png,,,,,,,,,,,,,,,,,,,,,,,,,,,,,"[""maltesers.png""]","[""cherry.png""]",PB18.png,,,,,,,,,,,0,6,"[""cherry.png""]","[""cherry.png""]","[""cherry.png""]","[""cherry.png""]","[""cherry.png""]","[""cherry.png""]",blank.png,PB18.png,PB16.png,"[""cherry.png""]","[""cherry.png""]","[""cherry.png""]","[""cherry.png""]","[""cherry.png""]","[""cherry.png""]","[""cherry.png""]","[""cherry.png""]","[""cherry.png""]","[""cherry.png""]","[""cherry.png""]",blank.png,1,"[""maltesers.png""]",blank.png,blank.png,blank.png,5,"[""cherry.png""]","[""cherry.png""]","[""cherry.png""]","[""cherry.png""]","[""cherry.png""]",blank.png,PB16.png,,,,,,,,,,,1,,,#808080,#33ff3f,,,,,,,,,1000,,timeout,,,,,,,,,,,,,4,,,,,,,,,,,,,,,,,,,,,,,,,,,,,,,,,,,,,,,,,,,,,,,,,,,,,,,,,"[""cherry.png""]","[""maltesers.png""]",,,,2,,,false,,1,,,,,white,black,917375,917372.88,916372.88,916368,916389.54,917389.54,,,,
ITI_late,canvas.Screen,2_4_2_6_1_0_0_0_0_2_4,2021-05-24T16:26:37.667Z,,,blank.png,blank.png,blank.png,blank.png,blank.png,blank.png,blank.png,"[""maltesers.png""]",blank.png,blank.png,blank.png,blank.png,blank.png,,,,,,,,,,,,,,,,,,,,,,,,,,,,,"[""maltesers.png""]","[""cherry.png""]",PB18.png,,,,,,,,,,,0,6,"[""cherry.png""]","[""cherry.png""]","[""cherry.png""]","[""cherry.png""]","[""cherry.png""]","[""cherry.png""]",blank.png,PB18.png,PB16.png,"[""cherry.png""]","[""cherry.png""]","[""cherry.png""]","[""cherry.png""]","[""cherry.png""]","[""cherry.png""]","[""cherry.png""]","[""cherry.png""]","[""cherry.png""]","[""cherry.png""]","[""cherry.png""]",blank.png,1,"[""maltesers.png""]",blank.png,blank.png,blank.png,5,"[""cherry.png""]","[""cherry.png""]","[""cherry.png""]","[""cherry.png""]","[""cherry.png""]",blank.png,PB16.png,,,,,,,,,,,1,,,,,,,,,,,,,500,,timeout,,,,,,,,,,,,white,4,,,,,,,,,,,,,,,,,,,,,,,,,,,,,,,,,,,,,,,,,,,,,,,,,,,,,,,,,"[""cherry.png""]","[""maltesers.png""]",,,,2,,,false,,1,,,,,,,917875,917872.88,917372.88,917379,917389.54,917889.54,,,,
choice_sequence,flow.Sequence,2_4_2_6_1_0_0_0_0_2,2021-05-24T16:26:37.668Z,,,blank.png,blank.png,blank.png,blank.png,blank.png,blank.png,blank.png,"[""maltesers.png""]",blank.png,blank.png,blank.png,blank.png,blank.png,,,,,,,,,,,,,,,,,,,,,,,,,,,,,"[""maltesers.png""]","[""cherry.png""]",PB18.png,,,,,,,,,,,0,6,"[""cherry.png""]","[""cherry.png""]","[""cherry.png""]","[""cherry.png""]","[""cherry.png""]","[""cherry.png""]",blank.png,PB18.png,PB16.png,"[""cherry.png""]","[""cherry.png""]","[""cherry.png""]","[""cherry.png""]","[""cherry.png""]","[""cherry.png""]","[""cherry.png""]","[""cherry.png""]","[""cherry.png""]","[""cherry.png""]","[""cherry.png""]",blank.png,1,"[""maltesers.png""]",blank.png,blank.png,blank.png,5,"[""cherry.png""]","[""cherry.png""]","[""cherry.png""]","[""cherry.png""]","[""cherry.png""]",blank.png,PB16.png,,,,,,,,,,,1,,,,,,,,,,,,,4401.619999999995,,completion,,,,,,,,,,,,,4,,,,,,,,,,,,,,,,,,,,,,,,,,,,,,,,,,,,,,,,,,,,,,,,,,,,,,,,,"[""cherry.png""]","[""maltesers.png""]",,,,2,,,false,,1,,,,,,,917876,917872.88,913454.6,913470,913471.26,917889.54,,,,
fixCross,canvas.Screen,2_4_2_6_1_0_0_0_0_3_0,2021-05-24T16:26:38.167Z,,,blank.png,"[""maltesers.png""]",blank.png,blank.png,blank.png,blank.png,blank.png,blank.png,blank.png,blank.png,blank.png,blank.png,blank.png,,,,,,,,,,,,,,,,,,,,,,,,,,,,,"[""maltesers.png""]","[""cherry.png""]",PB12.png,,,,,,,,,,,0,6,"[""cherry.png""]","[""cherry.png""]","[""cherry.png""]","[""cherry.png""]","[""cherry.png""]","[""cherry.png""]",blank.png,PB18.png,PB18.png,"[""cherry.png""]","[""cherry.png""]",blank.png,blank.png,blank.png,blank.png,"[""cherry.png""]","[""cherry.png""]","[""cherry.png""]","[""cherry.png""]","[""cherry.png""]","[""cherry.png""]",1,"[""maltesers.png""]",blank.png,blank.png,blank.png,2,"[""cherry.png""]","[""cherry.png""]",blank.png,blank.png,blank.png,blank.png,PB12.png,,,,,,,,,,,1,,,,,,,,,,,,,600,,timeout,,,,,,,,,,,,,3,,,,,,,,,,,,,,,,,,,,,,,,,,,,,,,,,,,,,,,,,,,,,,,,,,,,,,,,,"[""cherry.png""]","[""maltesers.png""]",,,,2,,,false,,1,,,,,,,918376,918372.88,917872.88,917890,917889.54,918489.54,4,,,
timeout,canvas.Screen,2_4_2_6_1_0_0_0_0_3_1,2021-05-24T16:26:38.767Z,,,blank.png,"[""maltesers.png""]",blank.png,blank.png,blank.png,blank.png,blank.png,blank.png,blank.png,blank.png,blank.png,blank.png,blank.png,,,,,,,,,,,,,,,,,,,,,,,,,,,,,"[""maltesers.png""]","[""cherry.png""]",PB12.png,,,,,,,,,,,0,6,"[""cherry.png""]","[""cherry.png""]","[""cherry.png""]","[""cherry.png""]","[""cherry.png""]","[""cherry.png""]",blank.png,PB18.png,PB18.png,"[""cherry.png""]","[""cherry.png""]",blank.png,blank.png,blank.png,blank.png,"[""cherry.png""]","[""cherry.png""]","[""cherry.png""]","[""cherry.png""]","[""cherry.png""]","[""cherry.png""]",1,"[""maltesers.png""]",blank.png,blank.png,blank.png,2,"[""cherry.png""]","[""cherry.png""]",blank.png,blank.png,blank.png,blank.png,PB12.png,,,,,,,,,,,1,,,,,,,,,,,,,501.71999999997206,,timeout,,,,,,,,,,,,,3,,,,,,,,,,,,,,,,,,,,,,,,,,,,,,,,,,,,,,,,,,,,,,,,,,,,,,,,,"[""cherry.png""]","[""maltesers.png""]",,,,2,,,false,,1,,,,,,,918976,918974.6,918372.88,918479,918489.54,918991.26,,,,
choice,canvas.Screen,2_4_2_6_1_0_0_0_0_3_2,2021-05-24T16:26:41.624Z,,,blank.png,"[""maltesers.png""]",blank.png,blank.png,blank.png,blank.png,blank.png,blank.png,blank.png,blank.png,blank.png,blank.png,blank.png,,,,,,,,,,,,,,,,,,,,,,,,,,,,,"[""maltesers.png""]","[""cherry.png""]",PB12.png,,,,,,,,,,,0,6,"[""cherry.png""]","[""cherry.png""]","[""cherry.png""]","[""cherry.png""]","[""cherry.png""]","[""cherry.png""]",blank.png,PB18.png,PB18.png,"[""cherry.png""]","[""cherry.png""]",blank.png,blank.png,blank.png,blank.png,"[""cherry.png""]","[""cherry.png""]","[""cherry.png""]","[""cherry.png""]","[""cherry.png""]","[""cherry.png""]",1,"[""maltesers.png""]",blank.png,blank.png,blank.png,2,"[""cherry.png""]","[""cherry.png""]",blank.png,blank.png,blank.png,blank.png,PB12.png,,,,,,,,,,,1,,,,,,,,,,,,,2816.7399999999907,,response,,,,,,,,,,,,,3,,,,,,,,,,,,,,,,,,,,,,,,,,,,,,,,,,,,,,,,,,,,,,,,,,,,,,,,,"[""cherry.png""]","[""maltesers.png""]",,,,2,right,keydown(ArrowRight),false,,1,,,,,,,921833,921808,918974.6,919004,918991.26,921876.02,,4,,
square,canvas.Screen,2_4_2_6_1_0_0_0_0_3_3,2021-05-24T16:26:42.653Z,,,blank.png,"[""maltesers.png""]",blank.png,blank.png,blank.png,blank.png,blank.png,blank.png,blank.png,blank.png,blank.png,blank.png,blank.png,,,,,,,,,,,,,,,,,,,,,,,,,,,,,"[""maltesers.png""]","[""cherry.png""]",PB12.png,,,,,,,,,,,0,6,"[""cherry.png""]","[""cherry.png""]","[""cherry.png""]","[""cherry.png""]","[""cherry.png""]","[""cherry.png""]",blank.png,PB18.png,PB18.png,"[""cherry.png""]","[""cherry.png""]",blank.png,blank.png,blank.png,blank.png,"[""cherry.png""]","[""cherry.png""]","[""cherry.png""]","[""cherry.png""]","[""cherry.png""]","[""cherry.png""]",1,"[""maltesers.png""]",blank.png,blank.png,blank.png,2,"[""cherry.png""]","[""cherry.png""]",blank.png,blank.png,blank.png,blank.png,PB12.png,,,,,,,,,,,1,,,#808080,#33ff3f,,,,,,,,,1000,,timeout,,,,,,,,,,,,,3,,,,,,,,,,,,,,,,,,,,,,,,,,,,,,,,,,,,,,,,,,,,,,,,,,,,,,,,,"[""cherry.png""]","[""maltesers.png""]",,,,2,,,false,,1,,,,,white,black,922861,922859.34,921859.34,921857,921876.02,922876.02,,,,
ITI_late,canvas.Screen,2_4_2_6_1_0_0_0_0_3_4,2021-05-24T16:26:42.903Z,,,blank.png,"[""maltesers.png""]",blank.png,blank.png,blank.png,blank.png,blank.png,blank.png,blank.png,blank.png,blank.png,blank.png,blank.png,,,,,,,,,,,,,,,,,,,,,,,,,,,,,"[""maltesers.png""]","[""cherry.png""]",PB12.png,,,,,,,,,,,0,6,"[""cherry.png""]","[""cherry.png""]","[""cherry.png""]","[""cherry.png""]","[""cherry.png""]","[""cherry.png""]",blank.png,PB18.png,PB18.png,"[""cherry.png""]","[""cherry.png""]",blank.png,blank.png,blank.png,blank.png,"[""cherry.png""]","[""cherry.png""]","[""cherry.png""]","[""cherry.png""]","[""cherry.png""]","[""cherry.png""]",1,"[""maltesers.png""]",blank.png,blank.png,blank.png,2,"[""cherry.png""]","[""cherry.png""]",blank.png,blank.png,blank.png,blank.png,PB12.png,,,,,,,,,,,1,,,,,,,,,,,,,250,,timeout,,,,,,,,,,,,white,3,,,,,,,,,,,,,,,,,,,,,,,,,,,,,,,,,,,,,,,,,,,,,,,,,,,,,,,,,"[""cherry.png""]","[""maltesers.png""]",,,,2,,,false,,1,,,,,,,923111,923109.34,922859.34,922866,922876.02,923126.02,,,,
choice_sequence,flow.Sequence,2_4_2_6_1_0_0_0_0_3,2021-05-24T16:26:42.903Z,,,blank.png,"[""maltesers.png""]",blank.png,blank.png,blank.png,blank.png,blank.png,blank.png,blank.png,blank.png,blank.png,blank.png,blank.png,,,,,,,,,,,,,,,,,,,,,,,,,,,,,"[""maltesers.png""]","[""cherry.png""]",PB12.png,,,,,,,,,,,0,6,"[""cherry.png""]","[""cherry.png""]","[""cherry.png""]","[""cherry.png""]","[""cherry.png""]","[""cherry.png""]",blank.png,PB18.png,PB18.png,"[""cherry.png""]","[""cherry.png""]",blank.png,blank.png,blank.png,blank.png,"[""cherry.png""]","[""cherry.png""]","[""cherry.png""]","[""cherry.png""]","[""cherry.png""]","[""cherry.png""]",1,"[""maltesers.png""]",blank.png,blank.png,blank.png,2,"[""cherry.png""]","[""cherry.png""]",blank.png,blank.png,blank.png,blank.png,PB12.png,,,,,,,,,,,1,,,,,,,,,,,,,5219.79999999993,,completion,,,,,,,,,,,,,3,,,,,,,,,,,,,,,,,,,,,,,,,,,,,,,,,,,,,,,,,,,,,,,,,,,,,,,,,"[""cherry.png""]","[""maltesers.png""]",,,,2,,,false,,1,,,,,,,923111,923109.34,917872.88,917888,917889.54,923126.02,,,,
fixCross,canvas.Screen,2_4_2_6_1_0_0_0_0_4_0,2021-05-24T16:26:43.253Z,,,blank.png,blank.png,blank.png,blank.png,blank.png,blank.png,blank.png,"[""maltesers.png""]",blank.png,blank.png,blank.png,blank.png,blank.png,,,,,,,,,,,,,,,,,,,,,,,,,,,,,"[""maltesers.png""]","[""cherry.png""]",PB18.png,,,,,,,,,,,0,6,"[""cherry.png""]","[""cherry.png""]","[""cherry.png""]","[""cherry.png""]","[""cherry.png""]","[""cherry.png""]",blank.png,PB18.png,PB14.png,"[""cherry.png""]","[""cherry.png""]","[""cherry.png""]","[""cherry.png""]","[""cherry.png""]","[""cherry.png""]","[""cherry.png""]","[""cherry.png""]","[""cherry.png""]",blank.png,blank.png,blank.png,1,"[""maltesers.png""]",blank.png,blank.png,blank.png,3,"[""cherry.png""]","[""cherry.png""]","[""cherry.png""]",blank.png,blank.png,blank.png,PB14.png,,,,,,,,,,,1,,,,,,,,,,,,,450,,timeout,,,,,,,,,,,,,4,,,,,,,,,,,,,,,,,,,,,,,,,,,,,,,,,,,,,,,,,,,,,,,,,,,,,,,,,"[""cherry.png""]","[""maltesers.png""]",,,,2,,,false,,1,,,,,,,923461,923459.34,923109.34,923124,923126.02,923576.02,5,,,
timeout,canvas.Screen,2_4_2_6_1_0_0_0_0_4_1,2021-05-24T16:26:43.853Z,,,blank.png,blank.png,blank.png,blank.png,blank.png,blank.png,blank.png,"[""maltesers.png""]",blank.png,blank.png,blank.png,blank.png,blank.png,,,,,,,,,,,,,,,,,,,,,,,,,,,,,"[""maltesers.png""]","[""cherry.png""]",PB18.png,,,,,,,,,,,0,6,"[""cherry.png""]","[""cherry.png""]","[""cherry.png""]","[""cherry.png""]","[""cherry.png""]","[""cherry.png""]",blank.png,PB18.png,PB14.png,"[""cherry.png""]","[""cherry.png""]","[""cherry.png""]","[""cherry.png""]","[""cherry.png""]","[""cherry.png""]","[""cherry.png""]","[""cherry.png""]","[""cherry.png""]",blank.png,blank.png,blank.png,1,"[""maltesers.png""]",blank.png,blank.png,blank.png,3,"[""cherry.png""]","[""cherry.png""]","[""cherry.png""]",blank.png,blank.png,blank.png,PB14.png,,,,,,,,,,,1,,,,,,,,,,,,,500,,timeout,,,,,,,,,,,,,4,,,,,,,,,,,,,,,,,,,,,,,,,,,,,,,,,,,,,,,,,,,,,,,,,,,,,,,,,"[""cherry.png""]","[""maltesers.png""]",,,,2,,,false,,1,,,,,,,924062,924059.34,923459.34,923562,923576.02,924076.02,,,,
choice,canvas.Screen,2_4_2_6_1_0_0_0_0_4_2,2021-05-24T16:26:44.788Z,,,blank.png,blank.png,blank.png,blank.png,blank.png,blank.png,blank.png,"[""maltesers.png""]",blank.png,blank.png,blank.png,blank.png,blank.png,,,,,,,,,,,,,,,,,,,,,,,,,,,,,"[""maltesers.png""]","[""cherry.png""]",PB18.png,,,,,,,,,,,0,6,"[""cherry.png""]","[""cherry.png""]","[""cherry.png""]","[""cherry.png""]","[""cherry.png""]","[""cherry.png""]",blank.png,PB18.png,PB14.png,"[""cherry.png""]","[""cherry.png""]","[""cherry.png""]","[""cherry.png""]","[""cherry.png""]","[""cherry.png""]","[""cherry.png""]","[""cherry.png""]","[""cherry.png""]",blank.png,blank.png,blank.png,1,"[""maltesers.png""]",blank.png,blank.png,blank.png,3,"[""cherry.png""]","[""cherry.png""]","[""cherry.png""]",blank.png,blank.png,blank.png,PB14.png,,,,,,,,,,,1,,,,,,,,,,,,,903.9799999999814,,response,,,,,,,,,,,,,4,,,,,,,,,,,,,,,,,,,,,,,,,,,,,,,,,,,,,,,,,,,,,,,,,,,,,,,,,"[""cherry.png""]","[""maltesers.png""]",,,,2,right,keydown(ArrowRight),false,,1,,,,,,,924996,924980,924059.34,924088,924076.02,925042.68,,5,,
square,canvas.Screen,2_4_2_6_1_0_0_0_0_4_3,2021-05-24T16:26:45.820Z,,,blank.png,blank.png,blank.png,blank.png,blank.png,blank.png,blank.png,"[""maltesers.png""]",blank.png,blank.png,blank.png,blank.png,blank.png,,,,,,,,,,,,,,,,,,,,,,,,,,,,,"[""maltesers.png""]","[""cherry.png""]",PB18.png,,,,,,,,,,,0,6,"[""cherry.png""]","[""cherry.png""]","[""cherry.png""]","[""cherry.png""]","[""cherry.png""]","[""cherry.png""]",blank.png,PB18.png,PB14.png,"[""cherry.png""]","[""cherry.png""]","[""cherry.png""]","[""cherry.png""]","[""cherry.png""]","[""cherry.png""]","[""cherry.png""]","[""cherry.png""]","[""cherry.png""]",blank.png,blank.png,blank.png,1,"[""maltesers.png""]",blank.png,blank.png,blank.png,3,"[""cherry.png""]","[""cherry.png""]","[""cherry.png""]",blank.png,blank.png,blank.png,PB14.png,,,,,,,,,,,1,,,#808080,#33ff3f,,,,,,,,,1001.6599999999162,,timeout,,,,,,,,,,,,,4,,,,,,,,,,,,,,,,,,,,,,,,,,,,,,,,,,,,,,,,,,,,,,,,,,,,,,,,,"[""cherry.png""]","[""maltesers.png""]",,,,2,,,false,,1,,,,,white,black,926029,926027.68,925026.02,925023,925042.68,926044.34,,,,
ITI_late,canvas.Screen,2_4_2_6_1_0_0_0_0_4_4,2021-05-24T16:26:46.821Z,,,blank.png,blank.png,blank.png,blank.png,blank.png,blank.png,blank.png,"[""maltesers.png""]",blank.png,blank.png,blank.png,blank.png,blank.png,,,,,,,,,,,,,,,,,,,,,,,,,,,,,"[""maltesers.png""]","[""cherry.png""]",PB18.png,,,,,,,,,,,0,6,"[""cherry.png""]","[""cherry.png""]","[""cherry.png""]","[""cherry.png""]","[""cherry.png""]","[""cherry.png""]",blank.png,PB18.png,PB14.png,"[""cherry.png""]","[""cherry.png""]","[""cherry.png""]","[""cherry.png""]","[""cherry.png""]","[""cherry.png""]","[""cherry.png""]","[""cherry.png""]","[""cherry.png""]",blank.png,blank.png,blank.png,1,"[""maltesers.png""]",blank.png,blank.png,blank.png,3,"[""cherry.png""]","[""cherry.png""]","[""cherry.png""]",blank.png,blank.png,blank.png,PB14.png,,,,,,,,,,,1,,,,,,,,,,,,,1000,,timeout,,,,,,,,,,,,white,4,,,,,,,,,,,,,,,,,,,,,,,,,,,,,,,,,,,,,,,,,,,,,,,,,,,,,,,,,"[""cherry.png""]","[""maltesers.png""]",,,,2,,,false,,1,,,,,,,927029,927027.68,926027.68,926034,926044.34,927044.34,,,,
choice_sequence,flow.Sequence,2_4_2_6_1_0_0_0_0_4,2021-05-24T16:26:46.821Z,,,blank.png,blank.png,blank.png,blank.png,blank.png,blank.png,blank.png,"[""maltesers.png""]",blank.png,blank.png,blank.png,blank.png,blank.png,,,,,,,,,,,,,,,,,,,,,,,,,,,,,"[""maltesers.png""]","[""cherry.png""]",PB18.png,,,,,,,,,,,0,6,"[""cherry.png""]","[""cherry.png""]","[""cherry.png""]","[""cherry.png""]","[""cherry.png""]","[""cherry.png""]",blank.png,PB18.png,PB14.png,"[""cherry.png""]","[""cherry.png""]","[""cherry.png""]","[""cherry.png""]","[""cherry.png""]","[""cherry.png""]","[""cherry.png""]","[""cherry.png""]","[""cherry.png""]",blank.png,blank.png,blank.png,1,"[""maltesers.png""]",blank.png,blank.png,blank.png,3,"[""cherry.png""]","[""cherry.png""]","[""cherry.png""]",blank.png,blank.png,blank.png,PB14.png,,,,,,,,,,,1,,,,,,,,,,,,,3901.6600000000326,,completion,,,,,,,,,,,,,4,,,,,,,,,,,,,,,,,,,,,,,,,,,,,,,,,,,,,,,,,,,,,,,,,,,,,,,,,"[""cherry.png""]","[""maltesers.png""]",,,,2,,,false,,1,,,,,,,927030,927027.68,923109.34,923122,923126.02,927044.34,,,,
fixCross,canvas.Screen,2_4_2_6_1_0_0_0_0_5_0,2021-05-24T16:26:47.572Z,,,blank.png,"[""maltesers.png""]",blank.png,blank.png,blank.png,blank.png,blank.png,blank.png,blank.png,blank.png,blank.png,blank.png,blank.png,,,,,,,,,,,,,,,,,,,,,,,,,,,,,"[""maltesers.png""]","[""cherry.png""]",PB07.png,,,,,,,,,,,0,6,"[""cherry.png""]","[""cherry.png""]","[""cherry.png""]","[""cherry.png""]","[""cherry.png""]","[""cherry.png""]",blank.png,PB18.png,PB18.png,"[""cherry.png""]",blank.png,blank.png,blank.png,blank.png,blank.png,"[""cherry.png""]","[""cherry.png""]","[""cherry.png""]","[""cherry.png""]","[""cherry.png""]","[""cherry.png""]",1,"[""maltesers.png""]",blank.png,blank.png,blank.png,1,"[""cherry.png""]",blank.png,blank.png,blank.png,blank.png,blank.png,PB07.png,,,,,,,,,,,1,,,,,,,,,,,,,833.3400000000838,,timeout,,,,,,,,,,,,,3,,,,,,,,,,,,,,,,,,,,,,,,,,,,,,,,,,,,,,,,,,,,,,,,,,,,,,,,,"[""cherry.png""]","[""maltesers.png""]",,,,2,,,false,,1,,,,,,,927780,927777.68,927027.68,927043,927044.34,927877.68,6,,,
timeout,canvas.Screen,2_4_2_6_1_0_0_0_0_5_1,2021-05-24T16:26:48.155Z,,,blank.png,"[""maltesers.png""]",blank.png,blank.png,blank.png,blank.png,blank.png,blank.png,blank.png,blank.png,blank.png,blank.png,blank.png,,,,,,,,,,,,,,,,,,,,,,,,,,,,,"[""maltesers.png""]","[""cherry.png""]",PB07.png,,,,,,,,,,,0,6,"[""cherry.png""]","[""cherry.png""]","[""cherry.png""]","[""cherry.png""]","[""cherry.png""]","[""cherry.png""]",blank.png,PB18.png,PB18.png,"[""cherry.png""]",blank.png,blank.png,blank.png,blank.png,blank.png,"[""cherry.png""]","[""cherry.png""]","[""cherry.png""]","[""cherry.png""]","[""cherry.png""]","[""cherry.png""]",1,"[""maltesers.png""]",blank.png,blank.png,blank.png,1,"[""cherry.png""]",blank.png,blank.png,blank.png,blank.png,blank.png,PB07.png,,,,,,,,,,,1,,,,,,,,,,,,,500,,timeout,,,,,,,,,,,,,3,,,,,,,,,,,,,,,,,,,,,,,,,,,,,,,,,,,,,,,,,,,,,,,,,,,,,,,,,"[""cherry.png""]","[""maltesers.png""]",,,,2,,,false,,1,,,,,,,928363,928361.02,927777.68,927877,927877.68,928377.68,,,,
choice,canvas.Screen,2_4_2_6_1_0_0_0_0_5_2,2021-05-24T16:26:49.384Z,,,blank.png,"[""maltesers.png""]",blank.png,blank.png,blank.png,blank.png,blank.png,blank.png,blank.png,blank.png,blank.png,blank.png,blank.png,,,,,,,,,,,,,,,,,,,,,,,,,,,,,"[""maltesers.png""]","[""cherry.png""]",PB07.png,,,,,,,,,,,0,6,"[""cherry.png""]","[""cherry.png""]","[""cherry.png""]","[""cherry.png""]","[""cherry.png""]","[""cherry.png""]",blank.png,PB18.png,PB18.png,"[""cherry.png""]",blank.png,blank.png,blank.png,blank.png,blank.png,"[""cherry.png""]","[""cherry.png""]","[""cherry.png""]","[""cherry.png""]","[""cherry.png""]","[""cherry.png""]",1,"[""maltesers.png""]",blank.png,blank.png,blank.png,1,"[""cherry.png""]",blank.png,blank.png,blank.png,blank.png,blank.png,PB07.png,,,,,,,,,,,1,,,,,,,,,,,,,1196.3199999999488,,response,,,,,,,,,,,,,3,,,,,,,,,,,,,,,,,,,,,,,,,,,,,,,,,,,,,,,,,,,,,,,,,,,,,,,,,"[""cherry.png""]","[""maltesers.png""]",,,,2,right,keydown(ArrowRight),false,,1,,,,,,,929592,929574,928361.02,928386,928377.68,929645.92,,6,,
square,canvas.Screen,2_4_2_6_1_0_0_0_0_5_3,2021-05-24T16:26:50.422Z,,,blank.png,"[""maltesers.png""]",blank.png,blank.png,blank.png,blank.png,blank.png,blank.png,blank.png,blank.png,blank.png,blank.png,blank.png,,,,,,,,,,,,,,,,,,,,,,,,,,,,,"[""maltesers.png""]","[""cherry.png""]",PB07.png,,,,,,,,,,,0,6,"[""cherry.png""]","[""cherry.png""]","[""cherry.png""]","[""cherry.png""]","[""cherry.png""]","[""cherry.png""]",blank.png,PB18.png,PB18.png,"[""cherry.png""]",blank.png,blank.png,blank.png,blank.png,blank.png,"[""cherry.png""]","[""cherry.png""]","[""cherry.png""]","[""cherry.png""]","[""cherry.png""]","[""cherry.png""]",1,"[""maltesers.png""]",blank.png,blank.png,blank.png,1,"[""cherry.png""]",blank.png,blank.png,blank.png,blank.png,blank.png,PB07.png,,,,,,,,,,,1,,,#808080,#33ff3f,,,,,,,,,1000,,timeout,,,,,,,,,,,,,3,,,,,,,,,,,,,,,,,,,,,,,,,,,,,,,,,,,,,,,,,,,,,,,,,,,,,,,,,"[""cherry.png""]","[""maltesers.png""]",,,,2,,,false,,1,,,,,white,black,930631,930629.24,929629.24,929615,929645.92,930645.92,,,,
ITI_late,canvas.Screen,2_4_2_6_1_0_0_0_0_5_4,2021-05-24T16:26:51.423Z,,,blank.png,"[""maltesers.png""]",blank.png,blank.png,blank.png,blank.png,blank.png,blank.png,blank.png,blank.png,blank.png,blank.png,blank.png,,,,,,,,,,,,,,,,,,,,,,,,,,,,,"[""maltesers.png""]","[""cherry.png""]",PB07.png,,,,,,,,,,,0,6,"[""cherry.png""]","[""cherry.png""]","[""cherry.png""]","[""cherry.png""]","[""cherry.png""]","[""cherry.png""]",blank.png,PB18.png,PB18.png,"[""cherry.png""]",blank.png,blank.png,blank.png,blank.png,blank.png,"[""cherry.png""]","[""cherry.png""]","[""cherry.png""]","[""cherry.png""]","[""cherry.png""]","[""cherry.png""]",1,"[""maltesers.png""]",blank.png,blank.png,blank.png,1,"[""cherry.png""]",blank.png,blank.png,blank.png,blank.png,blank.png,PB07.png,,,,,,,,,,,1,,,,,,,,,,,,,1000,,timeout,,,,,,,,,,,,white,3,,,,,,,,,,,,,,,,,,,,,,,,,,,,,,,,,,,,,,,,,,,,,,,,,,,,,,,,,"[""cherry.png""]","[""maltesers.png""]",,,,2,,,false,,1,,,,,,,931632,931629.24,930629.24,930636,930645.92,931645.92,,,,
choice_sequence,flow.Sequence,2_4_2_6_1_0_0_0_0_5,2021-05-24T16:26:51.424Z,,,blank.png,"[""maltesers.png""]",blank.png,blank.png,blank.png,blank.png,blank.png,blank.png,blank.png,blank.png,blank.png,blank.png,blank.png,,,,,,,,,,,,,,,,,,,,,,,,,,,,,"[""maltesers.png""]","[""cherry.png""]",PB07.png,,,,,,,,,,,0,6,"[""cherry.png""]","[""cherry.png""]","[""cherry.png""]","[""cherry.png""]","[""cherry.png""]","[""cherry.png""]",blank.png,PB18.png,PB18.png,"[""cherry.png""]",blank.png,blank.png,blank.png,blank.png,blank.png,"[""cherry.png""]","[""cherry.png""]","[""cherry.png""]","[""cherry.png""]","[""cherry.png""]","[""cherry.png""]",1,"[""maltesers.png""]",blank.png,blank.png,blank.png,1,"[""cherry.png""]",blank.png,blank.png,blank.png,blank.png,blank.png,PB07.png,,,,,,,,,,,1,,,,,,,,,,,,,4584.900000000023,,completion,,,,,,,,,,,,,3,,,,,,,,,,,,,,,,,,,,,,,,,,,,,,,,,,,,,,,,,,,,,,,,,,,,,,,,,"[""cherry.png""]","[""maltesers.png""]",,,,2,,,false,,1,,,,,,,931633,931629.24,927027.68,927040,927044.34,931645.92,,,,
fixCross,canvas.Screen,2_4_2_6_1_0_0_0_0_6_0,2021-05-24T16:26:52.074Z,,,blank.png,"[""maltesers.png""]",blank.png,blank.png,blank.png,blank.png,blank.png,blank.png,blank.png,blank.png,blank.png,blank.png,blank.png,,,,,,,,,,,,,,,,,,,,,,,,,,,,,"[""maltesers.png""]","[""cherry.png""]",PB15.png,,,,,,,,,,,0,6,"[""cherry.png""]","[""cherry.png""]","[""cherry.png""]","[""cherry.png""]","[""cherry.png""]","[""cherry.png""]",blank.png,PB18.png,PB18.png,"[""cherry.png""]","[""cherry.png""]","[""cherry.png""]","[""cherry.png""]",blank.png,blank.png,"[""cherry.png""]","[""cherry.png""]","[""cherry.png""]","[""cherry.png""]","[""cherry.png""]","[""cherry.png""]",1,"[""maltesers.png""]",blank.png,blank.png,blank.png,4,"[""cherry.png""]","[""cherry.png""]","[""cherry.png""]","[""cherry.png""]",blank.png,blank.png,PB15.png,,,,,,,,,,,1,,,,,,,,,,,,,750,,timeout,,,,,,,,,,,,,3,,,,,,,,,,,,,,,,,,,,,,,,,,,,,,,,,,,,,,,,,,,,,,,,,,,,,,,,,"[""cherry.png""]","[""maltesers.png""]",,,,2,,,false,,1,,,,,,,932282,932279.24,931629.24,931646,931645.92,932395.92,7,,,
timeout,canvas.Screen,2_4_2_6_1_0_0_0_0_6_1,2021-05-24T16:26:52.674Z,,,blank.png,"[""maltesers.png""]",blank.png,blank.png,blank.png,blank.png,blank.png,blank.png,blank.png,blank.png,blank.png,blank.png,blank.png,,,,,,,,,,,,,,,,,,,,,,,,,,,,,"[""maltesers.png""]","[""cherry.png""]",PB15.png,,,,,,,,,,,0,6,"[""cherry.png""]","[""cherry.png""]","[""cherry.png""]","[""cherry.png""]","[""cherry.png""]","[""cherry.png""]",blank.png,PB18.png,PB18.png,"[""cherry.png""]","[""cherry.png""]","[""cherry.png""]","[""cherry.png""]",blank.png,blank.png,"[""cherry.png""]","[""cherry.png""]","[""cherry.png""]","[""cherry.png""]","[""cherry.png""]","[""cherry.png""]",1,"[""maltesers.png""]",blank.png,blank.png,blank.png,4,"[""cherry.png""]","[""cherry.png""]","[""cherry.png""]","[""cherry.png""]",blank.png,blank.png,PB15.png,,,,,,,,,,,1,,,,,,,,,,,,,501.5199999999022,,timeout,,,,,,,,,,,,,3,,,,,,,,,,,,,,,,,,,,,,,,,,,,,,,,,,,,,,,,,,,,,,,,,,,,,,,,,"[""cherry.png""]","[""maltesers.png""]",,,,2,,,false,,1,,,,,,,932882,932880.76,932279.24,932393,932395.92,932897.44,,,,
choice,canvas.Screen,2_4_2_6_1_0_0_0_0_6_2,2021-05-24T16:26:53.835Z,,,blank.png,"[""maltesers.png""]",blank.png,blank.png,blank.png,blank.png,blank.png,blank.png,blank.png,blank.png,blank.png,blank.png,blank.png,,,,,,,,,,,,,,,,,,,,,,,,,,,,,"[""maltesers.png""]","[""cherry.png""]",PB15.png,,,,,,,,,,,0,6,"[""cherry.png""]","[""cherry.png""]","[""cherry.png""]","[""cherry.png""]","[""cherry.png""]","[""cherry.png""]",blank.png,PB18.png,PB18.png,"[""cherry.png""]","[""cherry.png""]","[""cherry.png""]","[""cherry.png""]",blank.png,blank.png,"[""cherry.png""]","[""cherry.png""]","[""cherry.png""]","[""cherry.png""]","[""cherry.png""]","[""cherry.png""]",1,"[""maltesers.png""]",blank.png,blank.png,blank.png,4,"[""cherry.png""]","[""cherry.png""]","[""cherry.png""]","[""cherry.png""]",blank.png,blank.png,PB15.png,,,,,,,,,,,1,,,,,,,,,,,,,1129.5600000000559,,response,,,,,,,,,,,,,3,,,,,,,,,,,,,,,,,,,,,,,,,,,,,,,,,,,,,,,,,,,,,,,,,,,,,,,,,"[""cherry.png""]","[""maltesers.png""]",,,,2,left,keydown(ArrowLeft),false,,1,,,,,,,934043,934027,932880.76,932908,932897.44,934097.44,,7,,
square,canvas.Screen,2_4_2_6_1_0_0_0_0_6_3,2021-05-24T16:26:54.875Z,,,blank.png,"[""maltesers.png""]",blank.png,blank.png,blank.png,blank.png,blank.png,blank.png,blank.png,blank.png,blank.png,blank.png,blank.png,,,,,,,,,,,,,,,,,,,,,,,,,,,,,"[""maltesers.png""]","[""cherry.png""]",PB15.png,,,,,,,,,,,0,6,"[""cherry.png""]","[""cherry.png""]","[""cherry.png""]","[""cherry.png""]","[""cherry.png""]","[""cherry.png""]",blank.png,PB18.png,PB18.png,"[""cherry.png""]","[""cherry.png""]","[""cherry.png""]","[""cherry.png""]",blank.png,blank.png,"[""cherry.png""]","[""cherry.png""]","[""cherry.png""]","[""cherry.png""]","[""cherry.png""]","[""cherry.png""]",1,"[""maltesers.png""]",blank.png,blank.png,blank.png,4,"[""cherry.png""]","[""cherry.png""]","[""cherry.png""]","[""cherry.png""]",blank.png,blank.png,PB15.png,,,,,,,,,,,1,,,#33ff3f,#808080,,,,,,,,,1000,,timeout,,,,,,,,,,,,,3,,,,,,,,,,,,,,,,,,,,,,,,,,,,,,,,,,,,,,,,,,,,,,,,,,,,,,,,,"[""cherry.png""]","[""maltesers.png""]",,,,2,,,false,,1,,,,,black,white,935083,935080.76,934080.76,934066,934097.44,935097.44,,,,
ITI_late,canvas.Screen,2_4_2_6_1_0_0_0_0_6_4,2021-05-24T16:26:55.876Z,,,blank.png,"[""maltesers.png""]",blank.png,blank.png,blank.png,blank.png,blank.png,blank.png,blank.png,blank.png,blank.png,blank.png,blank.png,,,,,,,,,,,,,,,,,,,,,,,,,,,,,"[""maltesers.png""]","[""cherry.png""]",PB15.png,,,,,,,,,,,0,6,"[""cherry.png""]","[""cherry.png""]","[""cherry.png""]","[""cherry.png""]","[""cherry.png""]","[""cherry.png""]",blank.png,PB18.png,PB18.png,"[""cherry.png""]","[""cherry.png""]","[""cherry.png""]","[""cherry.png""]",blank.png,blank.png,"[""cherry.png""]","[""cherry.png""]","[""cherry.png""]","[""cherry.png""]","[""cherry.png""]","[""cherry.png""]",1,"[""maltesers.png""]",blank.png,blank.png,blank.png,4,"[""cherry.png""]","[""cherry.png""]","[""cherry.png""]","[""cherry.png""]",blank.png,blank.png,PB15.png,,,,,,,,,,,1,,,,,,,,,,,,,1034.8600000001024,,timeout,,,,,,,,,,,,white,3,,,,,,,,,,,,,,,,,,,,,,,,,,,,,,,,,,,,,,,,,,,,,,,,,,,,,,,,,"[""cherry.png""]","[""maltesers.png""]",,,,2,,,false,,1,,,,,,,936084,936082.3,935080.76,935088,935097.44,936132.3,,,,
choice_sequence,flow.Sequence,2_4_2_6_1_0_0_0_0_6,2021-05-24T16:26:55.877Z,,,blank.png,"[""maltesers.png""]",blank.png,blank.png,blank.png,blank.png,blank.png,blank.png,blank.png,blank.png,blank.png,blank.png,blank.png,,,,,,,,,,,,,,,,,,,,,,,,,,,,,"[""maltesers.png""]","[""cherry.png""]",PB15.png,,,,,,,,,,,0,6,"[""cherry.png""]","[""cherry.png""]","[""cherry.png""]","[""cherry.png""]","[""cherry.png""]","[""cherry.png""]",blank.png,PB18.png,PB18.png,"[""cherry.png""]","[""cherry.png""]","[""cherry.png""]","[""cherry.png""]",blank.png,blank.png,"[""cherry.png""]","[""cherry.png""]","[""cherry.png""]","[""cherry.png""]","[""cherry.png""]","[""cherry.png""]",1,"[""maltesers.png""]",blank.png,blank.png,blank.png,4,"[""cherry.png""]","[""cherry.png""]","[""cherry.png""]","[""cherry.png""]",blank.png,blank.png,PB15.png,,,,,,,,,,,1,,,,,,,,,,,,,4436.380000000005,,completion,,,,,,,,,,,,,3,,,,,,,,,,,,,,,,,,,,,,,,,,,,,,,,,,,,,,,,,,,,,,,,,,,,,,,,,"[""cherry.png""]","[""maltesers.png""]",,,,2,,,false,,1,,,,,,,936085,936082.3,931629.24,931644,931645.92,936132.3,,,,
choice_loop,flow.Loop,2_4_2_6_1_0_0_0_0,2021-05-24T16:26:55.878Z,,,,,,,,,,,,,,,,,,,,,,,,,,,,,,,,,,,,,,,,,,,,"[""maltesers.png""]","[""cherry.png""]",,,,,,,,,,,,,,,,,,,,,,,,,,,,,,,,,,,,,,,,,,,,,,,,,,,,,,,,,,,,,,,,,,,,,,,31730.860000000102,,completion,,,,,,,,,,,,,,,,,,,,,,,,,,,,,,,,,,,,,,,,,,,,,,,,,,,,,,,,,,,,,,,,,,,,,,"[""cherry.png""]","[""maltesers.png""]",,,,2,,,false,,,,,,,,,936086,936082.3,904268.1,904332,904351.44,936132.3,,,,
choice_frame,html.Frame,2_4_2_6_1_0_0_0,2021-05-24T16:26:55.879Z,,,,,,,,,,,,,,,,,,,,,,,,,,,,,,,,,,,,,,,,,,,,,,,,,,,,,,,,,,,,,,,,,,,,,,,,,,,,,,,,,,,,,,,,,,,,,,,,,,,,,,,,,,,,,,,,,,,,31735.560000000056,,,,,,,,,,,,,,,,,,,,,,,,,,,,,,,,,,,,,,,,,,,,,,,,,,,,,,,,,,,,,,,,,,,,,,,,,,,,,2,,,false,,,,,,,,,936087,936087,904268.1,904270,904351.44,936148.98,,,,
sublock_1,flow.Sequence,2_4_2_6_1_0_0,2021-05-24T16:26:55.879Z,,,,,,,,,,,,,,,,,,,,,,,,,,,,,,,,,,,,,,,,,,,,,,,,,,,,,,,,,,,,,,,,,,,,,,,,,,,,,,,,,,,,,,,,,,,,,,,,,,,,,,,,,,,,,,,,,,,,31735.560000000056,,completion,,,,,,,,,,,,,,,,,,,,,,,,,,,,,,,,,,,,,,,,,,,,,,,,,,,,,,,,,,,,,,,,,,,,,,,,,,,2,,,false,,,,,,,,,936088,936087,904268.1,904270,904351.44,936148.98,,,,
fixCross,canvas.Screen,2_4_2_6_1_0_1_0_0_0_0,2021-05-24T16:26:56.425Z,,,blank.png,"[""maltesers.png""]",blank.png,blank.png,blank.png,blank.png,blank.png,blank.png,blank.png,blank.png,blank.png,blank.png,blank.png,,,,,,,,,,,,,,,,,,,,,,,,,,,,,"[""maltesers.png""]","[""cherry.png""]",PB01.png,,,,,,,,,,,0,6,"[""cherry.png""]","[""cherry.png""]","[""cherry.png""]","[""cherry.png""]","[""cherry.png""]","[""cherry.png""]",blank.png,PB18.png,PB18.png,blank.png,blank.png,blank.png,blank.png,blank.png,blank.png,"[""cherry.png""]","[""cherry.png""]","[""cherry.png""]","[""cherry.png""]","[""cherry.png""]","[""cherry.png""]",1,"[""maltesers.png""]",blank.png,blank.png,blank.png,0,blank.png,blank.png,blank.png,blank.png,blank.png,blank.png,PB01.png,,,,,,,,,,,1,,,,,,,,,,,,,500,,timeout,,,,,,,,,,,,,3,,,,,,,,,,,,,,,,,,,,,,,,,,,,,,,,,,,,,,,,,,,,,,,,,,,,,,,,,"[""cherry.png""]","[""maltesers.png""]",,,,3,,,false,,1,,,,,,,936633,936632.3,936132.3,936131,936148.98,936648.98,8,,,
timeout,canvas.Screen,2_4_2_6_1_0_1_0_0_0_1,2021-05-24T16:26:56.925Z,,,blank.png,"[""maltesers.png""]",blank.png,blank.png,blank.png,blank.png,blank.png,blank.png,blank.png,blank.png,blank.png,blank.png,blank.png,,,,,,,,,,,,,,,,,,,,,,,,,,,,,"[""maltesers.png""]","[""cherry.png""]",PB01.png,,,,,,,,,,,0,6,"[""cherry.png""]","[""cherry.png""]","[""cherry.png""]","[""cherry.png""]","[""cherry.png""]","[""cherry.png""]",blank.png,PB18.png,PB18.png,blank.png,blank.png,blank.png,blank.png,blank.png,blank.png,"[""cherry.png""]","[""cherry.png""]","[""cherry.png""]","[""cherry.png""]","[""cherry.png""]","[""cherry.png""]",1,"[""maltesers.png""]",blank.png,blank.png,blank.png,0,blank.png,blank.png,blank.png,blank.png,blank.png,blank.png,PB01.png,,,,,,,,,,,1,,,,,,,,,,,,,500,,timeout,,,,,,,,,,,,,3,,,,,,,,,,,,,,,,,,,,,,,,,,,,,,,,,,,,,,,,,,,,,,,,,,,,,,,,,"[""cherry.png""]","[""maltesers.png""]",,,,3,,,false,,1,,,,,,,937134,937132.3,936632.3,936658,936648.98,937148.98,,,,
choice,canvas.Screen,2_4_2_6_1_0_1_0_0_0_2,2021-05-24T16:26:58.853Z,,,blank.png,"[""maltesers.png""]",blank.png,blank.png,blank.png,blank.png,blank.png,blank.png,blank.png,blank.png,blank.png,blank.png,blank.png,,,,,,,,,,,,,,,,,,,,,,,,,,,,,"[""maltesers.png""]","[""cherry.png""]",PB01.png,,,,,,,,,,,0,6,"[""cherry.png""]","[""cherry.png""]","[""cherry.png""]","[""cherry.png""]","[""cherry.png""]","[""cherry.png""]",blank.png,PB18.png,PB18.png,blank.png,blank.png,blank.png,blank.png,blank.png,blank.png,"[""cherry.png""]","[""cherry.png""]","[""cherry.png""]","[""cherry.png""]","[""cherry.png""]","[""cherry.png""]",1,"[""maltesers.png""]",blank.png,blank.png,blank.png,0,blank.png,blank.png,blank.png,blank.png,blank.png,blank.png,PB01.png,,,,,,,,,,,1,,,,,,,,,,,,,1894.0200000000186,,response,,,,,,,,,,,,,3,,,,,,,,,,,,,,,,,,,,,,,,,,,,,,,,,,,,,,,,,,,,,,,,,,,,,,,,,"[""cherry.png""]","[""maltesers.png""]",,,,3,right,keydown(ArrowRight),false,,1,,,,,,,939061,939043,937132.3,937163,937148.98,939115.64,,8,,
square,canvas.Screen,2_4_2_6_1_0_1_0_0_0_3,2021-05-24T16:26:59.894Z,,,blank.png,"[""maltesers.png""]",blank.png,blank.png,blank.png,blank.png,blank.png,blank.png,blank.png,blank.png,blank.png,blank.png,blank.png,,,,,,,,,,,,,,,,,,,,,,,,,,,,,"[""maltesers.png""]","[""cherry.png""]",PB01.png,,,,,,,,,,,0,6,"[""cherry.png""]","[""cherry.png""]","[""cherry.png""]","[""cherry.png""]","[""cherry.png""]","[""cherry.png""]",blank.png,PB18.png,PB18.png,blank.png,blank.png,blank.png,blank.png,blank.png,blank.png,"[""cherry.png""]","[""cherry.png""]","[""cherry.png""]","[""cherry.png""]","[""cherry.png""]","[""cherry.png""]",1,"[""maltesers.png""]",blank.png,blank.png,blank.png,0,blank.png,blank.png,blank.png,blank.png,blank.png,blank.png,PB01.png,,,,,,,,,,,1,,,#808080,#33ff3f,,,,,,,,,1001.4799999999814,,timeout,,,,,,,,,,,,,3,,,,,,,,,,,,,,,,,,,,,,,,,,,,,,,,,,,,,,,,,,,,,,,,,,,,,,,,,"[""cherry.png""]","[""maltesers.png""]",,,,3,,,false,,1,,,,,white,black,940102,940100.46,939098.98,939084,939115.64,940117.12,,,,
ITI_late,canvas.Screen,2_4_2_6_1_0_1_0_0_0_4,2021-05-24T16:27:00.644Z,,,blank.png,"[""maltesers.png""]",blank.png,blank.png,blank.png,blank.png,blank.png,blank.png,blank.png,blank.png,blank.png,blank.png,blank.png,,,,,,,,,,,,,,,,,,,,,,,,,,,,,"[""maltesers.png""]","[""cherry.png""]",PB01.png,,,,,,,,,,,0,6,"[""cherry.png""]","[""cherry.png""]","[""cherry.png""]","[""cherry.png""]","[""cherry.png""]","[""cherry.png""]",blank.png,PB18.png,PB18.png,blank.png,blank.png,blank.png,blank.png,blank.png,blank.png,"[""cherry.png""]","[""cherry.png""]","[""cherry.png""]","[""cherry.png""]","[""cherry.png""]","[""cherry.png""]",1,"[""maltesers.png""]",blank.png,blank.png,blank.png,0,blank.png,blank.png,blank.png,blank.png,blank.png,blank.png,PB01.png,,,,,,,,,,,1,,,,,,,,,,,,,750,,timeout,,,,,,,,,,,,white,3,,,,,,,,,,,,,,,,,,,,,,,,,,,,,,,,,,,,,,,,,,,,,,,,,,,,,,,,,"[""cherry.png""]","[""maltesers.png""]",,,,3,,,false,,1,,,,,,,940852,940850.46,940100.46,940106,940117.12,940867.12,,,,
choice_sequence,flow.Sequence,2_4_2_6_1_0_1_0_0_0,2021-05-24T16:27:00.645Z,,,blank.png,"[""maltesers.png""]",blank.png,blank.png,blank.png,blank.png,blank.png,blank.png,blank.png,blank.png,blank.png,blank.png,blank.png,,,,,,,,,,,,,,,,,,,,,,,,,,,,,"[""maltesers.png""]","[""cherry.png""]",PB01.png,,,,,,,,,,,0,6,"[""cherry.png""]","[""cherry.png""]","[""cherry.png""]","[""cherry.png""]","[""cherry.png""]","[""cherry.png""]",blank.png,PB18.png,PB18.png,blank.png,blank.png,blank.png,blank.png,blank.png,blank.png,"[""cherry.png""]","[""cherry.png""]","[""cherry.png""]","[""cherry.png""]","[""cherry.png""]","[""cherry.png""]",1,"[""maltesers.png""]",blank.png,blank.png,blank.png,0,blank.png,blank.png,blank.png,blank.png,blank.png,blank.png,PB01.png,,,,,,,,,,,1,,,,,,,,,,,,,4701.479999999981,,completion,,,,,,,,,,,,,3,,,,,,,,,,,,,,,,,,,,,,,,,,,,,,,,,,,,,,,,,,,,,,,,,,,,,,,,,"[""cherry.png""]","[""maltesers.png""]",,,,3,,,false,,1,,,,,,,940854,940850.46,936132.3,936129,936148.98,940867.12,,,,
fixCross,canvas.Screen,2_4_2_6_1_0_1_0_0_1_0,2021-05-24T16:27:01.093Z,,,blank.png,"[""maltesers.png""]",blank.png,blank.png,blank.png,blank.png,blank.png,blank.png,blank.png,blank.png,blank.png,blank.png,blank.png,,,,,,,,,,,,,,,,,,,,,,,,,,,,,"[""maltesers.png""]","[""cherry.png""]",PB15.png,,,,,,,,,,,0,6,"[""cherry.png""]","[""cherry.png""]","[""cherry.png""]","[""cherry.png""]","[""cherry.png""]","[""cherry.png""]",blank.png,PB18.png,PB18.png,"[""cherry.png""]","[""cherry.png""]","[""cherry.png""]","[""cherry.png""]",blank.png,blank.png,"[""cherry.png""]","[""cherry.png""]","[""cherry.png""]","[""cherry.png""]","[""cherry.png""]","[""cherry.png""]",1,"[""maltesers.png""]",blank.png,blank.png,blank.png,4,"[""cherry.png""]","[""cherry.png""]","[""cherry.png""]","[""cherry.png""]",blank.png,blank.png,PB15.png,,,,,,,,,,,1,,,,,,,,,,,,,450,,timeout,,,,,,,,,,,,,3,,,,,,,,,,,,,,,,,,,,,,,,,,,,,,,,,,,,,,,,,,,,,,,,,,,,,,,,,"[""cherry.png""]","[""maltesers.png""]",,,,3,,,false,,1,,,,,,,941302,941300.46,940850.46,940867,940867.12,941317.12,9,,,
timeout,canvas.Screen,2_4_2_6_1_0_1_0_0_1_1,2021-05-24T16:27:01.594Z,,,blank.png,"[""maltesers.png""]",blank.png,blank.png,blank.png,blank.png,blank.png,blank.png,blank.png,blank.png,blank.png,blank.png,blank.png,,,,,,,,,,,,,,,,,,,,,,,,,,,,,"[""maltesers.png""]","[""cherry.png""]",PB15.png,,,,,,,,,,,0,6,"[""cherry.png""]","[""cherry.png""]","[""cherry.png""]","[""cherry.png""]","[""cherry.png""]","[""cherry.png""]",blank.png,PB18.png,PB18.png,"[""cherry.png""]","[""cherry.png""]","[""cherry.png""]","[""cherry.png""]",blank.png,blank.png,"[""cherry.png""]","[""cherry.png""]","[""cherry.png""]","[""cherry.png""]","[""cherry.png""]","[""cherry.png""]",1,"[""maltesers.png""]",blank.png,blank.png,blank.png,4,"[""cherry.png""]","[""cherry.png""]","[""cherry.png""]","[""cherry.png""]",blank.png,blank.png,PB15.png,,,,,,,,,,,1,,,,,,,,,,,,,500,,timeout,,,,,,,,,,,,,3,,,,,,,,,,,,,,,,,,,,,,,,,,,,,,,,,,,,,,,,,,,,,,,,,,,,,,,,,"[""cherry.png""]","[""maltesers.png""]",,,,3,,,false,,1,,,,,,,941802,941800.46,941300.46,941325,941317.12,941817.12,,,,
choice,canvas.Screen,2_4_2_6_1_0_1_0_0_1_2,2021-05-24T16:27:02.652Z,,,blank.png,"[""maltesers.png""]",blank.png,blank.png,blank.png,blank.png,blank.png,blank.png,blank.png,blank.png,blank.png,blank.png,blank.png,,,,,,,,,,,,,,,,,,,,,,,,,,,,,"[""maltesers.png""]","[""cherry.png""]",PB15.png,,,,,,,,,,,0,6,"[""cherry.png""]","[""cherry.png""]","[""cherry.png""]","[""cherry.png""]","[""cherry.png""]","[""cherry.png""]",blank.png,PB18.png,PB18.png,"[""cherry.png""]","[""cherry.png""]","[""cherry.png""]","[""cherry.png""]",blank.png,blank.png,"[""cherry.png""]","[""cherry.png""]","[""cherry.png""]","[""cherry.png""]","[""cherry.png""]","[""cherry.png""]",1,"[""maltesers.png""]",blank.png,blank.png,blank.png,4,"[""cherry.png""]","[""cherry.png""]","[""cherry.png""]","[""cherry.png""]",blank.png,blank.png,PB15.png,,,,,,,,,,,1,,,,,,,,,,,,,1022.8800000000047,,response,,,,,,,,,,,,,3,,,,,,,,,,,,,,,,,,,,,,,,,,,,,,,,,,,,,,,,,,,,,,,,,,,,,,,,,"[""cherry.png""]","[""maltesers.png""]",,,,3,left,keydown(ArrowLeft),false,,1,,,,,,,942861,942840,941800.46,941825,941817.12,942902.04,,9,,
square,canvas.Screen,2_4_2_6_1_0_1_0_0_1_3,2021-05-24T16:27:03.678Z,,,blank.png,"[""maltesers.png""]",blank.png,blank.png,blank.png,blank.png,blank.png,blank.png,blank.png,blank.png,blank.png,blank.png,blank.png,,,,,,,,,,,,,,,,,,,,,,,,,,,,,"[""maltesers.png""]","[""cherry.png""]",PB15.png,,,,,,,,,,,0,6,"[""cherry.png""]","[""cherry.png""]","[""cherry.png""]","[""cherry.png""]","[""cherry.png""]","[""cherry.png""]",blank.png,PB18.png,PB18.png,"[""cherry.png""]","[""cherry.png""]","[""cherry.png""]","[""cherry.png""]",blank.png,blank.png,"[""cherry.png""]","[""cherry.png""]","[""cherry.png""]","[""cherry.png""]","[""cherry.png""]","[""cherry.png""]",1,"[""maltesers.png""]",blank.png,blank.png,blank.png,4,"[""cherry.png""]","[""cherry.png""]","[""cherry.png""]","[""cherry.png""]",blank.png,blank.png,PB15.png,,,,,,,,,,,1,,,#33ff3f,#808080,,,,,,,,,1000,,timeout,,,,,,,,,,,,,3,,,,,,,,,,,,,,,,,,,,,,,,,,,,,,,,,,,,,,,,,,,,,,,,,,,,,,,,,"[""cherry.png""]","[""maltesers.png""]",,,,3,,,false,,1,,,,,black,white,943887,943885.36,942885.36,942885,942902.04,943902.04,,,,
ITI_late,canvas.Screen,2_4_2_6_1_0_1_0_0_1_4,2021-05-24T16:27:04.679Z,,,blank.png,"[""maltesers.png""]",blank.png,blank.png,blank.png,blank.png,blank.png,blank.png,blank.png,blank.png,blank.png,blank.png,blank.png,,,,,,,,,,,,,,,,,,,,,,,,,,,,,"[""maltesers.png""]","[""cherry.png""]",PB15.png,,,,,,,,,,,0,6,"[""cherry.png""]","[""cherry.png""]","[""cherry.png""]","[""cherry.png""]","[""cherry.png""]","[""cherry.png""]",blank.png,PB18.png,PB18.png,"[""cherry.png""]","[""cherry.png""]","[""cherry.png""]","[""cherry.png""]",blank.png,blank.png,"[""cherry.png""]","[""cherry.png""]","[""cherry.png""]","[""cherry.png""]","[""cherry.png""]","[""cherry.png""]",1,"[""maltesers.png""]",blank.png,blank.png,blank.png,4,"[""cherry.png""]","[""cherry.png""]","[""cherry.png""]","[""cherry.png""]",blank.png,blank.png,PB15.png,,,,,,,,,,,1,,,,,,,,,,,,,1000,,timeout,,,,,,,,,,,,white,3,,,,,,,,,,,,,,,,,,,,,,,,,,,,,,,,,,,,,,,,,,,,,,,,,,,,,,,,,"[""cherry.png""]","[""maltesers.png""]",,,,3,,,false,,1,,,,,,,944887,944885.36,943885.36,943891,943902.04,944902.04,,,,
choice_sequence,flow.Sequence,2_4_2_6_1_0_1_0_0_1,2021-05-24T16:27:04.680Z,,,blank.png,"[""maltesers.png""]",blank.png,blank.png,blank.png,blank.png,blank.png,blank.png,blank.png,blank.png,blank.png,blank.png,blank.png,,,,,,,,,,,,,,,,,,,,,,,,,,,,,"[""maltesers.png""]","[""cherry.png""]",PB15.png,,,,,,,,,,,0,6,"[""cherry.png""]","[""cherry.png""]","[""cherry.png""]","[""cherry.png""]","[""cherry.png""]","[""cherry.png""]",blank.png,PB18.png,PB18.png,"[""cherry.png""]","[""cherry.png""]","[""cherry.png""]","[""cherry.png""]",blank.png,blank.png,"[""cherry.png""]","[""cherry.png""]","[""cherry.png""]","[""cherry.png""]","[""cherry.png""]","[""cherry.png""]",1,"[""maltesers.png""]",blank.png,blank.png,blank.png,4,"[""cherry.png""]","[""cherry.png""]","[""cherry.png""]","[""cherry.png""]",blank.png,blank.png,PB15.png,,,,,,,,,,,1,,,,,,,,,,,,,4018.2399999999907,,completion,,,,,,,,,,,,,3,,,,,,,,,,,,,,,,,,,,,,,,,,,,,,,,,,,,,,,,,,,,,,,,,,,,,,,,,"[""cherry.png""]","[""maltesers.png""]",,,,3,,,false,,1,,,,,,,944888,944885.36,940850.46,940865,940867.12,944902.04,,,,
fixCross,canvas.Screen,2_4_2_6_1_0_1_0_0_2_0,2021-05-24T16:27:05.129Z,,,blank.png,"[""maltesers.png""]",blank.png,blank.png,blank.png,blank.png,blank.png,blank.png,blank.png,blank.png,blank.png,blank.png,blank.png,,,,,,,,,,,,,,,,,,,,,,,,,,,,,"[""maltesers.png""]","[""cherry.png""]",PB12.png,,,,,,,,,,,0,6,"[""cherry.png""]","[""cherry.png""]","[""cherry.png""]","[""cherry.png""]","[""cherry.png""]","[""cherry.png""]",blank.png,PB18.png,PB18.png,"[""cherry.png""]","[""cherry.png""]",blank.png,blank.png,blank.png,blank.png,"[""cherry.png""]","[""cherry.png""]","[""cherry.png""]","[""cherry.png""]","[""cherry.png""]","[""cherry.png""]",1,"[""maltesers.png""]",blank.png,blank.png,blank.png,2,"[""cherry.png""]","[""cherry.png""]",blank.png,blank.png,blank.png,blank.png,PB12.png,,,,,,,,,,,1,,,,,,,,,,,,,450,,timeout,,,,,,,,,,,,,3,,,,,,,,,,,,,,,,,,,,,,,,,,,,,,,,,,,,,,,,,,,,,,,,,,,,,,,,,"[""cherry.png""]","[""maltesers.png""]",,,,3,,,false,,1,,,,,,,945337,945335.36,944885.36,944903,944902.04,945352.04,10,,,
timeout,canvas.Screen,2_4_2_6_1_0_1_0_0_2_1,2021-05-24T16:27:05.629Z,,,blank.png,"[""maltesers.png""]",blank.png,blank.png,blank.png,blank.png,blank.png,blank.png,blank.png,blank.png,blank.png,blank.png,blank.png,,,,,,,,,,,,,,,,,,,,,,,,,,,,,"[""maltesers.png""]","[""cherry.png""]",PB12.png,,,,,,,,,,,0,6,"[""cherry.png""]","[""cherry.png""]","[""cherry.png""]","[""cherry.png""]","[""cherry.png""]","[""cherry.png""]",blank.png,PB18.png,PB18.png,"[""cherry.png""]","[""cherry.png""]",blank.png,blank.png,blank.png,blank.png,"[""cherry.png""]","[""cherry.png""]","[""cherry.png""]","[""cherry.png""]","[""cherry.png""]","[""cherry.png""]",1,"[""maltesers.png""]",blank.png,blank.png,blank.png,2,"[""cherry.png""]","[""cherry.png""]",blank.png,blank.png,blank.png,blank.png,PB12.png,,,,,,,,,,,1,,,,,,,,,,,,,500,,timeout,,,,,,,,,,,,,3,,,,,,,,,,,,,,,,,,,,,,,,,,,,,,,,,,,,,,,,,,,,,,,,,,,,,,,,,"[""cherry.png""]","[""maltesers.png""]",,,,3,,,false,,1,,,,,,,945838,945835.36,945335.36,945361,945352.04,945852.04,,,,
choice,canvas.Screen,2_4_2_6_1_0_1_0_0_2_2,2021-05-24T16:27:06.639Z,,,blank.png,"[""maltesers.png""]",blank.png,blank.png,blank.png,blank.png,blank.png,blank.png,blank.png,blank.png,blank.png,blank.png,blank.png,,,,,,,,,,,,,,,,,,,,,,,,,,,,,"[""maltesers.png""]","[""cherry.png""]",PB12.png,,,,,,,,,,,0,6,"[""cherry.png""]","[""cherry.png""]","[""cherry.png""]","[""cherry.png""]","[""cherry.png""]","[""cherry.png""]",blank.png,PB18.png,PB18.png,"[""cherry.png""]","[""cherry.png""]",blank.png,blank.png,blank.png,blank.png,"[""cherry.png""]","[""cherry.png""]","[""cherry.png""]","[""cherry.png""]","[""cherry.png""]","[""cherry.png""]",1,"[""maltesers.png""]",blank.png,blank.png,blank.png,2,"[""cherry.png""]","[""cherry.png""]",blank.png,blank.png,blank.png,blank.png,PB12.png,,,,,,,,,,,1,,,,,,,,,,,,,971.9599999999627,,response,,,,,,,,,,,,,3,,,,,,,,,,,,,,,,,,,,,,,,,,,,,,,,,,,,,,,,,,,,,,,,,,,,,,,,,"[""cherry.png""]","[""maltesers.png""]",,,,3,right,keydown(ArrowRight),false,,1,,,,,,,946848,946824,945835.36,945860,945852.04,946903.62,,10,,
square,canvas.Screen,2_4_2_6_1_0_1_0_0_2_3,2021-05-24T16:27:07.680Z,,,blank.png,"[""maltesers.png""]",blank.png,blank.png,blank.png,blank.png,blank.png,blank.png,blank.png,blank.png,blank.png,blank.png,blank.png,,,,,,,,,,,,,,,,,,,,,,,,,,,,,"[""maltesers.png""]","[""cherry.png""]",PB12.png,,,,,,,,,,,0,6,"[""cherry.png""]","[""cherry.png""]","[""cherry.png""]","[""cherry.png""]","[""cherry.png""]","[""cherry.png""]",blank.png,PB18.png,PB18.png,"[""cherry.png""]","[""cherry.png""]",blank.png,blank.png,blank.png,blank.png,"[""cherry.png""]","[""cherry.png""]","[""cherry.png""]","[""cherry.png""]","[""cherry.png""]","[""cherry.png""]",1,"[""maltesers.png""]",blank.png,blank.png,blank.png,2,"[""cherry.png""]","[""cherry.png""]",blank.png,blank.png,blank.png,blank.png,PB12.png,,,,,,,,,,,1,,,#808080,#33ff3f,,,,,,,,,1000,,timeout,,,,,,,,,,,,,3,,,,,,,,,,,,,,,,,,,,,,,,,,,,,,,,,,,,,,,,,,,,,,,,,,,,,,,,,"[""cherry.png""]","[""maltesers.png""]",,,,3,,,false,,1,,,,,white,black,947889,947886.94,946886.94,946874,946903.62,947903.62,,,,
ITI_late,canvas.Screen,2_4_2_6_1_0_1_0_0_2_4,2021-05-24T16:27:07.930Z,,,blank.png,"[""maltesers.png""]",blank.png,blank.png,blank.png,blank.png,blank.png,blank.png,blank.png,blank.png,blank.png,blank.png,blank.png,,,,,,,,,,,,,,,,,,,,,,,,,,,,,"[""maltesers.png""]","[""cherry.png""]",PB12.png,,,,,,,,,,,0,6,"[""cherry.png""]","[""cherry.png""]","[""cherry.png""]","[""cherry.png""]","[""cherry.png""]","[""cherry.png""]",blank.png,PB18.png,PB18.png,"[""cherry.png""]","[""cherry.png""]",blank.png,blank.png,blank.png,blank.png,"[""cherry.png""]","[""cherry.png""]","[""cherry.png""]","[""cherry.png""]","[""cherry.png""]","[""cherry.png""]",1,"[""maltesers.png""]",blank.png,blank.png,blank.png,2,"[""cherry.png""]","[""cherry.png""]",blank.png,blank.png,blank.png,blank.png,PB12.png,,,,,,,,,,,1,,,,,,,,,,,,,250,,timeout,,,,,,,,,,,,white,3,,,,,,,,,,,,,,,,,,,,,,,,,,,,,,,,,,,,,,,,,,,,,,,,,,,,,,,,,"[""cherry.png""]","[""maltesers.png""]",,,,3,,,false,,1,,,,,,,948139,948136.94,947886.94,947892,947903.62,948153.62,,,,
choice_sequence,flow.Sequence,2_4_2_6_1_0_1_0_0_2,2021-05-24T16:27:07.930Z,,,blank.png,"[""maltesers.png""]",blank.png,blank.png,blank.png,blank.png,blank.png,blank.png,blank.png,blank.png,blank.png,blank.png,blank.png,,,,,,,,,,,,,,,,,,,,,,,,,,,,,"[""maltesers.png""]","[""cherry.png""]",PB12.png,,,,,,,,,,,0,6,"[""cherry.png""]","[""cherry.png""]","[""cherry.png""]","[""cherry.png""]","[""cherry.png""]","[""cherry.png""]",blank.png,PB18.png,PB18.png,"[""cherry.png""]","[""cherry.png""]",blank.png,blank.png,blank.png,blank.png,"[""cherry.png""]","[""cherry.png""]","[""cherry.png""]","[""cherry.png""]","[""cherry.png""]","[""cherry.png""]",1,"[""maltesers.png""]",blank.png,blank.png,blank.png,2,"[""cherry.png""]","[""cherry.png""]",blank.png,blank.png,blank.png,blank.png,PB12.png,,,,,,,,,,,1,,,,,,,,,,,,,3234.899999999907,,completion,,,,,,,,,,,,,3,,,,,,,,,,,,,,,,,,,,,,,,,,,,,,,,,,,,,,,,,,,,,,,,,,,,,,,,,"[""cherry.png""]","[""maltesers.png""]",,,,3,,,false,,1,,,,,,,948139,948136.94,944885.36,944901,944902.04,948153.62,,,,
fixCross,canvas.Screen,2_4_2_6_1_0_1_0_0_3_0,2021-05-24T16:27:08.180Z,,,blank.png,"[""maltesers.png""]",blank.png,blank.png,blank.png,blank.png,blank.png,blank.png,blank.png,blank.png,blank.png,blank.png,blank.png,,,,,,,,,,,,,,,,,,,,,,,,,,,,,"[""maltesers.png""]","[""cherry.png""]",PB17.png,,,,,,,,,,,0,6,"[""cherry.png""]","[""cherry.png""]","[""cherry.png""]","[""cherry.png""]","[""cherry.png""]","[""cherry.png""]",blank.png,PB18.png,PB18.png,"[""cherry.png""]","[""cherry.png""]","[""cherry.png""]","[""cherry.png""]","[""cherry.png""]","[""cherry.png""]","[""cherry.png""]","[""cherry.png""]","[""cherry.png""]","[""cherry.png""]","[""cherry.png""]","[""cherry.png""]",1,"[""maltesers.png""]",blank.png,blank.png,blank.png,6,"[""cherry.png""]","[""cherry.png""]","[""cherry.png""]","[""cherry.png""]","[""cherry.png""]","[""cherry.png""]",PB17.png,,,,,,,,,,,1,,,,,,,,,,,,,250,,timeout,,,,,,,,,,,,,3,,,,,,,,,,,,,,,,,,,,,,,,,,,,,,,,,,,,,,,,,,,,,,,,,,,,,,,,,"[""cherry.png""]","[""maltesers.png""]",,,,3,,,false,,1,,,,,,,948388,948386.94,948136.94,948148,948153.62,948403.62,11,,,
timeout,canvas.Screen,2_4_2_6_1_0_1_0_0_3_1,2021-05-24T16:27:08.680Z,,,blank.png,"[""maltesers.png""]",blank.png,blank.png,blank.png,blank.png,blank.png,blank.png,blank.png,blank.png,blank.png,blank.png,blank.png,,,,,,,,,,,,,,,,,,,,,,,,,,,,,"[""maltesers.png""]","[""cherry.png""]",PB17.png,,,,,,,,,,,0,6,"[""cherry.png""]","[""cherry.png""]","[""cherry.png""]","[""cherry.png""]","[""cherry.png""]","[""cherry.png""]",blank.png,PB18.png,PB18.png,"[""cherry.png""]","[""cherry.png""]","[""cherry.png""]","[""cherry.png""]","[""cherry.png""]","[""cherry.png""]","[""cherry.png""]","[""cherry.png""]","[""cherry.png""]","[""cherry.png""]","[""cherry.png""]","[""cherry.png""]",1,"[""maltesers.png""]",blank.png,blank.png,blank.png,6,"[""cherry.png""]","[""cherry.png""]","[""cherry.png""]","[""cherry.png""]","[""cherry.png""]","[""cherry.png""]",PB17.png,,,,,,,,,,,1,,,,,,,,,,,,,500,,timeout,,,,,,,,,,,,,3,,,,,,,,,,,,,,,,,,,,,,,,,,,,,,,,,,,,,,,,,,,,,,,,,,,,,,,,,"[""cherry.png""]","[""maltesers.png""]",,,,3,,,false,,1,,,,,,,948889,948886.94,948386.94,948409,948403.62,948903.62,,,,
choice,canvas.Screen,2_4_2_6_1_0_1_0_0_3_2,2021-05-24T16:27:10.459Z,,,blank.png,"[""maltesers.png""]",blank.png,blank.png,blank.png,blank.png,blank.png,blank.png,blank.png,blank.png,blank.png,blank.png,blank.png,,,,,,,,,,,,,,,,,,,,,,,,,,,,,"[""maltesers.png""]","[""cherry.png""]",PB17.png,,,,,,,,,,,0,6,"[""cherry.png""]","[""cherry.png""]","[""cherry.png""]","[""cherry.png""]","[""cherry.png""]","[""cherry.png""]",blank.png,PB18.png,PB18.png,"[""cherry.png""]","[""cherry.png""]","[""cherry.png""]","[""cherry.png""]","[""cherry.png""]","[""cherry.png""]","[""cherry.png""]","[""cherry.png""]","[""cherry.png""]","[""cherry.png""]","[""cherry.png""]","[""cherry.png""]",1,"[""maltesers.png""]",blank.png,blank.png,blank.png,6,"[""cherry.png""]","[""cherry.png""]","[""cherry.png""]","[""cherry.png""]","[""cherry.png""]","[""cherry.png""]",PB17.png,,,,,,,,,,,1,,,,,,,,,,,,,1749.3800000000047,,response,,,,,,,,,,,,,3,,,,,,,,,,,,,,,,,,,,,,,,,,,,,,,,,,,,,,,,,,,,,,,,,,,,,,,,,"[""cherry.png""]","[""maltesers.png""]",,,,3,left,keydown(ArrowLeft),false,,1,,,,,,,950668,950653,948886.94,948915,948903.62,950721.9,,11,,
