sender,sender_type,sender_id,timestamp,meta,,Blank,DownLeft1,DownLeft2,DownLeft3,DownLeft4,DownLeft5,DownLeft6,DownRight1,DownRight2,DownRight3,DownRight4,DownRight5,DownRight6,FoodHabits_Fru_item1,FoodHabits_Fru_item2,FoodHabits_Fru_item3,FoodHabits_Fru_item4,FoodHabits_Fru_item5,FoodHabits_Fru_item6,FoodHabits_Fru_item7,FoodHabits_Meat_item1,FoodHabits_Meat_item2,FoodHabits_Meat_item3,FoodHabits_Meat_item4,FoodHabits_Meat_item5,FoodHabits_Meat_item6,FoodHabits_Meat_item7,FoodHabits_Swe_item1,FoodHabits_Swe_item2,FoodHabits_Swe_item3,FoodHabits_Swe_item4,FoodHabits_Swe_item5,FoodHabits_Swe_item6,FoodHabits_Swe_item7,FoodHabits_Veg_item1,FoodHabits_Veg_item2,FoodHabits_Veg_item3,FoodHabits_Veg_item4,FoodHabits_Veg_item5,FoodHabits_Veg_item6,FoodHabits_Veg_item7,ImgA,ImgB,LeftBar,PSS_item01,PSS_item02,PSS_item03,PSS_item04,PSS_item05,PSS_item06,PSS_item07,PSS_item08,PSS_item09,PSS_item10,RefA,RefB,RefB1,RefB2,RefB3,RefB4,RefB5,RefB6,RefB7,Ref_PB,RightBar,UpLeft1,UpLeft2,UpLeft3,UpLeft4,UpLeft5,UpLeft6,UpRight1,UpRight2,UpRight3,UpRight4,UpRight5,UpRight6,VarA,VarA1,VarA2,VarA3,VarA4,VarB,VarB1,VarB2,VarB3,VarB4,VarB5,VarB6,Var_PB,attCheck_fileA,attCheck_fileB,attCheck_fileC,attCheck_fileD,attCheck_options,attCheck_valueA,attCheck_valueB,attCheck_valueC,attCheck_valueD,attention_check,block,break1,browser_name,choseL,choseR,consent_form1,consent_form2,consentconfirmation_form1,consentconfirmation_form2,correct,correctResponse,diet,disorder,duration,edu,ended_on,enjoy,full_version,gender,group,hunger,img,imgTask,input_age,input_meal,input_occ,input_remark,lateRespFeed,list,major_version,message,mixQ_item1,mixQ_item2,mixQ_item3,mixQ_item4,mixQ_item5,name,navigator_appName,navigator_userAgent,os,pracQ1_IDa,pracQ1_IDb,pracQ1_IDc,pracQ1_IDd,pracQ1_optionA,pracQ1_optionB,pracQ1_optionC,pracQ1_optionD,pracQ1_valueA,pracQ1_valueB,pracQ1_valueC,pracQ1_valueD,pracQ2_IDa,pracQ2_IDb,pracQ2_IDc,pracQ2_optionA,pracQ2_optionB,pracQ2_optionC,pracQ2_valueA,pracQ2_valueB,pracQ2_valueC,pracQ4_IDa,pracQ4_IDb,pracQ4_IDc,pracQ4_IDd,pracQ4_optionA,pracQ4_optionB,pracQ4_optionC,pracQ4_optionD,pracQ4_valueA,pracQ4_valueB,pracQ4_valueC,pracQ4_valueD,pracQ5_IDa,pracQ5_IDb,pracQ5_IDc,pracQ5_IDd,pracQ5_optionA,pracQ5_optionB,pracQ5_optionC,pracQ5_optionD,pracQ5_valueA,pracQ5_valueB,pracQ5_valueC,pracQ5_valueD,prefHealty,prefUnhealthy,prolific_ID,psessionID,pstudyID,rep,response,response_action,skip,snack,sublock,subtitle,task_difficulty,task_engagement,task_focus,textL,textR,time_commit,time_end,time_render,time_run,time_show,time_switch,trial_count,trial_countO,url,valence
Title,html.Page,0,2021-05-24T15:52:57.213Z,"{""labjs_version"":""20.2.2"",""labjs_build"":{""flavor"":""production"",""commit"":""a25486e0c714a0ae2ce03ff94b7bb6896854dcfa""},""location"":""https://run.pavlovia.org/E3lab/rebund/html/?PROLIFIC_PID=56d39b96da2aaa000dab6178&STUDY_ID=60008f34cd719d13b0d706dd&SESSION_ID=60abcadd2ebd136e9d0dfde3"",""userAgent"":""Mozilla/5.0 (Windows NT 10.0; Win64; x64) AppleWebKit/537.36 (KHTML, like Gecko) Chrome/90.0.4430.212 Safari/537.36"",""platform"":""Win32"",""language"":""en-US"",""locale"":""en-US"",""timeZone"":""America/Los_Angeles"",""timezoneOffset"":420,""screen_width"":1920,""screen_height"":1080,""scroll_width"":1920,""scroll_height"":921,""window_innerWidth"":1920,""window_innerHeight"":969,""devicePixelRatio"":1}",,,,,,,,,,,,,,,,,,,,,,,,,,,,,,,,,,,,,,,,,,,,,,,,,,,,,,,,,,,,,,,,,,,,,,,,,,,,,,,,,,,,,,,,,,,,,,,,,,,,,,,,,,,,,,,,,,,7317.344999982156,,form submission,,,,,,,,,,,,,,,,,,,,,,,,,,,,,,,,,,,,,,,,,,,,,,,,,,,,,,,,,,,,,,,,,,,,,,,,,,,,,,,,,,,,,,,10745.475000003353,10745.089999982156,3411.08,3423.424999928102,3427.745,10766.187,,,"{""PROLIFIC_PID"":""56d39b96da2aaa000dab6178"",""STUDY_ID"":""60008f34cd719d13b0d706dd"",""SESSION_ID"":""60abcadd2ebd136e9d0dfde3""}",
get_systemInfo,canvas.Screen,1,2021-05-24T15:52:57.234Z,,,,,,,,,,,,,,,,,,,,,,,,,,,,,,,,,,,,,,,,,,,,,,,,,,,,,,,,,,,,,,,,,,,,,,,,,,,,,,,,,,,,,,,,,,,,,,,,,,,,,,,,,Chrome,,,,,,,,,,,1761.6550000000007,,timeout,,90.0.4430.212,,,,,,,,,,,,90,,,,,,,,Netscape,"Mozilla/5.0 (Windows NT 10.0; Win64; x64) AppleWebKit/537.36 (KHTML, like Gecko) Chrome/90.0.4430.212 Safari/537.36",Windows,,,,,,,,,,,,,,,,,,,,,,,,,,,,,,,,,,,,,,,,,,,,,,,,56d39b96da2aaa000dab6178,,60008f34cd719d13b0d706dd,,,,,,,,,,,,,10766.925000003539,10766.669999924488,10727.817,10746.29499996081,10766.187,12527.842,,,,
ConsentForm,html.Form,2_0,2021-05-24T15:53:09.368Z,,,,,,,,,,,,,,,,,,,,,,,,,,,,,,,,,,,,,,,,,,,,,,,,,,,,,,,,,,,,,,,,,,,,,,,,,,,,,,,,,,,,,,,,,,,,,,,,,,,,,,,,,,,,true,true,,,,,,,10372.072999958127,,form submission,,,,,,,,,,,,,,,,,,,,,,,,,,,,,,,,,,,,,,,,,,,,,,,,,,,,,,,,,,,,,,,,,,,,,,,,,,,,,,,,,,,,,,,22900.114999967627,22899.914999958128,10766.669999924488,12541.399999987334,12527.842,22911.244,,,,
PepTalk,html.Page,2_1,2021-05-24T15:53:19.722Z,,,,,,,,,,,,,,,,,,,,,,,,,,,,,,,,,,,,,,,,,,,,,,,,,,,,,,,,,,,,,,,,,,,,,,,,,,,,,,,,,,,,,,,,,,,,,,,,,,,,,,,,,,,,,,,,,,,,10343.410999938795,,form submission,,,,,,,,,,,,,,,,,,,,,,,,,,,,,,,,,,,,,,,,,,,,,,,,,,,,,,,,,,,,,,,,,,,,,,,,,,,,,,,,,,,,,,,33254.859999986365,33254.65499993879,22894.747,22900.21999995224,22911.244,33261.343,,,,
Demographics,html.Form,2_2,2021-05-24T15:53:32.181Z,,,,,,,,,,,,,,,,,,,,,,,,,,,,,,,,,,,,,,,,,,,,,,,,,,,,,,,,,,,,,,,,,,,,,,,,,,,,,,,,,,,,,,,,,,,,,,,,,,,,,,,,,,,,,,,,,,,,12451.696999944157,3,form submission,,,2,,,,,34,,Manager,,,,,,,,,,,,,,,,,,,,,,,,,,,,,,,,,,,,,,,,,,,,,,,,,,,,,,,,,,,,,,,,,,,,,,,,,,,,,45713.23999995366,45713.03999994416,33244.676,33254.96499997098,33261.343,45728.142,,,,
InclusionCrit,html.Form,2_3,2021-05-24T15:53:44.442Z,,,,,,,,,,,,,,,,,,,,,,,,,,,,,,,,,,,,,,,,,,,,,,,,,,,,,,,,,,,,,,,,,,,,,,,,,,,,,,,,,,,,,,,,,,,,,,,,,,,,,,,,,,,,,,,,,,0,1,12245.722999949001,,form submission,0,,,,,,,,,,,,,,,,,,,,,,,,,,,,,,,,,,,,,,,,,,,,,,,,,,,,,,,,,,,,,,,,,,,,,,,,,,,,,,,,,,,,,,57974.05999992043,57973.864999949,45711.56,45713.34499993827,45728.142,57978.251,,,,
Selection,html.Page,2_4_0,2021-05-24T15:53:54.803Z,,,,,,,,,,,,,,,,,,,,,,,,,,,,,,,,,,,,,,,,,,,,,,,,,,,,,,,,,,,,,,,,,,,,,,,,,,,,,,,,,,,,,,,,,,,,,,,,,,,,,,,,,,,,,,,,,,,,10357.504000007342,,form submission,,,,,,,,,,,,,,,,,,,,,,,,,,,,,,,,,,,,,,,,,,,,,,,,,,,,,,,,,,,,,,,,,,,,,,,,,,,,,,,0,,,,,,,,68335.9449999407,68335.75500000734,57961.592,57974.21999997459,57978.251,68345.019,,,,
Load,html.Page,2_4_1,2021-05-24T15:53:54.813Z,,,,,,,,,,,,,,,,,,,,,,,,,,,,,,,,,,,,,,,,,,,,,,,,,,,,,,,,,,,,,,,,,,,,,,,,,,,,,,,,,,,,,,,,,,,,,,,,,,,,,,,,,,,,,,,,,,,,4383.407999999996,,timeout,,,,,,,,,,,,,,,,,,,,,,,,,,,,,,,,,,,,,,,,,,,,,,,,,,,,,,,,,,,,,,,,,,,,,,,,,,,,,,,,,,,,,,,68346.4999999851,68346.18499991484,68328.394,68336.05499996338,68345.019,72728.427,,,,
ratings_instructions,html.Screen,2_4_2_0,2021-05-24T15:54:09.453Z,,,,,,,,,,,,,,,,,,,,,,,,,,,,,,,,,,,,,,,,,,,,,,,,,,,,,,,,,,,,,,,,,,,,,,,,,,,,,,,,,,,,,,,,,,,,,,,,,,,,,,,,,,,,,,,,,,,,10252.312999911752,,response,,,,,,,,,,,,,,,,,,,,,,,,,,,,,,,,,,,,,,,,,,,,,,,,,,,,,,,,,,,,,,,,,,,,,,,,,,,,continue,keypress(Space),false,,,,,,,,,82986.54999991413,82980.73999991175,68346.18499991484,72738.8899999205,72728.427,83011.884,0,0,,
fixCross,canvas.Screen,2_4_2_1_0_0,2021-05-24T15:54:09.963Z,,,,,,,,,,,,,,,,,,,,,,,,,,,,,,,,,,,,,,,,,,,,,,,,,,,,,,,,,,,,,,,,,,,,,,,,,,,,,,,,,,,,,,,,,,,,,,,,,,,,,,,,,,,,,,,,,,,,499.9519999999902,,timeout,,,,unhealthy,,m&m.png,,,,,,,,,,,,,,,m&m,,,,,,,,,,,,,,,,,,,,,,,,,,,,,,,,,,,,,,,,,,,,,,,,,,,,,,,,,false,,,,,,,,,83495.75000000186,83495.165,82995.27,82987.23999992944,83011.884,83511.836,,,,
Rating,html.Form,2_4_2_1_0_1,2021-05-24T15:54:15.215Z,,,,,,,,,,,,,,,,,,,,,,,,,,,,,,,,,,,,,,,,,,,,,,,,,,,,,,,,,,,,,,,,,,,,,,,,,,,,,,,,,,,,,,,,,,,,,,,,,,,,,,,,,,,,,,,,,,,,5235.618999946062,,form submission,,,,unhealthy,,m&m.png,,,,,,,,,,,,,,,m&m,,,,,,,,,,,,,,,,,,,,,,,,,,,,,,,,,,,,,,,,,,,,,,,,,,,,,,,,,false,,,,,,,,,88747.71999998484,88747.45499994606,83495.165,83495.85499998648,83511.836,88761.913,,,,93
rating_sequence,flow.Sequence,2_4_2_1_0,2021-05-24T15:54:15.215Z,,,,,,,,,,,,,,,,,,,,,,,,,,,,,,,,,,,,,,,,,,,,,,,,,,,,,,,,,,,,,,,,,,,,,,,,,,,,,,,,,,,,,,,,,,,,,,,,,,,,,,,,,,,,,,,,,,,,5735.570999946052,,completion,,,,unhealthy,,m&m.png,,,,,,,,,,,,,,,m&m,,,,,,,,,,,,,,,,,,,,,,,,,,,,,,,,,,,,,,,,,,,,,,,,,,,,,,,,,false,,,,,,,,,88747.98999994528,88747.45499994606,82995.27,82987.1249999851,83011.884,88761.913,,,,
fixCross,canvas.Screen,2_4_2_1_1_0,2021-05-24T15:54:15.713Z,,,,,,,,,,,,,,,,,,,,,,,,,,,,,,,,,,,,,,,,,,,,,,,,,,,,,,,,,,,,,,,,,,,,,,,,,,,,,,,,,,,,,,,,,,,,,,,,,,,,,,,,,,,,,,,,,,,,500.01200000000244,,timeout,,,,unhealthy,,praline.png,,,,,,,,,,,,,,,praline,,,,,,,,,,,,,,,,,,,,,,,,,,,,,,,,,,,,,,,,,,,,,,,,,,,,,,,,,false,,,,,,,,,89246.4199999813,89245.3,88745.253,88748.12999996357,88761.913,89261.925,,,,
Rating,html.Form,2_4_2_1_1_1,2021-05-24T15:54:21.016Z,,,,,,,,,,,,,,,,,,,,,,,,,,,,,,,,,,,,,,,,,,,,,,,,,,,,,,,,,,,,,,,,,,,,,,,,,,,,,,,,,,,,,,,,,,,,,,,,,,,,,,,,,,,,,,,,,,,,5286.800000000556,,form submission,,,,unhealthy,,praline.png,,,,,,,,,,,,,,,praline,,,,,,,,,,,,,,,,,,,,,,,,,,,,,,,,,,,,,,,,,,,,,,,,,,,,,,,,,false,,,,,,,,,94548.88000001665,94548.72500000056,89245.3,89246.82999996003,89261.925,94561.958,,,,93
rating_sequence,flow.Sequence,2_4_2_1_1,2021-05-24T15:54:21.016Z,,,,,,,,,,,,,,,,,,,,,,,,,,,,,,,,,,,,,,,,,,,,,,,,,,,,,,,,,,,,,,,,,,,,,,,,,,,,,,,,,,,,,,,,,,,,,,,,,,,,,,,,,,,,,,,,,,,,5786.812000000558,,completion,,,,unhealthy,,praline.png,,,,,,,,,,,,,,,praline,,,,,,,,,,,,,,,,,,,,,,,,,,,,,,,,,,,,,,,,,,,,,,,,,,,,,,,,,false,,,,,,,,,94549.0099999588,94548.72500000056,88745.253,88748.09000000823,88761.913,94561.958,,,,
fixCross,canvas.Screen,2_4_2_1_2_0,2021-05-24T15:54:21.513Z,,,,,,,,,,,,,,,,,,,,,,,,,,,,,,,,,,,,,,,,,,,,,,,,,,,,,,,,,,,,,,,,,,,,,,,,,,,,,,,,,,,,,,,,,,,,,,,,,,,,,,,,,,,,,,,,,,,,500.00100000000384,,timeout,,,,unhealthy,,candy.png,,,,,,,,,,,,,,,candy,,,,,,,,,,,,,,,,,,,,,,,,,,,,,,,,,,,,,,,,,,,,,,,,,,,,,,,,,false,,,,,,,,,95045.83999991883,95045.286,94545.288,94549.08999998588,94561.958,95061.959,,,,
Rating,html.Form,2_4_2_1_2_1,2021-05-24T15:54:27.461Z,,,,,,,,,,,,,,,,,,,,,,,,,,,,,,,,,,,,,,,,,,,,,,,,,,,,,,,,,,,,,,,,,,,,,,,,,,,,,,,,,,,,,,,,,,,,,,,,,,,,,,,,,,,,,,,,,,,,5931.7910000232805,,form submission,,,,unhealthy,,candy.png,,,,,,,,,,,,,,,candy,,,,,,,,,,,,,,,,,,,,,,,,,,,,,,,,,,,,,,,,,,,,,,,,,,,,,,,,,false,,,,,,,,,100993.91999992076,100993.75000002328,95045.286,95045.95499997959,95061.959,100995.348,,,,70
rating_sequence,flow.Sequence,2_4_2_1_2,2021-05-24T15:54:27.461Z,,,,,,,,,,,,,,,,,,,,,,,,,,,,,,,,,,,,,,,,,,,,,,,,,,,,,,,,,,,,,,,,,,,,,,,,,,,,,,,,,,,,,,,,,,,,,,,,,,,,,,,,,,,,,,,,,,,,6431.792000023284,,completion,,,,unhealthy,,candy.png,,,,,,,,,,,,,,,candy,,,,,,,,,,,,,,,,,,,,,,,,,,,,,,,,,,,,,,,,,,,,,,,,,,,,,,,,,false,,,,,,,,,100994.0550000174,100993.75000002328,94545.288,94549.06499991193,94561.958,100995.348,,,,
fixCross,canvas.Screen,2_4_2_1_3_0,2021-05-24T15:54:27.946Z,,,,,,,,,,,,,,,,,,,,,,,,,,,,,,,,,,,,,,,,,,,,,,,,,,,,,,,,,,,,,,,,,,,,,,,,,,,,,,,,,,,,,,,,,,,,,,,,,,,,,,,,,,,,,,,,,,,,499.99899999999616,,timeout,,,,unhealthy,,liqorice.png,,,,,,,,,,,,,,,liquorice,,,,,,,,,,,,,,,,,,,,,,,,,,,,,,,,,,,,,,,,,,,,,,,,,,,,,,,,,false,,,,,,,,,101478.95499994047,101478.672,100978.722,100994.13000000641,100995.348,101495.347,,,,
Rating,html.Form,2_4_2_1_3_1,2021-05-24T15:54:31.563Z,,,,,,,,,,,,,,,,,,,,,,,,,,,,,,,,,,,,,,,,,,,,,,,,,,,,,,,,,,,,,,,,,,,,,,,,,,,,,,,,,,,,,,,,,,,,,,,,,,,,,,,,,,,,,,,,,,,,3600.4929999653978,,form submission,,,,unhealthy,,liqorice.png,,,,,,,,,,,,,,,liquorice,,,,,,,,,,,,,,,,,,,,,,,,,,,,,,,,,,,,,,,,,,,,,,,,,,,,,,,,,false,,,,,,,,,105096.00499994121,105095.83999996539,101478.672,101479.04000000563,101495.347,105112.037,,,,0
rating_sequence,flow.Sequence,2_4_2_1_3,2021-05-24T15:54:31.563Z,,,,,,,,,,,,,,,,,,,,,,,,,,,,,,,,,,,,,,,,,,,,,,,,,,,,,,,,,,,,,,,,,,,,,,,,,,,,,,,,,,,,,,,,,,,,,,,,,,,,,,,,,,,,,,,,,,,,4100.491999965394,,completion,,,,unhealthy,,liqorice.png,,,,,,,,,,,,,,,liquorice,,,,,,,,,,,,,,,,,,,,,,,,,,,,,,,,,,,,,,,,,,,,,,,,,,,,,,,,,false,,,,,,,,,105096.13999992143,105095.83999996539,100978.722,100994.10999997053,100995.348,105112.037,,,,
fixCross,canvas.Screen,2_4_2_1_4_0,2021-05-24T15:54:32.063Z,,,,,,,,,,,,,,,,,,,,,,,,,,,,,,,,,,,,,,,,,,,,,,,,,,,,,,,,,,,,,,,,,,,,,,,,,,,,,,,,,,,,,,,,,,,,,,,,,,,,,,,,,,,,,,,,,,,,500.0850000000064,,timeout,,,,healthy,,pear.png,,,,,,,,,,,,,,,pear,,,,,,,,,,,,,,,,,,,,,,,,,,,,,,,,,,,,,,,,,,,,,,,,,,,,,,,,,false,,,,,,,,,105596.49499994703,105595.523,105095.367,105096.21999994852,105112.037,105612.122,,,,
Rating,html.Form,2_4_2_1_4_1,2021-05-24T15:54:35.403Z,,,,,,,,,,,,,,,,,,,,,,,,,,,,,,,,,,,,,,,,,,,,,,,,,,,,,,,,,,,,,,,,,,,,,,,,,,,,,,,,,,,,,,,,,,,,,,,,,,,,,,,,,,,,,,,,,,,,3323.5479999188974,,form submission,,,,healthy,,pear.png,,,,,,,,,,,,,,,pear,,,,,,,,,,,,,,,,,,,,,,,,,,,,,,,,,,,,,,,,,,,,,,,,,,,,,,,,,false,,,,,,,,,108935.83500001114,108935.6699999189,105595.523,105596.84499993455,105612.122,108962.076,,,,87
rating_sequence,flow.Sequence,2_4_2_1_4,2021-05-24T15:54:35.403Z,,,,,,,,,,,,,,,,,,,,,,,,,,,,,,,,,,,,,,,,,,,,,,,,,,,,,,,,,,,,,,,,,,,,,,,,,,,,,,,,,,,,,,,,,,,,,,,,,,,,,,,,,,,,,,,,,,,,3823.632999918904,,completion,,,,healthy,,pear.png,,,,,,,,,,,,,,,pear,,,,,,,,,,,,,,,,,,,,,,,,,,,,,,,,,,,,,,,,,,,,,,,,,,,,,,,,,false,,,,,,,,,108935.96999999136,108935.6699999189,105095.367,105096.19499999098,105112.037,108962.076,,,,
fixCross,canvas.Screen,2_4_2_1_5_0,2021-05-24T15:54:35.913Z,,,,,,,,,,,,,,,,,,,,,,,,,,,,,,,,,,,,,,,,,,,,,,,,,,,,,,,,,,,,,,,,,,,,,,,,,,,,,,,,,,,,,,,,,,,,,,,,,,,,,,,,,,,,,,,,,,,,500.0179999999964,,timeout,,,,healthy,,cherry.png,,,,,,,,,,,,,,,cherry,,,,,,,,,,,,,,,,,,,,,,,,,,,,,,,,,,,,,,,,,,,,,,,,,,,,,,,,,false,,,,,,,,,109446.25999999698,109445.468,108945.415,108936.05000001844,108962.076,109462.094,,,,
Rating,html.Form,2_4_2_1_5_1,2021-05-24T15:54:39.023Z,,,,,,,,,,,,,,,,,,,,,,,,,,,,,,,,,,,,,,,,,,,,,,,,,,,,,,,,,,,,,,,,,,,,,,,,,,,,,,,,,,,,,,,,,,,,,,,,,,,,,,,,,,,,,,,,,,,,3093.595999950121,,form submission,,,,healthy,,cherry.png,,,,,,,,,,,,,,,cherry,,,,,,,,,,,,,,,,,,,,,,,,,,,,,,,,,,,,,,,,,,,,,,,,,,,,,,,,,false,,,,,,,,,112555.84499996621,112555.68999995012,109445.468,109446.43999997061,109462.094,112562.123,,,,66
rating_sequence,flow.Sequence,2_4_2_1_5,2021-05-24T15:54:39.023Z,,,,,,,,,,,,,,,,,,,,,,,,,,,,,,,,,,,,,,,,,,,,,,,,,,,,,,,,,,,,,,,,,,,,,,,,,,,,,,,,,,,,,,,,,,,,,,,,,,,,,,,,,,,,,,,,,,,,3593.6139999501174,,completion,,,,healthy,,cherry.png,,,,,,,,,,,,,,,cherry,,,,,,,,,,,,,,,,,,,,,,,,,,,,,,,,,,,,,,,,,,,,,,,,,,,,,,,,,false,,,,,,,,,112556.6150000086,112555.68999995012,108945.415,108936.02000002284,108962.076,112562.123,,,,
fixCross,canvas.Screen,2_4_2_1_6_0,2021-05-24T15:54:39.513Z,,,,,,,,,,,,,,,,,,,,,,,,,,,,,,,,,,,,,,,,,,,,,,,,,,,,,,,,,,,,,,,,,,,,,,,,,,,,,,,,,,,,,,,,,,,,,,,,,,,,,,,,,,,,,,,,,,,,499.99899999999616,,timeout,,,,unhealthy,,marshmallow.png,,,,,,,,,,,,,,,marshmallow,,,,,,,,,,,,,,,,,,,,,,,,,,,,,,,,,,,,,,,,,,,,,,,,,,,,,,,,,false,,,,,,,,,113045.94999994151,113045.449,112545.449,112556.69999995735,112562.123,113062.122,,,,
Rating,html.Form,2_4_2_1_6_1,2021-05-24T15:54:42.975Z,,,,,,,,,,,,,,,,,,,,,,,,,,,,,,,,,,,,,,,,,,,,,,,,,,,,,,,,,,,,,,,,,,,,,,,,,,,,,,,,,,,,,,,,,,,,,,,,,,,,,,,,,,,,,,,,,,,,3445.6029999158054,,form submission,,,,unhealthy,,marshmallow.png,,,,,,,,,,,,,,,marshmallow,,,,,,,,,,,,,,,,,,,,,,,,,,,,,,,,,,,,,,,,,,,,,,,,,,,,,,,,,false,,,,,,,,,116507.87500001024,116507.72499991581,113045.449,113046.09499999788,113062.122,116528.835,,,,80
rating_sequence,flow.Sequence,2_4_2_1_6,2021-05-24T15:54:42.975Z,,,,,,,,,,,,,,,,,,,,,,,,,,,,,,,,,,,,,,,,,,,,,,,,,,,,,,,,,,,,,,,,,,,,,,,,,,,,,,,,,,,,,,,,,,,,,,,,,,,,,,,,,,,,,,,,,,,,3945.6019999158016,,completion,,,,unhealthy,,marshmallow.png,,,,,,,,,,,,,,,marshmallow,,,,,,,,,,,,,,,,,,,,,,,,,,,,,,,,,,,,,,,,,,,,,,,,,,,,,,,,,false,,,,,,,,,116507.99999991432,116507.72499991581,112545.449,112556.67499999981,112562.123,116528.835,,,,
fixCross,canvas.Screen,2_4_2_1_7_0,2021-05-24T15:54:43.480Z,,,,,,,,,,,,,,,,,,,,,,,,,,,,,,,,,,,,,,,,,,,,,,,,,,,,,,,,,,,,,,,,,,,,,,,,,,,,,,,,,,,,,,,,,,,,,,,,,,,,,,,,,,,,,,,,,,,,500.127999999997,,timeout,,,,healthy,,blueberry.png,,,,,,,,,,,,,,,blueberry,,,,,,,,,,,,,,,,,,,,,,,,,,,,,,,,,,,,,,,,,,,,,,,,,,,,,,,,,false,,,,,,,,,117013.41000001412,117012.216,116512.166,116508.0799999414,116528.835,117028.963,,,,
Rating,html.Form,2_4_2_1_7_1,2021-05-24T15:54:46.685Z,,,,,,,,,,,,,,,,,,,,,,,,,,,,,,,,,,,,,,,,,,,,,,,,,,,,,,,,,,,,,,,,,,,,,,,,,,,,,,,,,,,,,,,,,,,,,,,,,,,,,,,,,,,,,,,,,,,,3188.756999956895,,form submission,,,,healthy,,blueberry.png,,,,,,,,,,,,,,,blueberry,,,,,,,,,,,,,,,,,,,,,,,,,,,,,,,,,,,,,,,,,,,,,,,,,,,,,,,,,false,,,,,,,,,120217.86999993492,120217.7199999569,117012.216,117013.7799999211,117028.963,120228.858,,,,40
rating_sequence,flow.Sequence,2_4_2_1_7,2021-05-24T15:54:46.685Z,,,,,,,,,,,,,,,,,,,,,,,,,,,,,,,,,,,,,,,,,,,,,,,,,,,,,,,,,,,,,,,,,,,,,,,,,,,,,,,,,,,,,,,,,,,,,,,,,,,,,,,,,,,,,,,,,,,,3688.884999956892,,completion,,,,healthy,,blueberry.png,,,,,,,,,,,,,,,blueberry,,,,,,,,,,,,,,,,,,,,,,,,,,,,,,,,,,,,,,,,,,,,,,,,,,,,,,,,,false,,,,,,,,,120218.00499991514,120217.7199999569,116512.166,116508.05499998387,116528.835,120228.858,,,,
fixCross,canvas.Screen,2_4_2_1_8_0,2021-05-24T15:54:47.181Z,,,,,,,,,,,,,,,,,,,,,,,,,,,,,,,,,,,,,,,,,,,,,,,,,,,,,,,,,,,,,,,,,,,,,,,,,,,,,,,,,,,,,,,,,,,,,,,,,,,,,,,,,,,,,,,,,,,,500.02700000000186,,timeout,,,,healthy,,coconut.png,,,,,,,,,,,,,,,coconut,,,,,,,,,,,,,,,,,,,,,,,,,,,,,,,,,,,,,,,,,,,,,,,,,,,,,,,,,false,,,,,,,,,120713.46999995876,120712.257,120212.21,120218.08499994222,120228.858,120728.885,,,,
Rating,html.Form,2_4_2_1_8_1,2021-05-24T15:54:49.990Z,,,,,,,,,,,,,,,,,,,,,,,,,,,,,,,,,,,,,,,,,,,,,,,,,,,,,,,,,,,,,,,,,,,,,,,,,,,,,,,,,,,,,,,,,,,,,,,,,,,,,,,,,,,,,,,,,,,,2793.87499996346,,form submission,,,,healthy,,coconut.png,,,,,,,,,,,,,,,coconut,,,,,,,,,,,,,,,,,,,,,,,,,,,,,,,,,,,,,,,,,,,,,,,,,,,,,,,,,false,,,,,,,,,123522.92000001762,123522.75999996345,120712.257,120713.84999994189,120728.885,123528.884,,,,96
rating_sequence,flow.Sequence,2_4_2_1_8,2021-05-24T15:54:49.990Z,,,,,,,,,,,,,,,,,,,,,,,,,,,,,,,,,,,,,,,,,,,,,,,,,,,,,,,,,,,,,,,,,,,,,,,,,,,,,,,,,,,,,,,,,,,,,,,,,,,,,,,,,,,,,,,,,,,,3293.901999963462,,completion,,,,healthy,,coconut.png,,,,,,,,,,,,,,,coconut,,,,,,,,,,,,,,,,,,,,,,,,,,,,,,,,,,,,,,,,,,,,,,,,,,,,,,,,,false,,,,,,,,,123523.04999995977,123522.75999996345,120212.21,120218.05999998469,120228.858,123528.884,,,,
fixCross,canvas.Screen,2_4_2_1_9_0,2021-05-24T15:54:50.480Z,,,,,,,,,,,,,,,,,,,,,,,,,,,,,,,,,,,,,,,,,,,,,,,,,,,,,,,,,,,,,,,,,,,,,,,,,,,,,,,,,,,,,,,,,,,,,,,,,,,,,,,,,,,,,,,,,,,,500.01699999999255,,timeout,,,,healthy,,grape.png,,,,,,,,,,,,,,,grape,,,,,,,,,,,,,,,,,,,,,,,,,,,,,,,,,,,,,,,,,,,,,,,,,,,,,,,,,false,,,,,,,,,124012.89999997243,124012.247,123512.215,123523.12499994878,123528.884,124028.901,,,,
Rating,html.Form,2_4_2_1_9_1,2021-05-24T15:54:53.355Z,,,,,,,,,,,,,,,,,,,,,,,,,,,,,,,,,,,,,,,,,,,,,,,,,,,,,,,,,,,,,,,,,,,,,,,,,,,,,,,,,,,,,,,,,,,,,,,,,,,,,,,,,,,,,,,,,,,,2858.8439999563416,,form submission,,,,healthy,,grape.png,,,,,,,,,,,,,,,grape,,,,,,,,,,,,,,,,,,,,,,,,,,,,,,,,,,,,,,,,,,,,,,,,,,,,,,,,,false,,,,,,,,,126887.9050000105,126887.74499995634,124012.247,124013.01999995485,124028.901,126895.596,,,,89
rating_sequence,flow.Sequence,2_4_2_1_9,2021-05-24T15:54:53.355Z,,,,,,,,,,,,,,,,,,,,,,,,,,,,,,,,,,,,,,,,,,,,,,,,,,,,,,,,,,,,,,,,,,,,,,,,,,,,,,,,,,,,,,,,,,,,,,,,,,,,,,,,,,,,,,,,,,,,3358.860999956334,,completion,,,,healthy,,grape.png,,,,,,,,,,,,,,,grape,,,,,,,,,,,,,,,,,,,,,,,,,,,,,,,,,,,,,,,,,,,,,,,,,,,,,,,,,false,,,,,,,,,126888.03499995265,126887.74499995634,123512.215,123523.09999999125,123528.884,126895.596,,,,
fixCross,canvas.Screen,2_4_2_1_10_0,2021-05-24T15:54:53.847Z,,,,,,,,,,,,,,,,,,,,,,,,,,,,,,,,,,,,,,,,,,,,,,,,,,,,,,,,,,,,,,,,,,,,,,,,,,,,,,,,,,,,,,,,,,,,,,,,,,,,,,,,,,,,,,,,,,,,500.1140000000014,,timeout,,,,healthy,,apple.png,,,,,,,,,,,,,,,apple,,,,,,,,,,,,,,,,,,,,,,,,,,,,,,,,,,,,,,,,,,,,,,,,,,,,,,,,,false,,,,,,,,,127380.20000001416,127378.98,126878.971,126888.11499997973,126895.596,127395.71,,,,
Rating,html.Form,2_4_2_1_10_1,2021-05-24T15:54:56.641Z,,,,,,,,,,,,,,,,,,,,,,,,,,,,,,,,,,,,,,,,,,,,,,,,,,,,,,,,,,,,,,,,,,,,,,,,,,,,,,,,,,,,,,,,,,,,,,,,,,,,,,,,,,,,,,,,,,,,2778.0150000005524,,form submission,,,,healthy,,apple.png,,,,,,,,,,,,,,,apple,,,,,,,,,,,,,,,,,,,,,,,,,,,,,,,,,,,,,,,,,,,,,,,,,,,,,,,,,false,,,,,,,,,130173.88499993831,130173.72500000056,127378.98,127380.56999992114,127395.71,130178.943,,,,92
rating_sequence,flow.Sequence,2_4_2_1_10,2021-05-24T15:54:56.641Z,,,,,,,,,,,,,,,,,,,,,,,,,,,,,,,,,,,,,,,,,,,,,,,,,,,,,,,,,,,,,,,,,,,,,,,,,,,,,,,,,,,,,,,,,,,,,,,,,,,,,,,,,,,,,,,,,,,,3278.129000000554,,completion,,,,healthy,,apple.png,,,,,,,,,,,,,,,apple,,,,,,,,,,,,,,,,,,,,,,,,,,,,,,,,,,,,,,,,,,,,,,,,,,,,,,,,,false,,,,,,,,,130174.0099999588,130173.72500000056,126878.971,126888.0900000222,126895.596,130178.943,,,,
fixCross,canvas.Screen,2_4_2_1_11_0,2021-05-24T15:54:57.130Z,,,,,,,,,,,,,,,,,,,,,,,,,,,,,,,,,,,,,,,,,,,,,,,,,,,,,,,,,,,,,,,,,,,,,,,,,,,,,,,,,,,,,,,,,,,,,,,,,,,,,,,,,,,,,,,,,,,,500.01200000000244,,timeout,,,,healthy,,strawberry.png,,,,,,,,,,,,,,,strawberry,,,,,,,,,,,,,,,,,,,,,,,,,,,,,,,,,,,,,,,,,,,,,,,,,,,,,,,,,false,,,,,,,,,130662.84999996424,130662.29,130162.305,130174.08499994781,130178.943,130678.955,,,,
Rating,html.Form,2_4_2_1_11_1,2021-05-24T15:55:00.471Z,,,,,,,,,,,,,,,,,,,,,,,,,,,,,,,,,,,,,,,,,,,,,,,,,,,,,,,,,,,,,,,,,,,,,,,,,,,,,,,,,,,,,,,,,,,,,,,,,,,,,,,,,,,,,,,,,,,,3324.9499999322725,,form submission,,,,healthy,,strawberry.png,,,,,,,,,,,,,,,strawberry,,,,,,,,,,,,,,,,,,,,,,,,,,,,,,,,,,,,,,,,,,,,,,,,,,,,,,,,,false,,,,,,,,,134004.10000002012,134003.90499993227,130662.29,130662.98999998253,130678.955,134012.322,,,,91
rating_sequence,flow.Sequence,2_4_2_1_11,2021-05-24T15:55:00.471Z,,,,,,,,,,,,,,,,,,,,,,,,,,,,,,,,,,,,,,,,,,,,,,,,,,,,,,,,,,,,,,,,,,,,,,,,,,,,,,,,,,,,,,,,,,,,,,,,,,,,,,,,,,,,,,,,,,,,3824.961999932275,,completion,,,,healthy,,strawberry.png,,,,,,,,,,,,,,,strawberry,,,,,,,,,,,,,,,,,,,,,,,,,,,,,,,,,,,,,,,,,,,,,,,,,,,,,,,,,false,,,,,,,,,134004.28999995347,134003.90499993227,130162.305,130174.05999999028,130178.943,134012.322,,,,
fixCross,canvas.Screen,2_4_2_1_12_0,2021-05-24T15:55:00.963Z,,,,,,,,,,,,,,,,,,,,,,,,,,,,,,,,,,,,,,,,,,,,,,,,,,,,,,,,,,,,,,,,,,,,,,,,,,,,,,,,,,,,,,,,,,,,,,,,,,,,,,,,,,,,,,,,,,,,500.00900000002,,timeout,,,,unhealthy,,chocolate_truffle.png,,,,,,,,,,,,,,,chocolate truffle,,,,,,,,,,,,,,,,,,,,,,,,,,,,,,,,,,,,,,,,,,,,,,,,,,,,,,,,,false,,,,,,,,,134496.0799999535,134495.67,133995.75,134004.41499997396,134012.322,134512.331,,,,
Rating,html.Form,2_4_2_1_12_1,2021-05-24T15:55:03.477Z,,,,,,,,,,,,,,,,,,,,,,,,,,,,,,,,,,,,,,,,,,,,,,,,,,,,,,,,,,,,,,,,,,,,,,,,,,,,,,,,,,,,,,,,,,,,,,,,,,,,,,,,,,,,,,,,,,,,2497.5139999932144,,form submission,,,,unhealthy,,chocolate_truffle.png,,,,,,,,,,,,,,,chocolate truffle,,,,,,,,,,,,,,,,,,,,,,,,,,,,,,,,,,,,,,,,,,,,,,,,,,,,,,,,,false,,,,,,,,,137009.99499997124,137009.84499999322,134495.67,134496.16500001866,134512.331,137012.339,,,,94
rating_sequence,flow.Sequence,2_4_2_1_12,2021-05-24T15:55:03.477Z,,,,,,,,,,,,,,,,,,,,,,,,,,,,,,,,,,,,,,,,,,,,,,,,,,,,,,,,,,,,,,,,,,,,,,,,,,,,,,,,,,,,,,,,,,,,,,,,,,,,,,,,,,,,,,,,,,,,2997.5229999932344,,completion,,,,unhealthy,,chocolate_truffle.png,,,,,,,,,,,,,,,chocolate truffle,,,,,,,,,,,,,,,,,,,,,,,,,,,,,,,,,,,,,,,,,,,,,,,,,,,,,,,,,false,,,,,,,,,137010.11499995366,137009.84499999322,133995.75,134004.36999998055,134012.322,137012.339,,,,
fixCross,canvas.Screen,2_4_2_1_13_0,2021-05-24T15:55:03.963Z,,,,,,,,,,,,,,,,,,,,,,,,,,,,,,,,,,,,,,,,,,,,,,,,,,,,,,,,,,,,,,,,,,,,,,,,,,,,,,,,,,,,,,,,,,,,,,,,,,,,,,,,,,,,,,,,,,,,500.0109999999986,,timeout,,,,healthy,,raspberry.png,,,,,,,,,,,,,,,raspberry,,,,,,,,,,,,,,,,,,,,,,,,,,,,,,,,,,,,,,,,,,,,,,,,,,,,,,,,,false,,,,,,,,,137496.05999991763,137495.688,136995.736,137010.19499998074,137012.339,137512.35,,,,
Rating,html.Form,2_4_2_1_13_1,2021-05-24T15:55:06.539Z,,,,,,,,,,,,,,,,,,,,,,,,,,,,,,,,,,,,,,,,,,,,,,,,,,,,,,,,,,,,,,,,,,,,,,,,,,,,,,,,,,,,,,,,,,,,,,,,,,,,,,,,,,,,,,,,,,,,2559.389999926643,,form submission,,,,healthy,,raspberry.png,,,,,,,,,,,,,,,raspberry,,,,,,,,,,,,,,,,,,,,,,,,,,,,,,,,,,,,,,,,,,,,,,,,,,,,,,,,,false,,,,,,,,,140071.87500002328,140071.73999992665,137495.688,137496.15000002086,137512.35,140079.042,,,,71
rating_sequence,flow.Sequence,2_4_2_1_13,2021-05-24T15:55:06.539Z,,,,,,,,,,,,,,,,,,,,,,,,,,,,,,,,,,,,,,,,,,,,,,,,,,,,,,,,,,,,,,,,,,,,,,,,,,,,,,,,,,,,,,,,,,,,,,,,,,,,,,,,,,,,,,,,,,,,3059.400999926642,,completion,,,,healthy,,raspberry.png,,,,,,,,,,,,,,,raspberry,,,,,,,,,,,,,,,,,,,,,,,,,,,,,,,,,,,,,,,,,,,,,,,,,,,,,,,,,false,,,,,,,,,140071.98999996763,140071.73999992665,136995.736,137010.1700000232,137012.339,140079.042,,,,
fixCross,canvas.Screen,2_4_2_1_14_0,2021-05-24T15:55:07.030Z,,,,,,,,,,,,,,,,,,,,,,,,,,,,,,,,,,,,,,,,,,,,,,,,,,,,,,,,,,,,,,,,,,,,,,,,,,,,,,,,,,,,,,,,,,,,,,,,,,,,,,,,,,,,,,,,,,,,500.0230000000156,,timeout,,,,unhealthy,,maltesers.png,,,,,,,,,,,,,,,malteser,,,,,,,,,,,,,,,,,,,,,,,,,,,,,,,,,,,,,,,,,,,,,,,,,,,,,,,,,false,,,,,,,,,140562.87999998312,140562.417,140062.408,140072.06499995664,140079.042,140579.065,,,,
Rating,html.Form,2_4_2_1_14_1,2021-05-24T15:55:10.995Z,,,,,,,,,,,,,,,,,,,,,,,,,,,,,,,,,,,,,,,,,,,,,,,,,,,,,,,,,,,,,,,,,,,,,,,,,,,,,,,,,,,,,,,,,,,,,,,,,,,,,,,,,,,,,,,,,,,,3948.7249999637133,,form submission,,,,unhealthy,,maltesers.png,,,,,,,,,,,,,,,malteser,,,,,,,,,,,,,,,,,,,,,,,,,,,,,,,,,,,,,,,,,,,,,,,,,,,,,,,,,false,,,,,,,,,144527.93999994174,144527.78999996372,140562.417,140562.97999992967,140579.065,144529.11,,,,86
rating_sequence,flow.Sequence,2_4_2_1_14,2021-05-24T15:55:10.995Z,,,,,,,,,,,,,,,,,,,,,,,,,,,,,,,,,,,,,,,,,,,,,,,,,,,,,,,,,,,,,,,,,,,,,,,,,,,,,,,,,,,,,,,,,,,,,,,,,,,,,,,,,,,,,,,,,,,,4448.747999963729,,completion,,,,unhealthy,,maltesers.png,,,,,,,,,,,,,,,malteser,,,,,,,,,,,,,,,,,,,,,,,,,,,,,,,,,,,,,,,,,,,,,,,,,,,,,,,,,false,,,,,,,,,144528.0700000003,144527.78999996372,140062.408,140072.0399999991,140079.042,144529.11,,,,
fixCross,canvas.Screen,2_4_2_1_15_0,2021-05-24T15:55:11.481Z,,,,,,,,,,,,,,,,,,,,,,,,,,,,,,,,,,,,,,,,,,,,,,,,,,,,,,,,,,,,,,,,,,,,,,,,,,,,,,,,,,,,,,,,,,,,,,,,,,,,,,,,,,,,,,,,,,,,500.09600000001956,,timeout,,,,unhealthy,,gummybear.png,,,,,,,,,,,,,,,gummybear,,,,,,,,,,,,,,,,,,,,,,,,,,,,,,,,,,,,,,,,,,,,,,,,,,,,,,,,,false,,,,,,,,,145013.66499997675,145012.485,144512.415,144528.1449999893,144529.11,145029.206,,,,
Rating,html.Form,2_4_2_1_15_1,2021-05-24T15:55:14.064Z,,,,,,,,,,,,,,,,,,,,,,,,,,,,,,,,,,,,,,,,,,,,,,,,,,,,,,,,,,,,,,,,,,,,,,,,,,,,,,,,,,,,,,,,,,,,,,,,,,,,,,,,,,,,,,,,,,,,2567.7090000018943,,form submission,,,,unhealthy,,gummybear.png,,,,,,,,,,,,,,,gummybear,,,,,,,,,,,,,,,,,,,,,,,,,,,,,,,,,,,,,,,,,,,,,,,,,,,,,,,,,false,,,,,,,,,147597.08999993745,147596.9150000019,145012.485,145014.024999924,145029.206,147612.44,,,,93
rating_sequence,flow.Sequence,2_4_2_1_15,2021-05-24T15:55:14.064Z,,,,,,,,,,,,,,,,,,,,,,,,,,,,,,,,,,,,,,,,,,,,,,,,,,,,,,,,,,,,,,,,,,,,,,,,,,,,,,,,,,,,,,,,,,,,,,,,,,,,,,,,,,,,,,,,,,,,3067.805000001914,,completion,,,,unhealthy,,gummybear.png,,,,,,,,,,,,,,,gummybear,,,,,,,,,,,,,,,,,,,,,,,,,,,,,,,,,,,,,,,,,,,,,,,,,,,,,,,,,false,,,,,,,,,147597.22499991767,147596.9150000019,144512.415,144528.11999991536,144529.11,147612.44,,,,
fixCross,canvas.Screen,2_4_2_1_16_0,2021-05-24T15:55:14.564Z,,,,,,,,,,,,,,,,,,,,,,,,,,,,,,,,,,,,,,,,,,,,,,,,,,,,,,,,,,,,,,,,,,,,,,,,,,,,,,,,,,,,,,,,,,,,,,,,,,,,,,,,,,,,,,,,,,,,500.04199999998673,,timeout,,,,healthy,,orange.png,,,,,,,,,,,,,,,orange,,,,,,,,,,,,,,,,,,,,,,,,,,,,,,,,,,,,,,,,,,,,,,,,,,,,,,,,,false,,,,,,,,,148096.4849999873,148095.811,147595.891,147597.3150000209,147612.44,148112.482,,,,
Rating,html.Form,2_4_2_1_16_1,2021-05-24T15:55:17.023Z,,,,,,,,,,,,,,,,,,,,,,,,,,,,,,,,,,,,,,,,,,,,,,,,,,,,,,,,,,,,,,,,,,,,,,,,,,,,,,,,,,,,,,,,,,,,,,,,,,,,,,,,,,,,,,,,,,,,2443.342999930348,,form submission,,,,healthy,,orange.png,,,,,,,,,,,,,,,orange,,,,,,,,,,,,,,,,,,,,,,,,,,,,,,,,,,,,,,,,,,,,,,,,,,,,,,,,,false,,,,,,,,,150555.9849999845,150555.82499993034,148095.811,148096.64499992505,148112.482,150562.496,,,,95
rating_sequence,flow.Sequence,2_4_2_1_16,2021-05-24T15:55:17.023Z,,,,,,,,,,,,,,,,,,,,,,,,,,,,,,,,,,,,,,,,,,,,,,,,,,,,,,,,,,,,,,,,,,,,,,,,,,,,,,,,,,,,,,,,,,,,,,,,,,,,,,,,,,,,,,,,,,,,2943.3849999303347,,completion,,,,healthy,,orange.png,,,,,,,,,,,,,,,orange,,,,,,,,,,,,,,,,,,,,,,,,,,,,,,,,,,,,,,,,,,,,,,,,,,,,,,,,,false,,,,,,,,,150556.11999996472,150555.82499993034,147595.891,147597.27999998722,147612.44,150562.496,,,,
fixCross,canvas.Screen,2_4_2_1_17_0,2021-05-24T15:55:17.514Z,,,,,,,,,,,,,,,,,,,,,,,,,,,,,,,,,,,,,,,,,,,,,,,,,,,,,,,,,,,,,,,,,,,,,,,,,,,,,,,,,,,,,,,,,,,,,,,,,,,,,,,,,,,,,,,,,,,,500.0929999999935,,timeout,,,,unhealthy,,chocolate.png,,,,,,,,,,,,,,,chocolate,,,,,,,,,,,,,,,,,,,,,,,,,,,,,,,,,,,,,,,,,,,,,,,,,,,,,,,,,false,,,,,,,,,151046.800000011,151045.87,150545.826,150556.20499991346,150562.496,151062.589,,,,
Rating,html.Form,2_4_2_1_17_1,2021-05-24T15:55:20.735Z,,,,,,,,,,,,,,,,,,,,,,,,,,,,,,,,,,,,,,,,,,,,,,,,,,,,,,,,,,,,,,,,,,,,,,,,,,,,,,,,,,,,,,,,,,,,,,,,,,,,,,,,,,,,,,,,,,,,3205.1509999229165,,form submission,,,,unhealthy,,chocolate.png,,,,,,,,,,,,,,,chocolate,,,,,,,,,,,,,,,,,,,,,,,,,,,,,,,,,,,,,,,,,,,,,,,,,,,,,,,,,false,,,,,,,,,154267.89000001736,154267.73999992292,151045.87,151047.15999995824,151062.589,154279.202,,,,82
rating_sequence,flow.Sequence,2_4_2_1_17,2021-05-24T15:55:20.735Z,,,,,,,,,,,,,,,,,,,,,,,,,,,,,,,,,,,,,,,,,,,,,,,,,,,,,,,,,,,,,,,,,,,,,,,,,,,,,,,,,,,,,,,,,,,,,,,,,,,,,,,,,,,,,,,,,,,,3705.24399992291,,completion,,,,unhealthy,,chocolate.png,,,,,,,,,,,,,,,chocolate,,,,,,,,,,,,,,,,,,,,,,,,,,,,,,,,,,,,,,,,,,,,,,,,,,,,,,,,,false,,,,,,,,,154268.01499992143,154267.73999992292,150545.826,150556.17499991786,150562.496,154279.202,,,,
rating_loop,flow.Loop,2_4_2_1,2021-05-24T15:55:20.735Z,,,,,,,,,,,,,,,,,,,,,,,,,,,,,,,,,,,,,,,,,,,,,,,,,,,,,,,,,,,,,,,,,,,,,,,,,,,,,,,,,,,,,,,,,,,,,,,,,,,,,,,,,,,,,,,,,,,,71255.85599992292,,completion,,,,,,,,,,,,,,,,,,,,,,,,,,,,,,,,,,,,,,,,,,,,,,,,,,,,,,,,,,,,,,,,,,,,,,,,,,,,,,false,,,,,,,,,154268.1149999844,154267.73999992292,82995.27,82986.99499992654,83011.884,154279.202,,,,
data_transmission,html.Screen,2_4_2_2,2021-05-24T15:55:20.742Z,,,,,,,,,,,,,,,,,,,,,,,,,,,,,,,,,,,,,,,,,,,,,,,,,,,,,,,,,,,,,,,,,,,,,,,,,,,,,,,,,,,,,,,,,,,,,,,,,,,,,,,,,,,,,,,,,,,,NaN,,no compatible backend,,,,,,,,,,,,,,,Transferring data,,,,,,,,,,,,,,,,,,,,,,,,,,,,,,,,,,,,,,,,,,,,,,,,,,,,,,,,,,,,,,,false,,,Please wait a second…,,,,,,154274.5649999706,154274.31499992963,,154268.1749999756,,154279.202,,,,
instructions,html.Screen,2_4_2_3,2021-05-24T15:56:14.284Z,,,,,,,,,,,,,,,,,,,,,,,,,,,,,,,,,,,,,,,,,,,,,,,,,,,,,,,,,,,,,,,,,,,,,,,,,,,,,,,,,,,,,,,,,,,,,,,,,,,,,,,,,,,,,,,,,,,,53536.63799993746,,done,,,,,,,,,,,,,,,,,,,,,,,,,,,,,,,,,,,,,,,,,,,,,,,,,,,,,,,,,,,,,,,,,,,,,,,,,,,,,,false,,,,,,,,,207816.35999993887,207815.83999993745,154262.516,154274.69499991275,154279.202,207829.771,,,,
Q1,html.Screen,2_4_2_4_0,2021-05-24T15:56:22.185Z,,,,,,,,,,,,,,,,,,,,,,,,,,,,,,,,,,,,,,,,,,,,,,,,,,,,,,,,,,,,,,,,,,,,,,,,,,,,,,,,,,,,,,,,,,,,,,,,,,,,,,,,,,,,,,,,false,input_Q1==3,,,7886.608999998018,,response,,,,,,,,,,,,,,,,,,,,,,,,,Q1_i4,Q1_i3,Q1_i1,Q1_i2,4,3,1,2,false,correct,false,false,,,,,,,,,,,,,,,,,,,,,,,,,,,,,,,,,,,,,,,,,click #Q1_i3,false,,,,,,,,,215717.8249999415,215716.37999999803,207812.808,207816.80999998935,207829.771,215729.751,,,,
Q1_correct,html.Screen,2_4_2_4_1,2021-05-24T15:56:24.481Z,,,,,,,,,,,,,,,,,,,,,,,,,,,,,,,,,,,,,,,,,,,,,,,,,,,,,,,,,,,,,,,,,,,,,,,,,,,,,,,,,,,,,,,,,,,,,,,,,,,,,,,,,,,,,,,,,,,,2283.749000000942,,response,,,,,,,,,,,,,,,,,,,,,,,,,,,,,,,,,,,,,,,,,,,,,,,,,,,,,,,,,,,,,,,,,,,,,,,,,,,,,keypress,false,,,,,,,,,218013.84999998845,218013.50000000093,215713.148,215717.9349999642,215729.751,218029.783,,,,
Q2,html.Screen,2_4_2_4_2,2021-05-24T15:56:29.104Z,,,,,,,,,,,,,,,,,,,,,,,,,,,,,,,,,,,,,,,,,,,,,,,,,,,,,,,,,,,,,,,,,,,,,,,,,,,,,,,,,,,,,,,,,,,,,,,,,,,,,,,,,,,,,,,,,,,,4606.55699996819,,response,,,,,,,,,,,,,,,,,,,,,,,,,,,,,,,,,,,,,Q2_i3,Q2_i2,Q2_i1,Same amount,Option 2,Option 1,same,opt2,correct,,,,,,,,,,,,,,,,,,,,,,,,,,,,,,,,click #Q2_i1,false,,,,,,,,,222636.82000001427,222636.3399999682,218013.005,218013.93000001553,218029.783,222646.492,,,,
Q2_correct,html.Screen,2_4_2_4_3,2021-05-24T15:56:30.009Z,,,,,,,,,,,,,,,,,,,,,,,,,,,,,,,,,,,,,,,,,,,,,,,,,,,,,,,,,,,,,,,,,,,,,,,,,,,,,,,,,,,,,,,,,,,,,,,,,,,,,,,,,,,,,,,,,,,,893.8679999845044,,response,,,,,,,,,,,,,,,,,,,,,,,,,,,,,,,,,,,,,,,,,,,,,,,,,,,,,,,,,,,,,,,,,,,,,,,,,,,,,keypress,false,,,,,,,,,223541.36999999173,223540.3599999845,222629.821,222636.9349999586,222646.492,223546.659,,,,
Q4,html.Screen,2_4_2_4_4,2021-05-24T15:56:41.494Z,,,,,,,,,,,,,,,,,,,,,,,,,,,,,,,,,,,,,,,,,,,,,,,,,,,,,,,,,,,,,,,,,,,,,,,,,,,,,,,,,,,,,,,,,,,,,,,,,,,,,,,,,,,,,,,,,,,,11479.725999975548,,response,,,,,,,,,,,,,,,,,,,,,,,,,,,,,,,,,,,,,,,,,,,,,,Q4_i2,Q4_i1,Q4_i4,Q4_i3,Indicate the number of food items in each snack option,Press the arrow key that corresponds with the snack option I prefer,Press the space key,Press the arrow key that corresponds with the snack option with more food items,indicate,correct,pressspace,morefood,,,,,,,,,,,,,,,,,,,,click #Q4_i1,false,,,,,,,,,235026.89500001725,235026.38499997556,223529.923,223541.69999994338,223546.659,235029.941,,,,
Q4_correct,html.Screen,2_4_2_4_5,2021-05-24T15:56:42.837Z,,,,,,,,,,,,,,,,,,,,,,,,,,,,,,,,,,,,,,,,,,,,,,,,,,,,,,,,,,,,,,,,,,,,,,,,,,,,,,,,,,,,,,,,,,,,,,,,,,,,,,,,,,,,,,,,,,,,1338.8390000188956,,response,,,,,,,,,,,,,,,,,,,,,,,,,,,,,,,,,,,,,,,,,,,,,,,,,,,,,,,,,,,,,,,,,,,,,,,,,,,,,keypress,false,,,,,,,,,236369.39499992877,236368.7800000189,235013.326,235027.00499992352,235029.941,236379.986,,,,
Q5,html.Screen,2_4_2_4_6,2021-05-24T15:56:51.190Z,,,,,,,,,,,,,,,,,,,,,,,,,,,,,,,,,,,,,,,,,,,,,,,,,,,,,,,,,,,,,,,,,,,,,,,,,,,,,,,,,,,,,,,,,,,,,,,,,,,,,,,,,,,,,,,,,,,,8342.408999931562,,response,,,,,,,,,,,,,,,,,,,,,,,,,,,,,,,,,,,,,,,,,,,,,,,,,,,,,,,,,,Q5_i3,Q5_i4,Q5_i1,Q5_i2,There are more slices of kiwi in snack Option 1,Snack Option 1 has been chosen,Snack Option 2 has been chosen,There are more pieces of chocolate in snack Option 2,morekiwi1,chose1,correct,morechoc2,,,,,,,,click #Q5_i1,false,,,,,,,,,244722.91000001132,244722.39499993157,236363.301,236369.52499998733,236379.986,244730.028,,,,
Q5_correct,html.Screen,2_4_2_4_7,2021-05-24T15:56:52.273Z,,,,,,,,,,,,,,,,,,,,,,,,,,,,,,,,,,,,,,,,,,,,,,,,,,,,,,,,,,,,,,,,,,,,,,,,,,,,,,,,,,,,,,,,,,,,,,,,,,,,,,,,,,,,,,,,,,,,1075.6870000240742,,response,,,,,,,,,,,,,,,,,,,,,,,,,,,,,,,,,,,,,,,,,,,,,,,,,,,,,,,,,,,,,,,,,,,,,,,,,,,,,keypress,false,,,,,,,,,245806.08499993104,245805.71500002407,244713.361,244723.01499999594,244730.028,245813.378,,,,
practice_sequence,flow.Sequence,2_4_2_4,2021-05-24T15:56:52.274Z,,,,,,,,,,,,,,,,,,,,,,,,,,,,,,,,,,,,,,,,,,,,,,,,,,,,,,,,,,,,,,,,,,,,,,,,,,,,,,,,,,,,,,,,,,,,,,,,,,,,,,,,,,,,,,,,,,,,37975.94400002406,,completion,,,,,,,,,,,,,,,,,,,,,,,,,,,,,,,,,,,,,,,,,,,,,,,,,,,,,,,,,,,,,,,,,,,,,,,,,,,,,,false,,,,,,,,,245806.20499991346,245805.71500002407,207812.808,207816.69999996666,207829.771,245813.378,,,,
final_instru,html.Screen,2_4_2_5,2021-05-24T15:57:12.572Z,,,,,,,,,,,,,,,,,,,,,,,,,,,,,,,,,,,,,,,,,,,,,,,,,,,,,,,,,,,,,,,,,,,,,,,,,,,,,,,,,,,,,,,,,,,,,,,,,,,,,,,,,,,,,,,,,,,,20290.81700002172,,done,,,,,,,,,,,,,,,,,,,,,,,,,,,,,,,,,,,,,,,,,,,,,,,,,,,,,,,,,,,,,,,,,,,,,,,,,,,,,,false,,,,,,,,,266104.3649999192,266104.1950000217,245796.715,245806.25499994494,245813.378,266113.573,,,,
blank_screen,canvas.Screen,2_4_2_6_0,2021-05-24T15:57:14.565Z,,,,,,,,,,,,,,,,,,,,,,,,,,,,,,,,,,,,,,,,,,,,,,,,,,,,,,,,,,,,,,,,,,,,,,,,,,,,,,,,,,,,,,,,,,,,,,,,,,,,,,,,,,,,,,,,,,,,2000.0270000000019,,timeout,,,,,,,,,,,,,,,,,,,,,,,,,,,,,,,,,,,,,,,,,,,,,,,,,,,,,,,,,,,,,,,,,,,,,,,,,,,,,,false,,,,,,,,,268097.3450000165,268096.914,266096.441,266104.49499997776,266113.573,268113.6,,,,
fixCross,canvas.Screen,2_4_2_6_1_0_0_0_0_0_0,2021-05-24T15:57:14.916Z,,,blank.png,"[""chocolate_truffle.png""]",blank.png,blank.png,blank.png,blank.png,blank.png,blank.png,blank.png,blank.png,blank.png,blank.png,blank.png,,,,,,,,,,,,,,,,,,,,,,,,,,,,,"[""chocolate_truffle.png""]","[""coconut.png""]",PB01.png,,,,,,,,,,,0,6,"[""coconut.png""]","[""coconut.png""]","[""coconut.png""]","[""coconut.png""]","[""coconut.png""]","[""coconut.png""]",blank.png,PB18.png,PB18.png,blank.png,blank.png,blank.png,blank.png,blank.png,blank.png,"[""coconut.png""]","[""coconut.png""]","[""coconut.png""]","[""coconut.png""]","[""coconut.png""]","[""coconut.png""]",1,"[""chocolate_truffle.png""]",blank.png,blank.png,blank.png,0,blank.png,blank.png,blank.png,blank.png,blank.png,blank.png,PB01.png,,,,,,,,,,,1,,,,,,,,,,,,,683.3180000000284,,timeout,,,,,,,,,,,,,3,,,,,,,,,,,,,,,,,,,,,,,,,,,,,,,,,,,,,,,,,,,,,,,,,,,,,,,,,"[""coconut.png""]","[""chocolate_truffle.png""]",,,,3,,,false,,1,,,,,,,268448.34000000264,268446.991,268096.914,268112.43999993894,268113.6,268796.918,1,,,
timeout,canvas.Screen,2_4_2_6_1_0_0_0_0_0_1,2021-05-24T15:57:15.749Z,,,blank.png,"[""chocolate_truffle.png""]",blank.png,blank.png,blank.png,blank.png,blank.png,blank.png,blank.png,blank.png,blank.png,blank.png,blank.png,,,,,,,,,,,,,,,,,,,,,,,,,,,,,"[""chocolate_truffle.png""]","[""coconut.png""]",PB01.png,,,,,,,,,,,0,6,"[""coconut.png""]","[""coconut.png""]","[""coconut.png""]","[""coconut.png""]","[""coconut.png""]","[""coconut.png""]",blank.png,PB18.png,PB18.png,blank.png,blank.png,blank.png,blank.png,blank.png,blank.png,"[""coconut.png""]","[""coconut.png""]","[""coconut.png""]","[""coconut.png""]","[""coconut.png""]","[""coconut.png""]",1,"[""chocolate_truffle.png""]",blank.png,blank.png,blank.png,0,blank.png,blank.png,blank.png,blank.png,blank.png,blank.png,PB01.png,,,,,,,,,,,1,,,,,,,,,,,,,883.375,,timeout,,,,,,,,,,,,,3,,,,,,,,,,,,,,,,,,,,,,,,,,,,,,,,,,,,,,,,,,,,,,,,,,,,,,,,,"[""coconut.png""]","[""chocolate_truffle.png""]",,,,3,,,false,,1,,,,,,,269281.53499995824,269280.317,268446.991,268882.6999999583,268796.918,269680.293,,,,
choice,canvas.Screen,2_4_2_6_1_0_0_0_0_0_2,2021-05-24T15:57:17.791Z,,,blank.png,"[""chocolate_truffle.png""]",blank.png,blank.png,blank.png,blank.png,blank.png,blank.png,blank.png,blank.png,blank.png,blank.png,blank.png,,,,,,,,,,,,,,,,,,,,,,,,,,,,,"[""chocolate_truffle.png""]","[""coconut.png""]",PB01.png,,,,,,,,,,,0,6,"[""coconut.png""]","[""coconut.png""]","[""coconut.png""]","[""coconut.png""]","[""coconut.png""]","[""coconut.png""]",blank.png,PB18.png,PB18.png,blank.png,blank.png,blank.png,blank.png,blank.png,blank.png,"[""coconut.png""]","[""coconut.png""]","[""coconut.png""]","[""coconut.png""]","[""coconut.png""]","[""coconut.png""]",1,"[""chocolate_truffle.png""]",blank.png,blank.png,blank.png,0,blank.png,blank.png,blank.png,blank.png,blank.png,blank.png,PB01.png,,,,,,,,,,,1,,,,,,,,,,,,,1640.9719999186345,,response,,,,,,,,,,,,,3,,,,,,,,,,,,,,,,,,,,,,,,,,,,,,,,,,,,,,,,,,,,,,,,,,,,,,,,,"[""coconut.png""]","[""chocolate_truffle.png""]",,,,3,right,keydown(ArrowRight),false,,1,,,,,,,271323.3349999646,271321.26499991864,269280.317,269690.3600000078,269680.293,271546.971,,1,,
square,canvas.Screen,2_4_2_6_1_0_0_0_0_0_3,2021-05-24T15:57:18.998Z,,,blank.png,"[""chocolate_truffle.png""]",blank.png,blank.png,blank.png,blank.png,blank.png,blank.png,blank.png,blank.png,blank.png,blank.png,blank.png,,,,,,,,,,,,,,,,,,,,,,,,,,,,,"[""chocolate_truffle.png""]","[""coconut.png""]",PB01.png,,,,,,,,,,,0,6,"[""coconut.png""]","[""coconut.png""]","[""coconut.png""]","[""coconut.png""]","[""coconut.png""]","[""coconut.png""]",blank.png,PB18.png,PB18.png,blank.png,blank.png,blank.png,blank.png,blank.png,blank.png,"[""coconut.png""]","[""coconut.png""]","[""coconut.png""]","[""coconut.png""]","[""coconut.png""]","[""coconut.png""]",1,"[""chocolate_truffle.png""]",blank.png,blank.png,blank.png,0,blank.png,blank.png,blank.png,blank.png,blank.png,blank.png,PB01.png,,,,,,,,,,,1,,,#808080,#33ff3f,,,,,,,,,1000.0119999999879,,timeout,,,,,,,,,,,,,3,,,,,,,,,,,,,,,,,,,,,,,,,,,,,,,,,,,,,,,,,,,,,,,,,,,,,,,,,"[""coconut.png""]","[""chocolate_truffle.png""]",,,,3,,,false,,1,,,,,white,black,272530.9600000037,272530.314,271530.212,271541.94999998435,271546.971,272546.983,,,,
ITI_late,canvas.Screen,2_4_2_6_1_0_0_0_0_0_4,2021-05-24T15:57:19.499Z,,,blank.png,"[""chocolate_truffle.png""]",blank.png,blank.png,blank.png,blank.png,blank.png,blank.png,blank.png,blank.png,blank.png,blank.png,blank.png,,,,,,,,,,,,,,,,,,,,,,,,,,,,,"[""chocolate_truffle.png""]","[""coconut.png""]",PB01.png,,,,,,,,,,,0,6,"[""coconut.png""]","[""coconut.png""]","[""coconut.png""]","[""coconut.png""]","[""coconut.png""]","[""coconut.png""]",blank.png,PB18.png,PB18.png,blank.png,blank.png,blank.png,blank.png,blank.png,blank.png,"[""coconut.png""]","[""coconut.png""]","[""coconut.png""]","[""coconut.png""]","[""coconut.png""]","[""coconut.png""]",1,"[""chocolate_truffle.png""]",blank.png,blank.png,blank.png,0,blank.png,blank.png,blank.png,blank.png,blank.png,blank.png,PB01.png,,,,,,,,,,,1,,,,,,,,,,,,,500.1149999999907,,timeout,,,,,,,,,,,,white,3,,,,,,,,,,,,,,,,,,,,,,,,,,,,,,,,,,,,,,,,,,,,,,,,,,,,,,,,,"[""coconut.png""]","[""chocolate_truffle.png""]",,,,3,,,false,,1,,,,,,,273031.4599999692,273030.35,272530.314,272533.27000001445,272546.983,273047.098,,,,
choice_sequence,flow.Sequence,2_4_2_6_1_0_0_0_0_0,2021-05-24T15:57:19.500Z,,,blank.png,"[""chocolate_truffle.png""]",blank.png,blank.png,blank.png,blank.png,blank.png,blank.png,blank.png,blank.png,blank.png,blank.png,blank.png,,,,,,,,,,,,,,,,,,,,,,,,,,,,,"[""chocolate_truffle.png""]","[""coconut.png""]",PB01.png,,,,,,,,,,,0,6,"[""coconut.png""]","[""coconut.png""]","[""coconut.png""]","[""coconut.png""]","[""coconut.png""]","[""coconut.png""]",blank.png,PB18.png,PB18.png,blank.png,blank.png,blank.png,blank.png,blank.png,blank.png,"[""coconut.png""]","[""coconut.png""]","[""coconut.png""]","[""coconut.png""]","[""coconut.png""]","[""coconut.png""]",1,"[""chocolate_truffle.png""]",blank.png,blank.png,blank.png,0,blank.png,blank.png,blank.png,blank.png,blank.png,blank.png,PB01.png,,,,,,,,,,,1,,,,,,,,,,,,,4916.75,,completion,,,,,,,,,,,,,3,,,,,,,,,,,,,,,,,,,,,,,,,,,,,,,,,,,,,,,,,,,,,,,,,,,,,,,,,"[""coconut.png""]","[""chocolate_truffle.png""]",,,,3,,,false,,1,,,,,,,273032.8349999618,273030.35,268096.914,268111.56999995,268113.6,273047.098,,,,
fixCross,canvas.Screen,2_4_2_6_1_0_0_0_0_1_0,2021-05-24T15:57:19.949Z,,,blank.png,blank.png,blank.png,blank.png,blank.png,blank.png,blank.png,"[""chocolate_truffle.png""]",blank.png,blank.png,blank.png,blank.png,blank.png,,,,,,,,,,,,,,,,,,,,,,,,,,,,,"[""chocolate_truffle.png""]","[""coconut.png""]",PB18.png,,,,,,,,,,,0,6,"[""coconut.png""]","[""coconut.png""]","[""coconut.png""]","[""coconut.png""]","[""coconut.png""]","[""coconut.png""]",blank.png,PB18.png,PB14.png,"[""coconut.png""]","[""coconut.png""]","[""coconut.png""]","[""coconut.png""]","[""coconut.png""]","[""coconut.png""]","[""coconut.png""]","[""coconut.png""]","[""coconut.png""]",blank.png,blank.png,blank.png,1,"[""chocolate_truffle.png""]",blank.png,blank.png,blank.png,3,"[""coconut.png""]","[""coconut.png""]","[""coconut.png""]",blank.png,blank.png,blank.png,PB14.png,,,,,,,,,,,1,,,,,,,,,,,,,666.5300000000279,,timeout,,,,,,,,,,,,,4,,,,,,,,,,,,,,,,,,,,,,,,,,,,,,,,,,,,,,,,,,,,,,,,,,,,,,,,,"[""coconut.png""]","[""chocolate_truffle.png""]",,,,3,,,false,,1,,,,,,,273481.69499996584,273480.371,273030.35,273060.62000000384,273047.098,273713.628,2,,,
timeout,canvas.Screen,2_4_2_6_1_0_0_0_0_1_1,2021-05-24T15:57:20.665Z,,,blank.png,blank.png,blank.png,blank.png,blank.png,blank.png,blank.png,"[""chocolate_truffle.png""]",blank.png,blank.png,blank.png,blank.png,blank.png,,,,,,,,,,,,,,,,,,,,,,,,,,,,,"[""chocolate_truffle.png""]","[""coconut.png""]",PB18.png,,,,,,,,,,,0,6,"[""coconut.png""]","[""coconut.png""]","[""coconut.png""]","[""coconut.png""]","[""coconut.png""]","[""coconut.png""]",blank.png,PB18.png,PB14.png,"[""coconut.png""]","[""coconut.png""]","[""coconut.png""]","[""coconut.png""]","[""coconut.png""]","[""coconut.png""]","[""coconut.png""]","[""coconut.png""]","[""coconut.png""]",blank.png,blank.png,blank.png,1,"[""chocolate_truffle.png""]",blank.png,blank.png,blank.png,3,"[""coconut.png""]","[""coconut.png""]","[""coconut.png""]",blank.png,blank.png,blank.png,PB14.png,,,,,,,,,,,1,,,,,,,,,,,,,700.0659999999916,,timeout,,,,,,,,,,,,,4,,,,,,,,,,,,,,,,,,,,,,,,,,,,,,,,,,,,,,,,,,,,,,,,,,,,,,,,,"[""coconut.png""]","[""chocolate_truffle.png""]",,,,3,,,false,,1,,,,,,,274197.56999996025,274196.988,273480.371,273716.44999994896,273713.628,274413.694,,,,
choice,canvas.Screen,2_4_2_6_1_0_0_0_0_1_2,2021-05-24T15:57:22.462Z,,,blank.png,blank.png,blank.png,blank.png,blank.png,blank.png,blank.png,"[""chocolate_truffle.png""]",blank.png,blank.png,blank.png,blank.png,blank.png,,,,,,,,,,,,,,,,,,,,,,,,,,,,,"[""chocolate_truffle.png""]","[""coconut.png""]",PB18.png,,,,,,,,,,,0,6,"[""coconut.png""]","[""coconut.png""]","[""coconut.png""]","[""coconut.png""]","[""coconut.png""]","[""coconut.png""]",blank.png,PB18.png,PB14.png,"[""coconut.png""]","[""coconut.png""]","[""coconut.png""]","[""coconut.png""]","[""coconut.png""]","[""coconut.png""]","[""coconut.png""]","[""coconut.png""]","[""coconut.png""]",blank.png,blank.png,blank.png,1,"[""chocolate_truffle.png""]",blank.png,blank.png,blank.png,3,"[""coconut.png""]","[""coconut.png""]","[""coconut.png""]",blank.png,blank.png,blank.png,PB14.png,,,,,,,,,,,1,,,,,,,,,,,,,1579.871000011568,,response,,,,,,,,,,,,,4,,,,,,,,,,,,,,,,,,,,,,,,,,,,,,,,,,,,,,,,,,,,,,,,,,,,,,,,,"[""coconut.png""]","[""chocolate_truffle.png""]",,,,3,right,keydown(ArrowRight),false,,1,,,,,,,275994.6699999273,275993.5650000116,274196.988,274400.67999996245,274413.694,276180.346,,2,,
square,canvas.Screen,2_4_2_6_1_0_0_0_0_1_3,2021-05-24T15:57:23.632Z,,,blank.png,blank.png,blank.png,blank.png,blank.png,blank.png,blank.png,"[""chocolate_truffle.png""]",blank.png,blank.png,blank.png,blank.png,blank.png,,,,,,,,,,,,,,,,,,,,,,,,,,,,,"[""chocolate_truffle.png""]","[""coconut.png""]",PB18.png,,,,,,,,,,,0,6,"[""coconut.png""]","[""coconut.png""]","[""coconut.png""]","[""coconut.png""]","[""coconut.png""]","[""coconut.png""]",blank.png,PB18.png,PB14.png,"[""coconut.png""]","[""coconut.png""]","[""coconut.png""]","[""coconut.png""]","[""coconut.png""]","[""coconut.png""]","[""coconut.png""]","[""coconut.png""]","[""coconut.png""]",blank.png,blank.png,blank.png,1,"[""chocolate_truffle.png""]",blank.png,blank.png,blank.png,3,"[""coconut.png""]","[""coconut.png""]","[""coconut.png""]",blank.png,blank.png,blank.png,PB14.png,,,,,,,,,,,1,,,#808080,#33ff3f,,,,,,,,,1000.045999999973,,timeout,,,,,,,,,,,,,4,,,,,,,,,,,,,,,,,,,,,,,,,,,,,,,,,,,,,,,,,,,,,,,,,,,,,,,,,"[""coconut.png""]","[""chocolate_truffle.png""]",,,,3,,,false,,1,,,,,white,black,277164.99999992084,277163.745,276163.588,276177.2199999541,276180.346,277180.392,,,,
ITI_late,canvas.Screen,2_4_2_6_1_0_0_0_0_1_4,2021-05-24T15:57:24.882Z,,,blank.png,blank.png,blank.png,blank.png,blank.png,blank.png,blank.png,"[""chocolate_truffle.png""]",blank.png,blank.png,blank.png,blank.png,blank.png,,,,,,,,,,,,,,,,,,,,,,,,,,,,,"[""chocolate_truffle.png""]","[""coconut.png""]",PB18.png,,,,,,,,,,,0,6,"[""coconut.png""]","[""coconut.png""]","[""coconut.png""]","[""coconut.png""]","[""coconut.png""]","[""coconut.png""]",blank.png,PB18.png,PB14.png,"[""coconut.png""]","[""coconut.png""]","[""coconut.png""]","[""coconut.png""]","[""coconut.png""]","[""coconut.png""]","[""coconut.png""]","[""coconut.png""]","[""coconut.png""]",blank.png,blank.png,blank.png,1,"[""chocolate_truffle.png""]",blank.png,blank.png,blank.png,3,"[""coconut.png""]","[""coconut.png""]","[""coconut.png""]",blank.png,blank.png,blank.png,PB14.png,,,,,,,,,,,1,,,,,,,,,,,,,1249.9970000000321,,timeout,,,,,,,,,,,,white,4,,,,,,,,,,,,,,,,,,,,,,,,,,,,,,,,,,,,,,,,,,,,,,,,,,,,,,,,,"[""coconut.png""]","[""chocolate_truffle.png""]",,,,3,,,false,,1,,,,,,,278414.3199999817,278413.681,277163.745,277170.3249999555,277180.392,278430.389,,,,
choice_sequence,flow.Sequence,2_4_2_6_1_0_0_0_0_1,2021-05-24T15:57:24.882Z,,,blank.png,blank.png,blank.png,blank.png,blank.png,blank.png,blank.png,"[""chocolate_truffle.png""]",blank.png,blank.png,blank.png,blank.png,blank.png,,,,,,,,,,,,,,,,,,,,,,,,,,,,,"[""chocolate_truffle.png""]","[""coconut.png""]",PB18.png,,,,,,,,,,,0,6,"[""coconut.png""]","[""coconut.png""]","[""coconut.png""]","[""coconut.png""]","[""coconut.png""]","[""coconut.png""]",blank.png,PB18.png,PB14.png,"[""coconut.png""]","[""coconut.png""]","[""coconut.png""]","[""coconut.png""]","[""coconut.png""]","[""coconut.png""]","[""coconut.png""]","[""coconut.png""]","[""coconut.png""]",blank.png,blank.png,blank.png,1,"[""chocolate_truffle.png""]",blank.png,blank.png,blank.png,3,"[""coconut.png""]","[""coconut.png""]","[""coconut.png""]",blank.png,blank.png,blank.png,PB14.png,,,,,,,,,,,1,,,,,,,,,,,,,5366.582999999984,,completion,,,,,,,,,,,,,4,,,,,,,,,,,,,,,,,,,,,,,,,,,,,,,,,,,,,,,,,,,,,,,,,,,,,,,,,"[""coconut.png""]","[""chocolate_truffle.png""]",,,,3,,,false,,1,,,,,,,278415.009999997,278413.681,273030.35,273053.63999994006,273047.098,278430.389,,,,
fixCross,canvas.Screen,2_4_2_6_1_0_0_0_0_2_0,2021-05-24T15:57:25.432Z,,,blank.png,"[""chocolate_truffle.png""]",blank.png,blank.png,blank.png,blank.png,blank.png,blank.png,blank.png,blank.png,blank.png,blank.png,blank.png,,,,,,,,,,,,,,,,,,,,,,,,,,,,,"[""chocolate_truffle.png""]","[""coconut.png""]",PB07.png,,,,,,,,,,,0,6,"[""coconut.png""]","[""coconut.png""]","[""coconut.png""]","[""coconut.png""]","[""coconut.png""]","[""coconut.png""]",blank.png,PB18.png,PB18.png,"[""coconut.png""]",blank.png,blank.png,blank.png,blank.png,blank.png,"[""coconut.png""]","[""coconut.png""]","[""coconut.png""]","[""coconut.png""]","[""coconut.png""]","[""coconut.png""]",1,"[""chocolate_truffle.png""]",blank.png,blank.png,blank.png,1,"[""coconut.png""]",blank.png,blank.png,blank.png,blank.png,blank.png,PB07.png,,,,,,,,,,,1,,,,,,,,,,,,,816.6289999999572,,timeout,,,,,,,,,,,,,3,,,,,,,,,,,,,,,,,,,,,,,,,,,,,,,,,,,,,,,,,,,,,,,,,,,,,,,,,"[""coconut.png""]","[""chocolate_truffle.png""]",,,,3,,,false,,1,,,,,,,278964.8499999894,278963.722,278413.681,278425.2250000136,278430.389,279247.018,3,,,
timeout,canvas.Screen,2_4_2_6_1_0_0_0_0_2_1,2021-05-24T15:57:26.198Z,,,blank.png,"[""chocolate_truffle.png""]",blank.png,blank.png,blank.png,blank.png,blank.png,blank.png,blank.png,blank.png,blank.png,blank.png,blank.png,,,,,,,,,,,,,,,,,,,,,,,,,,,,,"[""chocolate_truffle.png""]","[""coconut.png""]",PB07.png,,,,,,,,,,,0,6,"[""coconut.png""]","[""coconut.png""]","[""coconut.png""]","[""coconut.png""]","[""coconut.png""]","[""coconut.png""]",blank.png,PB18.png,PB18.png,"[""coconut.png""]",blank.png,blank.png,blank.png,blank.png,blank.png,"[""coconut.png""]","[""coconut.png""]","[""coconut.png""]","[""coconut.png""]","[""coconut.png""]","[""coconut.png""]",1,"[""chocolate_truffle.png""]",blank.png,blank.png,blank.png,1,"[""coconut.png""]",blank.png,blank.png,blank.png,blank.png,blank.png,PB07.png,,,,,,,,,,,1,,,,,,,,,,,,,666.713000000047,,timeout,,,,,,,,,,,,,3,,,,,,,,,,,,,,,,,,,,,,,,,,,,,,,,,,,,,,,,,,,,,,,,,,,,,,,,,"[""coconut.png""]","[""chocolate_truffle.png""]",,,,3,,,false,,1,,,,,,,279730.6749999989,279730.346,278963.722,279249.7199999634,279247.018,279913.731,,,,
choice,canvas.Screen,2_4_2_6_1_0_0_0_0_2_2,2021-05-24T15:57:28.180Z,,,blank.png,"[""chocolate_truffle.png""]",blank.png,blank.png,blank.png,blank.png,blank.png,blank.png,blank.png,blank.png,blank.png,blank.png,blank.png,,,,,,,,,,,,,,,,,,,,,,,,,,,,,"[""chocolate_truffle.png""]","[""coconut.png""]",PB07.png,,,,,,,,,,,0,6,"[""coconut.png""]","[""coconut.png""]","[""coconut.png""]","[""coconut.png""]","[""coconut.png""]","[""coconut.png""]",blank.png,PB18.png,PB18.png,"[""coconut.png""]",blank.png,blank.png,blank.png,blank.png,blank.png,"[""coconut.png""]","[""coconut.png""]","[""coconut.png""]","[""coconut.png""]","[""coconut.png""]","[""coconut.png""]",1,"[""chocolate_truffle.png""]",blank.png,blank.png,blank.png,1,"[""coconut.png""]",blank.png,blank.png,blank.png,blank.png,blank.png,PB07.png,,,,,,,,,,,1,,,,,,,,,,,,,1795.7439999232301,,response,,,,,,,,,,,,,3,,,,,,,,,,,,,,,,,,,,,,,,,,,,,,,,,,,,,,,,,,,,,,,,,,,,,,,,,"[""coconut.png""]","[""chocolate_truffle.png""]",,,,3,right,keydown(ArrowRight),false,,1,,,,,,,281712.2499999823,281709.47499992326,279730.346,279916.88999999315,279913.731,281958.595,,3,,
square,canvas.Screen,2_4_2_6_1_0_0_0_0_2_3,2021-05-24T15:57:29.416Z,,,blank.png,"[""chocolate_truffle.png""]",blank.png,blank.png,blank.png,blank.png,blank.png,blank.png,blank.png,blank.png,blank.png,blank.png,blank.png,,,,,,,,,,,,,,,,,,,,,,,,,,,,,"[""chocolate_truffle.png""]","[""coconut.png""]",PB07.png,,,,,,,,,,,0,6,"[""coconut.png""]","[""coconut.png""]","[""coconut.png""]","[""coconut.png""]","[""coconut.png""]","[""coconut.png""]",blank.png,PB18.png,PB18.png,"[""coconut.png""]",blank.png,blank.png,blank.png,blank.png,blank.png,"[""coconut.png""]","[""coconut.png""]","[""coconut.png""]","[""coconut.png""]","[""coconut.png""]","[""coconut.png""]",1,"[""chocolate_truffle.png""]",blank.png,blank.png,blank.png,1,"[""coconut.png""]",blank.png,blank.png,blank.png,blank.png,blank.png,PB07.png,,,,,,,,,,,1,,,#808080,#33ff3f,,,,,,,,,1005.2070000000531,,timeout,,,,,,,,,,,,,3,,,,,,,,,,,,,,,,,,,,,,,,,,,,,,,,,,,,,,,,,,,,,,,,,,,,,,,,,"[""coconut.png""]","[""chocolate_truffle.png""]",,,,3,,,false,,1,,,,,white,black,282948.5899999272,282947.113,281913.623,281929.5999999158,281958.595,282963.802,,,,
ITI_late,canvas.Screen,2_4_2_6_1_0_0_0_0_2_4,2021-05-24T15:57:30.165Z,,,blank.png,"[""chocolate_truffle.png""]",blank.png,blank.png,blank.png,blank.png,blank.png,blank.png,blank.png,blank.png,blank.png,blank.png,blank.png,,,,,,,,,,,,,,,,,,,,,,,,,,,,,"[""chocolate_truffle.png""]","[""coconut.png""]",PB07.png,,,,,,,,,,,0,6,"[""coconut.png""]","[""coconut.png""]","[""coconut.png""]","[""coconut.png""]","[""coconut.png""]","[""coconut.png""]",blank.png,PB18.png,PB18.png,"[""coconut.png""]",blank.png,blank.png,blank.png,blank.png,blank.png,"[""coconut.png""]","[""coconut.png""]","[""coconut.png""]","[""coconut.png""]","[""coconut.png""]","[""coconut.png""]",1,"[""chocolate_truffle.png""]",blank.png,blank.png,blank.png,1,"[""coconut.png""]",blank.png,blank.png,blank.png,blank.png,blank.png,PB07.png,,,,,,,,,,,1,,,,,,,,,,,,,749.9479999999749,,timeout,,,,,,,,,,,,white,3,,,,,,,,,,,,,,,,,,,,,,,,,,,,,,,,,,,,,,,,,,,,,,,,,,,,,,,,,"[""coconut.png""]","[""chocolate_truffle.png""]",,,,3,,,false,,1,,,,,,,283697.359999991,283697.046,282947.113,282953.8900000043,282963.802,283713.75,,,,
choice_sequence,flow.Sequence,2_4_2_6_1_0_0_0_0_2,2021-05-24T15:57:30.165Z,,,blank.png,"[""chocolate_truffle.png""]",blank.png,blank.png,blank.png,blank.png,blank.png,blank.png,blank.png,blank.png,blank.png,blank.png,blank.png,,,,,,,,,,,,,,,,,,,,,,,,,,,,,"[""chocolate_truffle.png""]","[""coconut.png""]",PB07.png,,,,,,,,,,,0,6,"[""coconut.png""]","[""coconut.png""]","[""coconut.png""]","[""coconut.png""]","[""coconut.png""]","[""coconut.png""]",blank.png,PB18.png,PB18.png,"[""coconut.png""]",blank.png,blank.png,blank.png,blank.png,blank.png,"[""coconut.png""]","[""coconut.png""]","[""coconut.png""]","[""coconut.png""]","[""coconut.png""]","[""coconut.png""]",1,"[""chocolate_truffle.png""]",blank.png,blank.png,blank.png,1,"[""coconut.png""]",blank.png,blank.png,blank.png,blank.png,blank.png,PB07.png,,,,,,,,,,,1,,,,,,,,,,,,,5266.656999999948,,completion,,,,,,,,,,,,,3,,,,,,,,,,,,,,,,,,,,,,,,,,,,,,,,,,,,,,,,,,,,,,,,,,,,,,,,,"[""coconut.png""]","[""chocolate_truffle.png""]",,,,3,,,false,,1,,,,,,,283697.67499994487,283697.046,278413.681,278420.2799999621,278430.389,283713.75,,,,
fixCross,canvas.Screen,2_4_2_6_1_0_0_0_0_3_0,2021-05-24T15:57:30.665Z,,,blank.png,"[""chocolate_truffle.png""]",blank.png,blank.png,blank.png,blank.png,blank.png,blank.png,blank.png,blank.png,blank.png,blank.png,blank.png,,,,,,,,,,,,,,,,,,,,,,,,,,,,,"[""chocolate_truffle.png""]","[""coconut.png""]",PB17.png,,,,,,,,,,,0,6,"[""coconut.png""]","[""coconut.png""]","[""coconut.png""]","[""coconut.png""]","[""coconut.png""]","[""coconut.png""]",blank.png,PB18.png,PB18.png,"[""coconut.png""]","[""coconut.png""]","[""coconut.png""]","[""coconut.png""]","[""coconut.png""]","[""coconut.png""]","[""coconut.png""]","[""coconut.png""]","[""coconut.png""]","[""coconut.png""]","[""coconut.png""]","[""coconut.png""]",1,"[""chocolate_truffle.png""]",blank.png,blank.png,blank.png,6,"[""coconut.png""]","[""coconut.png""]","[""coconut.png""]","[""coconut.png""]","[""coconut.png""]","[""coconut.png""]",PB17.png,,,,,,,,,,,1,,,,,,,,,,,,,683.3310000000056,,timeout,,,,,,,,,,,,,3,,,,,,,,,,,,,,,,,,,,,,,,,,,,,,,,,,,,,,,,,,,,,,,,,,,,,,,,,"[""coconut.png""]","[""chocolate_truffle.png""]",,,,3,,,false,,1,,,,,,,284197.4100000225,284197.063,283697.046,283702.1449999884,283713.75,284397.081,4,,,
timeout,canvas.Screen,2_4_2_6_1_0_0_0_0_3_1,2021-05-24T15:57:31.348Z,,,blank.png,"[""chocolate_truffle.png""]",blank.png,blank.png,blank.png,blank.png,blank.png,blank.png,blank.png,blank.png,blank.png,blank.png,blank.png,,,,,,,,,,,,,,,,,,,,,,,,,,,,,"[""chocolate_truffle.png""]","[""coconut.png""]",PB17.png,,,,,,,,,,,0,6,"[""coconut.png""]","[""coconut.png""]","[""coconut.png""]","[""coconut.png""]","[""coconut.png""]","[""coconut.png""]",blank.png,PB18.png,PB18.png,"[""coconut.png""]","[""coconut.png""]","[""coconut.png""]","[""coconut.png""]","[""coconut.png""]","[""coconut.png""]","[""coconut.png""]","[""coconut.png""]","[""coconut.png""]","[""coconut.png""]","[""coconut.png""]","[""coconut.png""]",1,"[""chocolate_truffle.png""]",blank.png,blank.png,blank.png,6,"[""coconut.png""]","[""coconut.png""]","[""coconut.png""]","[""coconut.png""]","[""coconut.png""]","[""coconut.png""]",PB17.png,,,,,,,,,,,1,,,,,,,,,,,,,683.3429999999935,,timeout,,,,,,,,,,,,,3,,,,,,,,,,,,,,,,,,,,,,,,,,,,,,,,,,,,,,,,,,,,,,,,,,,,,,,,,"[""coconut.png""]","[""chocolate_truffle.png""]",,,,3,,,false,,1,,,,,,,284880.81499992404,284880.401,284197.063,284399.860000005,284397.081,285080.424,,,,
choice,canvas.Screen,2_4_2_6_1_0_0_0_0_3_2,2021-05-24T15:57:32.923Z,,,blank.png,"[""chocolate_truffle.png""]",blank.png,blank.png,blank.png,blank.png,blank.png,blank.png,blank.png,blank.png,blank.png,blank.png,blank.png,,,,,,,,,,,,,,,,,,,,,,,,,,,,,"[""chocolate_truffle.png""]","[""coconut.png""]",PB17.png,,,,,,,,,,,0,6,"[""coconut.png""]","[""coconut.png""]","[""coconut.png""]","[""coconut.png""]","[""coconut.png""]","[""coconut.png""]",blank.png,PB18.png,PB18.png,"[""coconut.png""]","[""coconut.png""]","[""coconut.png""]","[""coconut.png""]","[""coconut.png""]","[""coconut.png""]","[""coconut.png""]","[""coconut.png""]","[""coconut.png""]","[""coconut.png""]","[""coconut.png""]","[""coconut.png""]",1,"[""chocolate_truffle.png""]",blank.png,blank.png,blank.png,6,"[""coconut.png""]","[""coconut.png""]","[""coconut.png""]","[""coconut.png""]","[""coconut.png""]","[""coconut.png""]",PB17.png,,,,,,,,,,,1,,,,,,,,,,,,,1373.9809999676654,,response,,,,,,,,,,,,,3,,,,,,,,,,,,,,,,,,,,,,,,,,,,,,,,,,,,,,,,,,,,,,,,,,,,,,,,,"[""coconut.png""]","[""chocolate_truffle.png""]",,,,3,left,keydown(ArrowLeft),false,,1,,,,,,,286455.1049999427,286454.40499996766,284880.401,285074.65999992564,285080.424,286663.754,,4,,
square,canvas.Screen,2_4_2_6_1_0_0_0_0_3_3,2021-05-24T15:57:34.116Z,,,blank.png,"[""chocolate_truffle.png""]",blank.png,blank.png,blank.png,blank.png,blank.png,blank.png,blank.png,blank.png,blank.png,blank.png,blank.png,,,,,,,,,,,,,,,,,,,,,,,,,,,,,"[""chocolate_truffle.png""]","[""coconut.png""]",PB17.png,,,,,,,,,,,0,6,"[""coconut.png""]","[""coconut.png""]","[""coconut.png""]","[""coconut.png""]","[""coconut.png""]","[""coconut.png""]",blank.png,PB18.png,PB18.png,"[""coconut.png""]","[""coconut.png""]","[""coconut.png""]","[""coconut.png""]","[""coconut.png""]","[""coconut.png""]","[""coconut.png""]","[""coconut.png""]","[""coconut.png""]","[""coconut.png""]","[""coconut.png""]","[""coconut.png""]",1,"[""chocolate_truffle.png""]",blank.png,blank.png,blank.png,6,"[""coconut.png""]","[""coconut.png""]","[""coconut.png""]","[""coconut.png""]","[""coconut.png""]","[""coconut.png""]",PB17.png,,,,,,,,,,,1,,,#33ff3f,#808080,,,,,,,,,1000.1020000000135,,timeout,,,,,,,,,,,,,3,,,,,,,,,,,,,,,,,,,,,,,,,,,,,,,,,,,,,,,,,,,,,,,,,,,,,,,,,"[""coconut.png""]","[""chocolate_truffle.png""]",,,,3,,,false,,1,,,,,black,white,287648.34499999415,287647.152,286647.02,286651.4999999199,286663.754,287663.856,,,,
ITI_late,canvas.Screen,2_4_2_6_1_0_0_0_0_3_4,2021-05-24T15:57:34.615Z,,,blank.png,"[""chocolate_truffle.png""]",blank.png,blank.png,blank.png,blank.png,blank.png,blank.png,blank.png,blank.png,blank.png,blank.png,blank.png,,,,,,,,,,,,,,,,,,,,,,,,,,,,,"[""chocolate_truffle.png""]","[""coconut.png""]",PB17.png,,,,,,,,,,,0,6,"[""coconut.png""]","[""coconut.png""]","[""coconut.png""]","[""coconut.png""]","[""coconut.png""]","[""coconut.png""]",blank.png,PB18.png,PB18.png,"[""coconut.png""]","[""coconut.png""]","[""coconut.png""]","[""coconut.png""]","[""coconut.png""]","[""coconut.png""]","[""coconut.png""]","[""coconut.png""]","[""coconut.png""]","[""coconut.png""]","[""coconut.png""]","[""coconut.png""]",1,"[""chocolate_truffle.png""]",blank.png,blank.png,blank.png,6,"[""coconut.png""]","[""coconut.png""]","[""coconut.png""]","[""coconut.png""]","[""coconut.png""]","[""coconut.png""]",PB17.png,,,,,,,,,,,1,,,,,,,,,,,,,499.91299999994226,,timeout,,,,,,,,,,,,white,3,,,,,,,,,,,,,,,,,,,,,,,,,,,,,,,,,,,,,,,,,,,,,,,,,,,,,,,,,"[""coconut.png""]","[""chocolate_truffle.png""]",,,,3,,,false,,1,,,,,,,288147.38999994006,288147.095,287647.152,287653.5300000105,287663.856,288163.769,,,,
choice_sequence,flow.Sequence,2_4_2_6_1_0_0_0_0_3,2021-05-24T15:57:34.615Z,,,blank.png,"[""chocolate_truffle.png""]",blank.png,blank.png,blank.png,blank.png,blank.png,blank.png,blank.png,blank.png,blank.png,blank.png,blank.png,,,,,,,,,,,,,,,,,,,,,,,,,,,,,"[""chocolate_truffle.png""]","[""coconut.png""]",PB17.png,,,,,,,,,,,0,6,"[""coconut.png""]","[""coconut.png""]","[""coconut.png""]","[""coconut.png""]","[""coconut.png""]","[""coconut.png""]",blank.png,PB18.png,PB18.png,"[""coconut.png""]","[""coconut.png""]","[""coconut.png""]","[""coconut.png""]","[""coconut.png""]","[""coconut.png""]","[""coconut.png""]","[""coconut.png""]","[""coconut.png""]","[""coconut.png""]","[""coconut.png""]","[""coconut.png""]",1,"[""chocolate_truffle.png""]",blank.png,blank.png,blank.png,6,"[""coconut.png""]","[""coconut.png""]","[""coconut.png""]","[""coconut.png""]","[""coconut.png""]","[""coconut.png""]",PB17.png,,,,,,,,,,,1,,,,,,,,,,,,,4433.344999999972,,completion,,,,,,,,,,,,,3,,,,,,,,,,,,,,,,,,,,,,,,,,,,,,,,,,,,,,,,,,,,,,,,,,,,,,,,,"[""coconut.png""]","[""chocolate_truffle.png""]",,,,3,,,false,,1,,,,,,,288147.7050000103,288147.095,283697.046,283700.60999994166,283713.75,288163.769,,,,
fixCross,canvas.Screen,2_4_2_6_1_0_0_0_0_4_0,2021-05-24T15:57:35.065Z,,,blank.png,blank.png,blank.png,blank.png,blank.png,blank.png,blank.png,"[""chocolate_truffle.png""]",blank.png,blank.png,blank.png,blank.png,blank.png,,,,,,,,,,,,,,,,,,,,,,,,,,,,,"[""chocolate_truffle.png""]","[""coconut.png""]",PB18.png,,,,,,,,,,,0,6,"[""coconut.png""]","[""coconut.png""]","[""coconut.png""]","[""coconut.png""]","[""coconut.png""]","[""coconut.png""]",blank.png,PB18.png,PB16.png,"[""coconut.png""]","[""coconut.png""]","[""coconut.png""]","[""coconut.png""]","[""coconut.png""]","[""coconut.png""]","[""coconut.png""]","[""coconut.png""]","[""coconut.png""]","[""coconut.png""]","[""coconut.png""]",blank.png,1,"[""chocolate_truffle.png""]",blank.png,blank.png,blank.png,5,"[""coconut.png""]","[""coconut.png""]","[""coconut.png""]","[""coconut.png""]","[""coconut.png""]",blank.png,PB16.png,,,,,,,,,,,1,,,,,,,,,,,,,633.3300000000163,,timeout,,,,,,,,,,,,,4,,,,,,,,,,,,,,,,,,,,,,,,,,,,,,,,,,,,,,,,,,,,,,,,,,,,,,,,,"[""coconut.png""]","[""chocolate_truffle.png""]",,,,3,,,false,,1,,,,,,,288597.4949999945,288597.105,288147.095,288150.5350000225,288163.769,288797.099,5,,,
timeout,canvas.Screen,2_4_2_6_1_0_0_0_0_4_1,2021-05-24T15:57:35.749Z,,,blank.png,blank.png,blank.png,blank.png,blank.png,blank.png,blank.png,"[""chocolate_truffle.png""]",blank.png,blank.png,blank.png,blank.png,blank.png,,,,,,,,,,,,,,,,,,,,,,,,,,,,,"[""chocolate_truffle.png""]","[""coconut.png""]",PB18.png,,,,,,,,,,,0,6,"[""coconut.png""]","[""coconut.png""]","[""coconut.png""]","[""coconut.png""]","[""coconut.png""]","[""coconut.png""]",blank.png,PB18.png,PB16.png,"[""coconut.png""]","[""coconut.png""]","[""coconut.png""]","[""coconut.png""]","[""coconut.png""]","[""coconut.png""]","[""coconut.png""]","[""coconut.png""]","[""coconut.png""]","[""coconut.png""]","[""coconut.png""]",blank.png,1,"[""chocolate_truffle.png""]",blank.png,blank.png,blank.png,5,"[""coconut.png""]","[""coconut.png""]","[""coconut.png""]","[""coconut.png""]","[""coconut.png""]",blank.png,PB16.png,,,,,,,,,,,1,,,,,,,,,,,,,766.710000000021,,timeout,,,,,,,,,,,,,4,,,,,,,,,,,,,,,,,,,,,,,,,,,,,,,,,,,,,,,,,,,,,,,,,,,,,,,,,"[""coconut.png""]","[""chocolate_truffle.png""]",,,,3,,,false,,1,,,,,,,289281.7899999209,289280.506,288597.105,288799.67999993823,288797.099,289563.809,,,,
choice,canvas.Screen,2_4_2_6_1_0_0_0_0_4_2,2021-05-24T15:57:37.636Z,,,blank.png,blank.png,blank.png,blank.png,blank.png,blank.png,blank.png,"[""chocolate_truffle.png""]",blank.png,blank.png,blank.png,blank.png,blank.png,,,,,,,,,,,,,,,,,,,,,,,,,,,,,"[""chocolate_truffle.png""]","[""coconut.png""]",PB18.png,,,,,,,,,,,0,6,"[""coconut.png""]","[""coconut.png""]","[""coconut.png""]","[""coconut.png""]","[""coconut.png""]","[""coconut.png""]",blank.png,PB18.png,PB16.png,"[""coconut.png""]","[""coconut.png""]","[""coconut.png""]","[""coconut.png""]","[""coconut.png""]","[""coconut.png""]","[""coconut.png""]","[""coconut.png""]","[""coconut.png""]","[""coconut.png""]","[""coconut.png""]",blank.png,1,"[""chocolate_truffle.png""]",blank.png,blank.png,blank.png,5,"[""coconut.png""]","[""coconut.png""]","[""coconut.png""]","[""coconut.png""]","[""coconut.png""]",blank.png,PB16.png,,,,,,,,,,,1,,,,,,,,,,,,,1602.055999988108,,response,,,,,,,,,,,,,4,,,,,,,,,,,,,,,,,,,,,,,,,,,,,,,,,,,,,,,,,,,,,,,,,,,,,,,,,"[""coconut.png""]","[""chocolate_truffle.png""]",,,,3,right,keydown(ArrowRight),false,,1,,,,,,,291168.20999991614,291165.8649999881,289280.506,289569.7499999078,289563.809,291430.488,,5,,
square,canvas.Screen,2_4_2_6_1_0_0_0_0_4_3,2021-05-24T15:57:38.882Z,,,blank.png,blank.png,blank.png,blank.png,blank.png,blank.png,blank.png,"[""chocolate_truffle.png""]",blank.png,blank.png,blank.png,blank.png,blank.png,,,,,,,,,,,,,,,,,,,,,,,,,,,,,"[""chocolate_truffle.png""]","[""coconut.png""]",PB18.png,,,,,,,,,,,0,6,"[""coconut.png""]","[""coconut.png""]","[""coconut.png""]","[""coconut.png""]","[""coconut.png""]","[""coconut.png""]",blank.png,PB18.png,PB16.png,"[""coconut.png""]","[""coconut.png""]","[""coconut.png""]","[""coconut.png""]","[""coconut.png""]","[""coconut.png""]","[""coconut.png""]","[""coconut.png""]","[""coconut.png""]","[""coconut.png""]","[""coconut.png""]",blank.png,1,"[""chocolate_truffle.png""]",blank.png,blank.png,blank.png,5,"[""coconut.png""]","[""coconut.png""]","[""coconut.png""]","[""coconut.png""]","[""coconut.png""]",blank.png,PB16.png,,,,,,,,,,,1,,,#808080,#33ff3f,,,,,,,,,999.9899999999907,,timeout,,,,,,,,,,,,,4,,,,,,,,,,,,,,,,,,,,,,,,,,,,,,,,,,,,,,,,,,,,,,,,,,,,,,,,,"[""coconut.png""]","[""chocolate_truffle.png""]",,,,3,,,false,,1,,,,,white,black,292414.30499998387,292413.831,291413.706,291420.8549999166,291430.488,292430.478,,,,
ITI_late,canvas.Screen,2_4_2_6_1_0_0_0_0_4_4,2021-05-24T15:57:39.632Z,,,blank.png,blank.png,blank.png,blank.png,blank.png,blank.png,blank.png,"[""chocolate_truffle.png""]",blank.png,blank.png,blank.png,blank.png,blank.png,,,,,,,,,,,,,,,,,,,,,,,,,,,,,"[""chocolate_truffle.png""]","[""coconut.png""]",PB18.png,,,,,,,,,,,0,6,"[""coconut.png""]","[""coconut.png""]","[""coconut.png""]","[""coconut.png""]","[""coconut.png""]","[""coconut.png""]",blank.png,PB18.png,PB16.png,"[""coconut.png""]","[""coconut.png""]","[""coconut.png""]","[""coconut.png""]","[""coconut.png""]","[""coconut.png""]","[""coconut.png""]","[""coconut.png""]","[""coconut.png""]","[""coconut.png""]","[""coconut.png""]",blank.png,1,"[""chocolate_truffle.png""]",blank.png,blank.png,blank.png,5,"[""coconut.png""]","[""coconut.png""]","[""coconut.png""]","[""coconut.png""]","[""coconut.png""]",blank.png,PB16.png,,,,,,,,,,,1,,,,,,,,,,,,,750.1630000000005,,timeout,,,,,,,,,,,,white,4,,,,,,,,,,,,,,,,,,,,,,,,,,,,,,,,,,,,,,,,,,,,,,,,,,,,,,,,,"[""coconut.png""]","[""chocolate_truffle.png""]",,,,3,,,false,,1,,,,,,,293164.9500000058,293163.857,292413.831,292416.20999993756,292430.478,293180.641,,,,
choice_sequence,flow.Sequence,2_4_2_6_1_0_0_0_0_4,2021-05-24T15:57:39.634Z,,,blank.png,blank.png,blank.png,blank.png,blank.png,blank.png,blank.png,"[""chocolate_truffle.png""]",blank.png,blank.png,blank.png,blank.png,blank.png,,,,,,,,,,,,,,,,,,,,,,,,,,,,,"[""chocolate_truffle.png""]","[""coconut.png""]",PB18.png,,,,,,,,,,,0,6,"[""coconut.png""]","[""coconut.png""]","[""coconut.png""]","[""coconut.png""]","[""coconut.png""]","[""coconut.png""]",blank.png,PB18.png,PB16.png,"[""coconut.png""]","[""coconut.png""]","[""coconut.png""]","[""coconut.png""]","[""coconut.png""]","[""coconut.png""]","[""coconut.png""]","[""coconut.png""]","[""coconut.png""]","[""coconut.png""]","[""coconut.png""]",blank.png,1,"[""chocolate_truffle.png""]",blank.png,blank.png,blank.png,5,"[""coconut.png""]","[""coconut.png""]","[""coconut.png""]","[""coconut.png""]","[""coconut.png""]",blank.png,PB16.png,,,,,,,,,,,1,,,,,,,,,,,,,5000.088000000047,,completion,,,,,,,,,,,,,4,,,,,,,,,,,,,,,,,,,,,,,,,,,,,,,,,,,,,,,,,,,,,,,,,,,,,,,,,"[""coconut.png""]","[""chocolate_truffle.png""]",,,,3,,,false,,1,,,,,,,293166.32999992,293163.857,288147.095,288149.98999994714,288163.769,293180.641,,,,
fixCross,canvas.Screen,2_4_2_6_1_0_0_0_0_5_0,2021-05-24T15:57:39.932Z,,,blank.png,blank.png,blank.png,blank.png,blank.png,blank.png,blank.png,"[""chocolate_truffle.png""]",blank.png,blank.png,blank.png,blank.png,blank.png,,,,,,,,,,,,,,,,,,,,,,,,,,,,,"[""chocolate_truffle.png""]","[""coconut.png""]",PB18.png,,,,,,,,,,,0,6,"[""coconut.png""]","[""coconut.png""]","[""coconut.png""]","[""coconut.png""]","[""coconut.png""]","[""coconut.png""]",blank.png,PB18.png,PB15.png,"[""coconut.png""]","[""coconut.png""]","[""coconut.png""]","[""coconut.png""]","[""coconut.png""]","[""coconut.png""]","[""coconut.png""]","[""coconut.png""]","[""coconut.png""]","[""coconut.png""]",blank.png,blank.png,1,"[""chocolate_truffle.png""]",blank.png,blank.png,blank.png,4,"[""coconut.png""]","[""coconut.png""]","[""coconut.png""]","[""coconut.png""]",blank.png,blank.png,PB15.png,,,,,,,,,,,1,,,,,,,,,,,,,483.1699999999837,,timeout,,,,,,,,,,,,,4,,,,,,,,,,,,,,,,,,,,,,,,,,,,,,,,,,,,,,,,,,,,,,,,,,,,,,,,,"[""coconut.png""]","[""chocolate_truffle.png""]",,,,3,,,false,,1,,,,,,,293464.4499999704,293463.853,293163.857,293195.28500002343,293180.641,293663.811,6,,,
timeout,canvas.Screen,2_4_2_6_1_0_0_0_0_5_1,2021-05-24T15:57:40.615Z,,,blank.png,blank.png,blank.png,blank.png,blank.png,blank.png,blank.png,"[""chocolate_truffle.png""]",blank.png,blank.png,blank.png,blank.png,blank.png,,,,,,,,,,,,,,,,,,,,,,,,,,,,,"[""chocolate_truffle.png""]","[""coconut.png""]",PB18.png,,,,,,,,,,,0,6,"[""coconut.png""]","[""coconut.png""]","[""coconut.png""]","[""coconut.png""]","[""coconut.png""]","[""coconut.png""]",blank.png,PB18.png,PB15.png,"[""coconut.png""]","[""coconut.png""]","[""coconut.png""]","[""coconut.png""]","[""coconut.png""]","[""coconut.png""]","[""coconut.png""]","[""coconut.png""]","[""coconut.png""]","[""coconut.png""]",blank.png,blank.png,1,"[""chocolate_truffle.png""]",blank.png,blank.png,blank.png,4,"[""coconut.png""]","[""coconut.png""]","[""coconut.png""]","[""coconut.png""]",blank.png,blank.png,PB15.png,,,,,,,,,,,1,,,,,,,,,,,,,683.3770000000368,,timeout,,,,,,,,,,,,,4,,,,,,,,,,,,,,,,,,,,,,,,,,,,,,,,,,,,,,,,,,,,,,,,,,,,,,,,,"[""coconut.png""]","[""chocolate_truffle.png""]",,,,3,,,false,,1,,,,,,,294147.4799999269,294147.154,293463.853,293666.6649999097,293663.811,294347.188,,,,
choice,canvas.Screen,2_4_2_6_1_0_0_0_0_5_2,2021-05-24T15:57:42.568Z,,,blank.png,blank.png,blank.png,blank.png,blank.png,blank.png,blank.png,"[""chocolate_truffle.png""]",blank.png,blank.png,blank.png,blank.png,blank.png,,,,,,,,,,,,,,,,,,,,,,,,,,,,,"[""chocolate_truffle.png""]","[""coconut.png""]",PB18.png,,,,,,,,,,,0,6,"[""coconut.png""]","[""coconut.png""]","[""coconut.png""]","[""coconut.png""]","[""coconut.png""]","[""coconut.png""]",blank.png,PB18.png,PB15.png,"[""coconut.png""]","[""coconut.png""]","[""coconut.png""]","[""coconut.png""]","[""coconut.png""]","[""coconut.png""]","[""coconut.png""]","[""coconut.png""]","[""coconut.png""]","[""coconut.png""]",blank.png,blank.png,1,"[""chocolate_truffle.png""]",blank.png,blank.png,blank.png,4,"[""coconut.png""]","[""coconut.png""]","[""coconut.png""]","[""coconut.png""]",blank.png,blank.png,PB15.png,,,,,,,,,,,1,,,,,,,,,,,,,1752.2219999079243,,response,,,,,,,,,,,,,4,,,,,,,,,,,,,,,,,,,,,,,,,,,,,,,,,,,,,,,,,,,,,,,,,,,,,,,,,"[""coconut.png""]","[""chocolate_truffle.png""]",,,,3,right,keydown(ArrowRight),false,,1,,,,,,,296100.2800000133,296099.40999990795,294147.154,294340.57999996,294347.188,296297.181,,6,,
square,canvas.Screen,2_4_2_6_1_0_0_0_0_5_3,2021-05-24T15:57:43.749Z,,,blank.png,blank.png,blank.png,blank.png,blank.png,blank.png,blank.png,"[""chocolate_truffle.png""]",blank.png,blank.png,blank.png,blank.png,blank.png,,,,,,,,,,,,,,,,,,,,,,,,,,,,,"[""chocolate_truffle.png""]","[""coconut.png""]",PB18.png,,,,,,,,,,,0,6,"[""coconut.png""]","[""coconut.png""]","[""coconut.png""]","[""coconut.png""]","[""coconut.png""]","[""coconut.png""]",blank.png,PB18.png,PB15.png,"[""coconut.png""]","[""coconut.png""]","[""coconut.png""]","[""coconut.png""]","[""coconut.png""]","[""coconut.png""]","[""coconut.png""]","[""coconut.png""]","[""coconut.png""]","[""coconut.png""]",blank.png,blank.png,1,"[""chocolate_truffle.png""]",blank.png,blank.png,blank.png,4,"[""coconut.png""]","[""coconut.png""]","[""coconut.png""]","[""coconut.png""]",blank.png,blank.png,PB15.png,,,,,,,,,,,1,,,#808080,#33ff3f,,,,,,,,,1000.1039999999921,,timeout,,,,,,,,,,,,,4,,,,,,,,,,,,,,,,,,,,,,,,,,,,,,,,,,,,,,,,,,,,,,,,,,,,,,,,,"[""coconut.png""]","[""chocolate_truffle.png""]",,,,3,,,false,,1,,,,,white,black,297281.73499996774,297280.575,296280.44,296291.6349999141,296297.181,297297.285,,,,
ITI_late,canvas.Screen,2_4_2_6_1_0_0_0_0_5_4,2021-05-24T15:57:44.249Z,,,blank.png,blank.png,blank.png,blank.png,blank.png,blank.png,blank.png,"[""chocolate_truffle.png""]",blank.png,blank.png,blank.png,blank.png,blank.png,,,,,,,,,,,,,,,,,,,,,,,,,,,,,"[""chocolate_truffle.png""]","[""coconut.png""]",PB18.png,,,,,,,,,,,0,6,"[""coconut.png""]","[""coconut.png""]","[""coconut.png""]","[""coconut.png""]","[""coconut.png""]","[""coconut.png""]",blank.png,PB18.png,PB15.png,"[""coconut.png""]","[""coconut.png""]","[""coconut.png""]","[""coconut.png""]","[""coconut.png""]","[""coconut.png""]","[""coconut.png""]","[""coconut.png""]","[""coconut.png""]","[""coconut.png""]",blank.png,blank.png,1,"[""chocolate_truffle.png""]",blank.png,blank.png,blank.png,4,"[""coconut.png""]","[""coconut.png""]","[""coconut.png""]","[""coconut.png""]",blank.png,blank.png,PB15.png,,,,,,,,,,,1,,,,,,,,,,,,,500.33800000004703,,timeout,,,,,,,,,,,,white,4,,,,,,,,,,,,,,,,,,,,,,,,,,,,,,,,,,,,,,,,,,,,,,,,,,,,,,,,,"[""coconut.png""]","[""chocolate_truffle.png""]",,,,3,,,false,,1,,,,,,,297781.66999993846,297780.58,297280.575,297286.8149999995,297297.285,297797.623,,,,
choice_sequence,flow.Sequence,2_4_2_6_1_0_0_0_0_5,2021-05-24T15:57:44.250Z,,,blank.png,blank.png,blank.png,blank.png,blank.png,blank.png,blank.png,"[""chocolate_truffle.png""]",blank.png,blank.png,blank.png,blank.png,blank.png,,,,,,,,,,,,,,,,,,,,,,,,,,,,,"[""chocolate_truffle.png""]","[""coconut.png""]",PB18.png,,,,,,,,,,,0,6,"[""coconut.png""]","[""coconut.png""]","[""coconut.png""]","[""coconut.png""]","[""coconut.png""]","[""coconut.png""]",blank.png,PB18.png,PB15.png,"[""coconut.png""]","[""coconut.png""]","[""coconut.png""]","[""coconut.png""]","[""coconut.png""]","[""coconut.png""]","[""coconut.png""]","[""coconut.png""]","[""coconut.png""]","[""coconut.png""]",blank.png,blank.png,1,"[""chocolate_truffle.png""]",blank.png,blank.png,blank.png,4,"[""coconut.png""]","[""coconut.png""]","[""coconut.png""]","[""coconut.png""]",blank.png,blank.png,PB15.png,,,,,,,,,,,1,,,,,,,,,,,,,4599.939000000013,,completion,,,,,,,,,,,,,4,,,,,,,,,,,,,,,,,,,,,,,,,,,,,,,,,,,,,,,,,,,,,,,,,,,,,,,,,"[""coconut.png""]","[""chocolate_truffle.png""]",,,,3,,,false,,1,,,,,,,297782.97499998007,297780.58,293163.857,293193.414999987,293180.641,297797.623,,,,
fixCross,canvas.Screen,2_4_2_6_1_0_0_0_0_6_0,2021-05-24T15:57:44.699Z,,,blank.png,blank.png,blank.png,blank.png,blank.png,blank.png,blank.png,"[""chocolate_truffle.png""]",blank.png,blank.png,blank.png,blank.png,blank.png,,,,,,,,,,,,,,,,,,,,,,,,,,,,,"[""chocolate_truffle.png""]","[""coconut.png""]",PB18.png,,,,,,,,,,,0,6,"[""coconut.png""]","[""coconut.png""]","[""coconut.png""]","[""coconut.png""]","[""coconut.png""]","[""coconut.png""]",blank.png,PB18.png,PB12.png,"[""coconut.png""]","[""coconut.png""]","[""coconut.png""]","[""coconut.png""]","[""coconut.png""]","[""coconut.png""]","[""coconut.png""]","[""coconut.png""]",blank.png,blank.png,blank.png,blank.png,1,"[""chocolate_truffle.png""]",blank.png,blank.png,blank.png,2,"[""coconut.png""]","[""coconut.png""]",blank.png,blank.png,blank.png,blank.png,PB12.png,,,,,,,,,,,1,,,,,,,,,,,,,666.2569999999832,,timeout,,,,,,,,,,,,,4,,,,,,,,,,,,,,,,,,,,,,,,,,,,,,,,,,,,,,,,,,,,,,,,,,,,,,,,,"[""coconut.png""]","[""chocolate_truffle.png""]",,,,3,,,false,,1,,,,,,,298231.1749999644,298230.558,297780.58,297798.59999998007,297797.623,298463.88,7,,,
timeout,canvas.Screen,2_4_2_6_1_0_0_0_0_6_1,2021-05-24T15:57:45.415Z,,,blank.png,blank.png,blank.png,blank.png,blank.png,blank.png,blank.png,"[""chocolate_truffle.png""]",blank.png,blank.png,blank.png,blank.png,blank.png,,,,,,,,,,,,,,,,,,,,,,,,,,,,,"[""chocolate_truffle.png""]","[""coconut.png""]",PB18.png,,,,,,,,,,,0,6,"[""coconut.png""]","[""coconut.png""]","[""coconut.png""]","[""coconut.png""]","[""coconut.png""]","[""coconut.png""]",blank.png,PB18.png,PB12.png,"[""coconut.png""]","[""coconut.png""]","[""coconut.png""]","[""coconut.png""]","[""coconut.png""]","[""coconut.png""]","[""coconut.png""]","[""coconut.png""]",blank.png,blank.png,blank.png,blank.png,1,"[""chocolate_truffle.png""]",blank.png,blank.png,blank.png,2,"[""coconut.png""]","[""coconut.png""]",blank.png,blank.png,blank.png,blank.png,PB12.png,,,,,,,,,,,1,,,,,,,,,,,,,683.3389999999781,,timeout,,,,,,,,,,,,,4,,,,,,,,,,,,,,,,,,,,,,,,,,,,,,,,,,,,,,,,,,,,,,,,,,,,,,,,,"[""coconut.png""]","[""chocolate_truffle.png""]",,,,3,,,false,,1,,,,,,,298947.5300000049,298947.192,298230.558,298475.4899999825,298463.88,299147.219,,,,
choice,canvas.Screen,2_4_2_6_1_0_0_0_0_6_2,2021-05-24T15:57:46.564Z,,,blank.png,blank.png,blank.png,blank.png,blank.png,blank.png,blank.png,"[""chocolate_truffle.png""]",blank.png,blank.png,blank.png,blank.png,blank.png,,,,,,,,,,,,,,,,,,,,,,,,,,,,,"[""chocolate_truffle.png""]","[""coconut.png""]",PB18.png,,,,,,,,,,,0,6,"[""coconut.png""]","[""coconut.png""]","[""coconut.png""]","[""coconut.png""]","[""coconut.png""]","[""coconut.png""]",blank.png,PB18.png,PB12.png,"[""coconut.png""]","[""coconut.png""]","[""coconut.png""]","[""coconut.png""]","[""coconut.png""]","[""coconut.png""]","[""coconut.png""]","[""coconut.png""]",blank.png,blank.png,blank.png,blank.png,1,"[""chocolate_truffle.png""]",blank.png,blank.png,blank.png,2,"[""coconut.png""]","[""coconut.png""]",blank.png,blank.png,blank.png,blank.png,PB12.png,,,,,,,,,,,1,,,,,,,,,,,,,948.2059999486082,,response,,,,,,,,,,,,,4,,,,,,,,,,,,,,,,,,,,,,,,,,,,,,,,,,,,,,,,,,,,,,,,,,,,,,,,,"[""coconut.png""]","[""chocolate_truffle.png""]",,,,3,left,keydown(ArrowLeft),false,,1,,,,,,,300096.21499991044,300095.4249999486,298947.192,299139.5799999591,299147.219,300297.221,,7,,
square,canvas.Screen,2_4_2_6_1_0_0_0_0_6_3,2021-05-24T15:57:47.749Z,,,blank.png,blank.png,blank.png,blank.png,blank.png,blank.png,blank.png,"[""chocolate_truffle.png""]",blank.png,blank.png,blank.png,blank.png,blank.png,,,,,,,,,,,,,,,,,,,,,,,,,,,,,"[""chocolate_truffle.png""]","[""coconut.png""]",PB18.png,,,,,,,,,,,0,6,"[""coconut.png""]","[""coconut.png""]","[""coconut.png""]","[""coconut.png""]","[""coconut.png""]","[""coconut.png""]",blank.png,PB18.png,PB12.png,"[""coconut.png""]","[""coconut.png""]","[""coconut.png""]","[""coconut.png""]","[""coconut.png""]","[""coconut.png""]","[""coconut.png""]","[""coconut.png""]",blank.png,blank.png,blank.png,blank.png,1,"[""chocolate_truffle.png""]",blank.png,blank.png,blank.png,2,"[""coconut.png""]","[""coconut.png""]",blank.png,blank.png,blank.png,blank.png,PB12.png,,,,,,,,,,,1,,,#33ff3f,#808080,,,,,,,,,1000.0749999999534,,timeout,,,,,,,,,,,,,4,,,,,,,,,,,,,,,,,,,,,,,,,,,,,,,,,,,,,,,,,,,,,,,,,,,,,,,,,"[""coconut.png""]","[""chocolate_truffle.png""]",,,,3,,,false,,1,,,,,black,white,301281.8499999121,301280.596,300280.486,300291.4950000122,300297.221,301297.296,,,,
ITI_late,canvas.Screen,2_4_2_6_1_0_0_0_0_6_4,2021-05-24T15:57:48.749Z,,,blank.png,blank.png,blank.png,blank.png,blank.png,blank.png,blank.png,"[""chocolate_truffle.png""]",blank.png,blank.png,blank.png,blank.png,blank.png,,,,,,,,,,,,,,,,,,,,,,,,,,,,,"[""chocolate_truffle.png""]","[""coconut.png""]",PB18.png,,,,,,,,,,,0,6,"[""coconut.png""]","[""coconut.png""]","[""coconut.png""]","[""coconut.png""]","[""coconut.png""]","[""coconut.png""]",blank.png,PB18.png,PB12.png,"[""coconut.png""]","[""coconut.png""]","[""coconut.png""]","[""coconut.png""]","[""coconut.png""]","[""coconut.png""]","[""coconut.png""]","[""coconut.png""]",blank.png,blank.png,blank.png,blank.png,1,"[""chocolate_truffle.png""]",blank.png,blank.png,blank.png,2,"[""coconut.png""]","[""coconut.png""]",blank.png,blank.png,blank.png,blank.png,PB12.png,,,,,,,,,,,1,,,,,,,,,,,,,1016.6070000000182,,timeout,,,,,,,,,,,,white,4,,,,,,,,,,,,,,,,,,,,,,,,,,,,,,,,,,,,,,,,,,,,,,,,,,,,,,,,,"[""coconut.png""]","[""chocolate_truffle.png""]",,,,3,,,false,,1,,,,,,,302281.1600000132,302280.578,301280.596,301288.6399999261,301297.296,302313.903,,,,
choice_sequence,flow.Sequence,2_4_2_6_1_0_0_0_0_6,2021-05-24T15:57:48.749Z,,,blank.png,blank.png,blank.png,blank.png,blank.png,blank.png,blank.png,"[""chocolate_truffle.png""]",blank.png,blank.png,blank.png,blank.png,blank.png,,,,,,,,,,,,,,,,,,,,,,,,,,,,,"[""chocolate_truffle.png""]","[""coconut.png""]",PB18.png,,,,,,,,,,,0,6,"[""coconut.png""]","[""coconut.png""]","[""coconut.png""]","[""coconut.png""]","[""coconut.png""]","[""coconut.png""]",blank.png,PB18.png,PB12.png,"[""coconut.png""]","[""coconut.png""]","[""coconut.png""]","[""coconut.png""]","[""coconut.png""]","[""coconut.png""]","[""coconut.png""]","[""coconut.png""]",blank.png,blank.png,blank.png,blank.png,1,"[""chocolate_truffle.png""]",blank.png,blank.png,blank.png,2,"[""coconut.png""]","[""coconut.png""]",blank.png,blank.png,blank.png,blank.png,PB12.png,,,,,,,,,,,1,,,,,,,,,,,,,4482.954999999958,,completion,,,,,,,,,,,,,4,,,,,,,,,,,,,,,,,,,,,,,,,,,,,,,,,,,,,,,,,,,,,,,,,,,,,,,,,"[""coconut.png""]","[""chocolate_truffle.png""]",,,,3,,,false,,1,,,,,,,302281.8349999143,302280.578,297780.58,297795.65500002354,297797.623,302313.903,,,,
choice_loop,flow.Loop,2_4_2_6_1_0_0_0_0,2021-05-24T15:57:48.750Z,,,,,,,,,,,,,,,,,,,,,,,,,,,,,,,,,,,,,,,,,,,,"[""chocolate_truffle.png""]","[""coconut.png""]",,,,,,,,,,,,,,,,,,,,,,,,,,,,,,,,,,,,,,,,,,,,,,,,,,,,,,,,,,,,,,,,,,,,,,,34166.978,,completion,,,,,,,,,,,,,,,,,,,,,,,,,,,,,,,,,,,,,,,,,,,,,,,,,,,,,,,,,,,,,,,,,,,,,,"[""coconut.png""]","[""chocolate_truffle.png""]",,,,3,,,false,,,,,,,,,302282.27500000503,302280.578,268096.914,268109.51999993995,268113.6,302313.903,,,,
choice_frame,html.Frame,2_4_2_6_1_0_0_0,2021-05-24T15:57:48.751Z,,,,,,,,,,,,,,,,,,,,,,,,,,,,,,,,,,,,,,,,,,,,,,,,,,,,,,,,,,,,,,,,,,,,,,,,,,,,,,,,,,,,,,,,,,,,,,,,,,,,,,,,,,,,,,,,,,,,34168.7899999494,,,,,,,,,,,,,,,,,,,,,,,,,,,,,,,,,,,,,,,,,,,,,,,,,,,,,,,,,,,,,,,,,,,,,,,,,,,,,3,,,false,,,,,,,,,302283.2049999852,302282.3899999494,268096.914,268097.50499995425,268113.6,302330.57,,,,
sublock_1,flow.Sequence,2_4_2_6_1_0_0,2021-05-24T15:57:48.751Z,,,,,,,,,,,,,,,,,,,,,,,,,,,,,,,,,,,,,,,,,,,,,,,,,,,,,,,,,,,,,,,,,,,,,,,,,,,,,,,,,,,,,,,,,,,,,,,,,,,,,,,,,,,,,,,,,,,,34168.7899999494,,completion,,,,,,,,,,,,,,,,,,,,,,,,,,,,,,,,,,,,,,,,,,,,,,,,,,,,,,,,,,,,,,,,,,,,,,,,,,,3,,,false,,,,,,,,,302283.59000000637,302282.3899999494,268096.914,268097.4849999184,268113.6,302330.57,,,,
fixCross,canvas.Screen,2_4_2_6_1_0_1_0_0_0_0,2021-05-24T15:57:49.283Z,,,blank.png,blank.png,blank.png,blank.png,blank.png,blank.png,blank.png,"[""chocolate_truffle.png""]",blank.png,blank.png,blank.png,blank.png,blank.png,,,,,,,,,,,,,,,,,,,,,,,,,,,,,"[""chocolate_truffle.png""]","[""coconut.png""]",PB18.png,,,,,,,,,,,0,6,"[""coconut.png""]","[""coconut.png""]","[""coconut.png""]","[""coconut.png""]","[""coconut.png""]","[""coconut.png""]",blank.png,PB18.png,PB12.png,"[""coconut.png""]","[""coconut.png""]","[""coconut.png""]","[""coconut.png""]","[""coconut.png""]","[""coconut.png""]","[""coconut.png""]","[""coconut.png""]",blank.png,blank.png,blank.png,blank.png,1,"[""chocolate_truffle.png""]",blank.png,blank.png,blank.png,2,"[""coconut.png""]","[""coconut.png""]",blank.png,blank.png,blank.png,blank.png,PB12.png,,,,,,,,,,,1,,,,,,,,,,,,,733.3470000000088,,timeout,,,,,,,,,,,,,4,,,,,,,,,,,,,,,,,,,,,,,,,,,,,,,,,,,,,,,,,,,,,,,,,,,,,,,,,"[""coconut.png""]","[""chocolate_truffle.png""]",,,,1,,,false,,1,,,,,,,302815.01000002027,302813.957,302313.903,302320.39000000805,302330.57,303063.917,8,,,
timeout,canvas.Screen,2_4_2_6_1_0_1_0_0_0_1,2021-05-24T15:57:50.016Z,,,blank.png,blank.png,blank.png,blank.png,blank.png,blank.png,blank.png,"[""chocolate_truffle.png""]",blank.png,blank.png,blank.png,blank.png,blank.png,,,,,,,,,,,,,,,,,,,,,,,,,,,,,"[""chocolate_truffle.png""]","[""coconut.png""]",PB18.png,,,,,,,,,,,0,6,"[""coconut.png""]","[""coconut.png""]","[""coconut.png""]","[""coconut.png""]","[""coconut.png""]","[""coconut.png""]",blank.png,PB18.png,PB12.png,"[""coconut.png""]","[""coconut.png""]","[""coconut.png""]","[""coconut.png""]","[""coconut.png""]","[""coconut.png""]","[""coconut.png""]","[""coconut.png""]",blank.png,blank.png,blank.png,blank.png,1,"[""chocolate_truffle.png""]",blank.png,blank.png,blank.png,2,"[""coconut.png""]","[""coconut.png""]",blank.png,blank.png,blank.png,blank.png,PB12.png,,,,,,,,,,,1,,,,,,,,,,,,,716.6779999999562,,timeout,,,,,,,,,,,,,4,,,,,,,,,,,,,,,,,,,,,,,,,,,,,,,,,,,,,,,,,,,,,,,,,,,,,,,,,"[""coconut.png""]","[""chocolate_truffle.png""]",,,,1,,,false,,1,,,,,,,303548.269999912,303547.299,302813.957,303059.4900000142,303063.917,303780.595,,,,
choice,canvas.Screen,2_4_2_6_1_0_1_0_0_0_2,2021-05-24T15:57:52.257Z,,,blank.png,blank.png,blank.png,blank.png,blank.png,blank.png,blank.png,"[""chocolate_truffle.png""]",blank.png,blank.png,blank.png,blank.png,blank.png,,,,,,,,,,,,,,,,,,,,,,,,,,,,,"[""chocolate_truffle.png""]","[""coconut.png""]",PB18.png,,,,,,,,,,,0,6,"[""coconut.png""]","[""coconut.png""]","[""coconut.png""]","[""coconut.png""]","[""coconut.png""]","[""coconut.png""]",blank.png,PB18.png,PB12.png,"[""coconut.png""]","[""coconut.png""]","[""coconut.png""]","[""coconut.png""]","[""coconut.png""]","[""coconut.png""]","[""coconut.png""]","[""coconut.png""]",blank.png,blank.png,blank.png,blank.png,1,"[""chocolate_truffle.png""]",blank.png,blank.png,blank.png,2,"[""coconut.png""]","[""coconut.png""]",blank.png,blank.png,blank.png,blank.png,PB12.png,,,,,,,,,,,1,,,,,,,,,,,,,2003.5249999675434,,response,,,,,,,,,,,,,4,,,,,,,,,,,,,,,,,,,,,,,,,,,,,,,,,,,,,,,,,,,,,,,,,,,,,,,,,"[""coconut.png""]","[""chocolate_truffle.png""]",,,,1,right,keydown(ArrowRight),false,,1,,,,,,,305789.2649999121,305784.1199999675,303547.299,303780.1549999276,303780.595,306063.942,,8,,
square,canvas.Screen,2_4_2_6_1_0_1_0_0_0_3,2021-05-24T15:57:53.516Z,,,blank.png,blank.png,blank.png,blank.png,blank.png,blank.png,blank.png,"[""chocolate_truffle.png""]",blank.png,blank.png,blank.png,blank.png,blank.png,,,,,,,,,,,,,,,,,,,,,,,,,,,,,"[""chocolate_truffle.png""]","[""coconut.png""]",PB18.png,,,,,,,,,,,0,6,"[""coconut.png""]","[""coconut.png""]","[""coconut.png""]","[""coconut.png""]","[""coconut.png""]","[""coconut.png""]",blank.png,PB18.png,PB12.png,"[""coconut.png""]","[""coconut.png""]","[""coconut.png""]","[""coconut.png""]","[""coconut.png""]","[""coconut.png""]","[""coconut.png""]","[""coconut.png""]",blank.png,blank.png,blank.png,blank.png,1,"[""chocolate_truffle.png""]",blank.png,blank.png,blank.png,2,"[""coconut.png""]","[""coconut.png""]",blank.png,blank.png,blank.png,blank.png,PB12.png,,,,,,,,,,,1,,,#808080,#33ff3f,,,,,,,,,1000.1000000000349,,timeout,,,,,,,,,,,,,4,,,,,,,,,,,,,,,,,,,,,,,,,,,,,,,,,,,,,,,,,,,,,,,,,,,,,,,,,"[""coconut.png""]","[""chocolate_truffle.png""]",,,,1,,,false,,1,,,,,white,black,307048.49499999546,307047.361,306047.153,306051.6799999168,306063.942,307064.042,,,,
ITI_late,canvas.Screen,2_4_2_6_1_0_1_0_0_0_4,2021-05-24T15:57:54.266Z,,,blank.png,blank.png,blank.png,blank.png,blank.png,blank.png,blank.png,"[""chocolate_truffle.png""]",blank.png,blank.png,blank.png,blank.png,blank.png,,,,,,,,,,,,,,,,,,,,,,,,,,,,,"[""chocolate_truffle.png""]","[""coconut.png""]",PB18.png,,,,,,,,,,,0,6,"[""coconut.png""]","[""coconut.png""]","[""coconut.png""]","[""coconut.png""]","[""coconut.png""]","[""coconut.png""]",blank.png,PB18.png,PB12.png,"[""coconut.png""]","[""coconut.png""]","[""coconut.png""]","[""coconut.png""]","[""coconut.png""]","[""coconut.png""]","[""coconut.png""]","[""coconut.png""]",blank.png,blank.png,blank.png,blank.png,1,"[""chocolate_truffle.png""]",blank.png,blank.png,blank.png,2,"[""coconut.png""]","[""coconut.png""]",blank.png,blank.png,blank.png,blank.png,PB12.png,,,,,,,,,,,1,,,,,,,,,,,,,749.9949999999953,,timeout,,,,,,,,,,,,white,4,,,,,,,,,,,,,,,,,,,,,,,,,,,,,,,,,,,,,,,,,,,,,,,,,,,,,,,,,"[""coconut.png""]","[""chocolate_truffle.png""]",,,,1,,,false,,1,,,,,,,307798.47999999765,307797.373,307047.361,307053.88999998104,307064.042,307814.037,,,,
choice_sequence,flow.Sequence,2_4_2_6_1_0_1_0_0_0,2021-05-24T15:57:54.267Z,,,blank.png,blank.png,blank.png,blank.png,blank.png,blank.png,blank.png,"[""chocolate_truffle.png""]",blank.png,blank.png,blank.png,blank.png,blank.png,,,,,,,,,,,,,,,,,,,,,,,,,,,,,"[""chocolate_truffle.png""]","[""coconut.png""]",PB18.png,,,,,,,,,,,0,6,"[""coconut.png""]","[""coconut.png""]","[""coconut.png""]","[""coconut.png""]","[""coconut.png""]","[""coconut.png""]",blank.png,PB18.png,PB12.png,"[""coconut.png""]","[""coconut.png""]","[""coconut.png""]","[""coconut.png""]","[""coconut.png""]","[""coconut.png""]","[""coconut.png""]","[""coconut.png""]",blank.png,blank.png,blank.png,blank.png,1,"[""chocolate_truffle.png""]",blank.png,blank.png,blank.png,2,"[""coconut.png""]","[""coconut.png""]",blank.png,blank.png,blank.png,blank.png,PB12.png,,,,,,,,,,,1,,,,,,,,,,,,,5466.803000000014,,completion,,,,,,,,,,,,,4,,,,,,,,,,,,,,,,,,,,,,,,,,,,,,,,,,,,,,,,,,,,,,,,,,,,,,,,,"[""coconut.png""]","[""chocolate_truffle.png""]",,,,1,,,false,,1,,,,,,,307799.87999994773,307797.373,302313.903,302319.6449999232,302330.57,307814.037,,,,
fixCross,canvas.Screen,2_4_2_6_1_0_1_0_0_1_0,2021-05-24T15:57:54.815Z,,,blank.png,blank.png,blank.png,blank.png,blank.png,blank.png,blank.png,"[""chocolate_truffle.png""]",blank.png,blank.png,blank.png,blank.png,blank.png,,,,,,,,,,,,,,,,,,,,,,,,,,,,,"[""chocolate_truffle.png""]","[""coconut.png""]",PB18.png,,,,,,,,,,,0,6,"[""coconut.png""]","[""coconut.png""]","[""coconut.png""]","[""coconut.png""]","[""coconut.png""]","[""coconut.png""]",blank.png,PB18.png,PB17.png,"[""coconut.png""]","[""coconut.png""]","[""coconut.png""]","[""coconut.png""]","[""coconut.png""]","[""coconut.png""]","[""coconut.png""]","[""coconut.png""]","[""coconut.png""]","[""coconut.png""]","[""coconut.png""]","[""coconut.png""]",1,"[""chocolate_truffle.png""]",blank.png,blank.png,blank.png,6,"[""coconut.png""]","[""coconut.png""]","[""coconut.png""]","[""coconut.png""]","[""coconut.png""]","[""coconut.png""]",PB17.png,,,,,,,,,,,1,,,,,,,,,,,,,749.9280000000144,,timeout,,,,,,,,,,,,,4,,,,,,,,,,,,,,,,,,,,,,,,,,,,,,,,,,,,,,,,,,,,,,,,,,,,,,,,,"[""coconut.png""]","[""chocolate_truffle.png""]",,,,1,,,false,,1,,,,,,,308347.7299999213,308347.289,307797.373,307813.58499999624,307814.037,308563.965,9,,,
timeout,canvas.Screen,2_4_2_6_1_0_1_0_0_1_1,2021-05-24T15:57:55.515Z,,,blank.png,blank.png,blank.png,blank.png,blank.png,blank.png,blank.png,"[""chocolate_truffle.png""]",blank.png,blank.png,blank.png,blank.png,blank.png,,,,,,,,,,,,,,,,,,,,,,,,,,,,,"[""chocolate_truffle.png""]","[""coconut.png""]",PB18.png,,,,,,,,,,,0,6,"[""coconut.png""]","[""coconut.png""]","[""coconut.png""]","[""coconut.png""]","[""coconut.png""]","[""coconut.png""]",blank.png,PB18.png,PB17.png,"[""coconut.png""]","[""coconut.png""]","[""coconut.png""]","[""coconut.png""]","[""coconut.png""]","[""coconut.png""]","[""coconut.png""]","[""coconut.png""]","[""coconut.png""]","[""coconut.png""]","[""coconut.png""]","[""coconut.png""]",1,"[""chocolate_truffle.png""]",blank.png,blank.png,blank.png,6,"[""coconut.png""]","[""coconut.png""]","[""coconut.png""]","[""coconut.png""]","[""coconut.png""]","[""coconut.png""]",PB17.png,,,,,,,,,,,1,,,,,,,,,,,,,683.3519999999553,,timeout,,,,,,,,,,,,,4,,,,,,,,,,,,,,,,,,,,,,,,,,,,,,,,,,,,,,,,,,,,,,,,,,,,,,,,,"[""coconut.png""]","[""chocolate_truffle.png""]",,,,1,,,false,,1,,,,,,,309047.64999996405,309047.287,308347.289,308567.2449999256,308563.965,309247.317,,,,
choice,canvas.Screen,2_4_2_6_1_0_1_0_0_1_2,2021-05-24T15:57:56.836Z,,,blank.png,blank.png,blank.png,blank.png,blank.png,blank.png,blank.png,"[""chocolate_truffle.png""]",blank.png,blank.png,blank.png,blank.png,blank.png,,,,,,,,,,,,,,,,,,,,,,,,,,,,,"[""chocolate_truffle.png""]","[""coconut.png""]",PB18.png,,,,,,,,,,,0,6,"[""coconut.png""]","[""coconut.png""]","[""coconut.png""]","[""coconut.png""]","[""coconut.png""]","[""coconut.png""]",blank.png,PB18.png,PB17.png,"[""coconut.png""]","[""coconut.png""]","[""coconut.png""]","[""coconut.png""]","[""coconut.png""]","[""coconut.png""]","[""coconut.png""]","[""coconut.png""]","[""coconut.png""]","[""coconut.png""]","[""coconut.png""]","[""coconut.png""]",1,"[""chocolate_truffle.png""]",blank.png,blank.png,blank.png,6,"[""coconut.png""]","[""coconut.png""]","[""coconut.png""]","[""coconut.png""]","[""coconut.png""]","[""coconut.png""]",PB17.png,,,,,,,,,,,1,,,,,,,,,,,,,1120.1330000197631,,response,,,,,,,,,,,,,4,,,,,,,,,,,,,,,,,,,,,,,,,,,,,,,,,,,,,,,,,,,,,,,,,,,,,,,,,"[""coconut.png""]","[""chocolate_truffle.png""]",,,,1,right,keydown(ArrowRight),false,,1,,,,,,,310368.284999975,310367.45000001974,309047.287,309243.39999991935,309247.317,310597.315,,9,,
square,canvas.Screen,2_4_2_6_1_0_1_0_0_1_3,2021-05-24T15:57:58.050Z,,,blank.png,blank.png,blank.png,blank.png,blank.png,blank.png,blank.png,"[""chocolate_truffle.png""]",blank.png,blank.png,blank.png,blank.png,blank.png,,,,,,,,,,,,,,,,,,,,,,,,,,,,,"[""chocolate_truffle.png""]","[""coconut.png""]",PB18.png,,,,,,,,,,,0,6,"[""coconut.png""]","[""coconut.png""]","[""coconut.png""]","[""coconut.png""]","[""coconut.png""]","[""coconut.png""]",blank.png,PB18.png,PB17.png,"[""coconut.png""]","[""coconut.png""]","[""coconut.png""]","[""coconut.png""]","[""coconut.png""]","[""coconut.png""]","[""coconut.png""]","[""coconut.png""]","[""coconut.png""]","[""coconut.png""]","[""coconut.png""]","[""coconut.png""]",1,"[""chocolate_truffle.png""]",blank.png,blank.png,blank.png,6,"[""coconut.png""]","[""coconut.png""]","[""coconut.png""]","[""coconut.png""]","[""coconut.png""]","[""coconut.png""]",PB17.png,,,,,,,,,,,1,,,#808080,#33ff3f,,,,,,,,,1000.140000000014,,timeout,,,,,,,,,,,,,4,,,,,,,,,,,,,,,,,,,,,,,,,,,,,,,,,,,,,,,,,,,,,,,,,,,,,,,,,"[""coconut.png""]","[""chocolate_truffle.png""]",,,,1,,,false,,1,,,,,white,black,311582.0250000106,311580.724,310580.585,310580.97000001,310597.315,311597.455,,,,
ITI_late,canvas.Screen,2_4_2_6_1_0_1_0_0_1_4,2021-05-24T15:57:59.299Z,,,blank.png,blank.png,blank.png,blank.png,blank.png,blank.png,blank.png,"[""chocolate_truffle.png""]",blank.png,blank.png,blank.png,blank.png,blank.png,,,,,,,,,,,,,,,,,,,,,,,,,,,,,"[""chocolate_truffle.png""]","[""coconut.png""]",PB18.png,,,,,,,,,,,0,6,"[""coconut.png""]","[""coconut.png""]","[""coconut.png""]","[""coconut.png""]","[""coconut.png""]","[""coconut.png""]",blank.png,PB18.png,PB17.png,"[""coconut.png""]","[""coconut.png""]","[""coconut.png""]","[""coconut.png""]","[""coconut.png""]","[""coconut.png""]","[""coconut.png""]","[""coconut.png""]","[""coconut.png""]","[""coconut.png""]","[""coconut.png""]","[""coconut.png""]",1,"[""chocolate_truffle.png""]",blank.png,blank.png,blank.png,6,"[""coconut.png""]","[""coconut.png""]","[""coconut.png""]","[""coconut.png""]","[""coconut.png""]","[""coconut.png""]",PB17.png,,,,,,,,,,,1,,,,,,,,,,,,,1249.875,,timeout,,,,,,,,,,,,white,4,,,,,,,,,,,,,,,,,,,,,,,,,,,,,,,,,,,,,,,,,,,,,,,,,,,,,,,,,"[""coconut.png""]","[""chocolate_truffle.png""]",,,,1,,,false,,1,,,,,,,312831.01999992505,312830.661,311580.724,311587.9999999888,311597.455,312847.33,,,,
choice_sequence,flow.Sequence,2_4_2_6_1_0_1_0_0_1,2021-05-24T15:57:59.299Z,,,blank.png,blank.png,blank.png,blank.png,blank.png,blank.png,blank.png,"[""chocolate_truffle.png""]",blank.png,blank.png,blank.png,blank.png,blank.png,,,,,,,,,,,,,,,,,,,,,,,,,,,,,"[""chocolate_truffle.png""]","[""coconut.png""]",PB18.png,,,,,,,,,,,0,6,"[""coconut.png""]","[""coconut.png""]","[""coconut.png""]","[""coconut.png""]","[""coconut.png""]","[""coconut.png""]",blank.png,PB18.png,PB17.png,"[""coconut.png""]","[""coconut.png""]","[""coconut.png""]","[""coconut.png""]","[""coconut.png""]","[""coconut.png""]","[""coconut.png""]","[""coconut.png""]","[""coconut.png""]","[""coconut.png""]","[""coconut.png""]","[""coconut.png""]",1,"[""chocolate_truffle.png""]",blank.png,blank.png,blank.png,6,"[""coconut.png""]","[""coconut.png""]","[""coconut.png""]","[""coconut.png""]","[""coconut.png""]","[""coconut.png""]",PB17.png,,,,,,,,,,,1,,,,,,,,,,,,,5016.624000000011,,completion,,,,,,,,,,,,,4,,,,,,,,,,,,,,,,,,,,,,,,,,,,,,,,,,,,,,,,,,,,,,,,,,,,,,,,,"[""coconut.png""]","[""chocolate_truffle.png""]",,,,1,,,false,,1,,,,,,,312831.3499999931,312830.661,307797.373,307810.95499999356,307814.037,312847.33,,,,
fixCross,canvas.Screen,2_4_2_6_1_0_1_0_0_2_0,2021-05-24T15:57:59.699Z,,,blank.png,blank.png,blank.png,blank.png,blank.png,blank.png,blank.png,"[""chocolate_truffle.png""]",blank.png,blank.png,blank.png,blank.png,blank.png,,,,,,,,,,,,,,,,,,,,,,,,,,,,,"[""chocolate_truffle.png""]","[""coconut.png""]",PB18.png,,,,,,,,,,,0,6,"[""coconut.png""]","[""coconut.png""]","[""coconut.png""]","[""coconut.png""]","[""coconut.png""]","[""coconut.png""]",blank.png,PB18.png,PB07.png,"[""coconut.png""]","[""coconut.png""]","[""coconut.png""]","[""coconut.png""]","[""coconut.png""]","[""coconut.png""]","[""coconut.png""]",blank.png,blank.png,blank.png,blank.png,blank.png,1,"[""chocolate_truffle.png""]",blank.png,blank.png,blank.png,1,"[""coconut.png""]",blank.png,blank.png,blank.png,blank.png,blank.png,PB07.png,,,,,,,,,,,1,,,,,,,,,,,,,633.36599999998,,timeout,,,,,,,,,,,,,4,,,,,,,,,,,,,,,,,,,,,,,,,,,,,,,,,,,,,,,,,,,,,,,,,,,,,,,,,"[""coconut.png""]","[""chocolate_truffle.png""]",,,,1,,,false,,1,,,,,,,313231.824999908,313230.711,312830.661,312839.0949999448,312847.33,313480.696,10,,,
