sender,sender_type,sender_id,timestamp,meta,,Blank,DownLeft1,DownLeft2,DownLeft3,DownLeft4,DownLeft5,DownLeft6,DownRight1,DownRight2,DownRight3,DownRight4,DownRight5,DownRight6,FoodHabits_Fru_item1,FoodHabits_Fru_item2,FoodHabits_Fru_item3,FoodHabits_Fru_item4,FoodHabits_Fru_item5,FoodHabits_Fru_item6,FoodHabits_Fru_item7,FoodHabits_Meat_item1,FoodHabits_Meat_item2,FoodHabits_Meat_item3,FoodHabits_Meat_item4,FoodHabits_Meat_item5,FoodHabits_Meat_item6,FoodHabits_Meat_item7,FoodHabits_Swe_item1,FoodHabits_Swe_item2,FoodHabits_Swe_item3,FoodHabits_Swe_item4,FoodHabits_Swe_item5,FoodHabits_Swe_item6,FoodHabits_Swe_item7,FoodHabits_Veg_item1,FoodHabits_Veg_item2,FoodHabits_Veg_item3,FoodHabits_Veg_item4,FoodHabits_Veg_item5,FoodHabits_Veg_item6,FoodHabits_Veg_item7,ImgA,ImgB,LeftBar,PSS_item01,PSS_item02,PSS_item03,PSS_item04,PSS_item05,PSS_item06,PSS_item07,PSS_item08,PSS_item09,PSS_item10,RefA,RefB,RefB1,RefB2,RefB3,RefB4,RefB5,RefB6,RefB7,Ref_PB,RightBar,UpLeft1,UpLeft2,UpLeft3,UpLeft4,UpLeft5,UpLeft6,UpRight1,UpRight2,UpRight3,UpRight4,UpRight5,UpRight6,VarA,VarA1,VarA2,VarA3,VarA4,VarB,VarB1,VarB2,VarB3,VarB4,VarB5,VarB6,Var_PB,attCheck_fileA,attCheck_fileB,attCheck_fileC,attCheck_fileD,attCheck_options,attCheck_valueA,attCheck_valueB,attCheck_valueC,attCheck_valueD,attention_check,block,browser_name,choseL,choseR,consent_form1,consent_form2,consentconfirmation_form1,consentconfirmation_form2,correct,correctResponse,diet,disorder,duration,edu,ended_on,enjoy,full_version,gender,group,hunger,img,imgTask,input_age,input_meal,input_occ,input_remark,lateRespFeed,list,major_version,message,mixQ_item1,mixQ_item2,mixQ_item3,mixQ_item4,mixQ_item5,name,navigator_appName,navigator_userAgent,os,pracQ1_IDa,pracQ1_IDb,pracQ1_IDc,pracQ1_IDd,pracQ1_optionA,pracQ1_optionB,pracQ1_optionC,pracQ1_optionD,pracQ1_valueA,pracQ1_valueB,pracQ1_valueC,pracQ1_valueD,pracQ2_IDa,pracQ2_IDb,pracQ2_IDc,pracQ2_optionA,pracQ2_optionB,pracQ2_optionC,pracQ2_valueA,pracQ2_valueB,pracQ2_valueC,pracQ4_IDa,pracQ4_IDb,pracQ4_IDc,pracQ4_IDd,pracQ4_optionA,pracQ4_optionB,pracQ4_optionC,pracQ4_optionD,pracQ4_valueA,pracQ4_valueB,pracQ4_valueC,pracQ4_valueD,pracQ5_IDa,pracQ5_IDb,pracQ5_IDc,pracQ5_IDd,pracQ5_optionA,pracQ5_optionB,pracQ5_optionC,pracQ5_optionD,pracQ5_valueA,pracQ5_valueB,pracQ5_valueC,pracQ5_valueD,prefHealty,prefUnhealthy,prolific_ID,psessionID,pstudyID,rep,response,response_action,skip,snack,sublock,subtitle,task_difficulty,task_engagement,task_focus,textL,textR,time_commit,time_end,time_render,time_run,time_show,time_switch,trial_count,trial_countO,url,valence
Title,html.Page,0,2021-01-15T11:53:41.332Z,"{""labjs_version"":""20.1.1"",""labjs_build"":{""flavor"":""production"",""commit"":""c48ac4ada3769e8d34489594ab03097d5f256ac7""},""location"":""https://run.pavlovia.org/E3lab/rebund/html/?PROLIFIC_PID={{%PROLIFIC_PID%}}&STUDY_ID={{%STUDY_ID%}}&SESSION_ID={{%SESSION_ID%}}"",""userAgent"":""Mozilla/5.0 (Windows NT 10.0; Win64; x64) AppleWebKit/537.36 (KHTML, like Gecko) Chrome/87.0.4280.141 Safari/537.36"",""platform"":""Win32"",""language"":""en-US"",""locale"":""en-US"",""timeZone"":""Europe/Kiev"",""timezoneOffset"":-120,""screen_width"":1920,""screen_height"":1080,""scroll_width"":1920,""scroll_height"":959,""window_innerWidth"":1920,""window_innerHeight"":1007,""devicePixelRatio"":1}",,,,,,,,,,,,,,,,,,,,,,,,,,,,,,,,,,,,,,,,,,,,,,,,,,,,,,,,,,,,,,,,,,,,,,,,,,,,,,,,,,,,,,,,,,,,,,,,,,,,,,,,,,,,,,,,,,3444.6449999894203,,form submission,,,,,,,,,,,,,,,,,,,,,,,,,,,,,,,,,,,,,,,,,,,,,,,,,,,,,,,,,,,,,,,,,,,,,,,,,,,,,,,,,,,,,,,5441.415000008419,5441.01499998942,1946.421,1949.4549999944866,1996.37,5446.3,,,"{""PROLIFIC_PID"":""{{%PROLIFIC_PID%}}"",""STUDY_ID"":""{{%STUDY_ID%}}"",""SESSION_ID"":""{{%SESSION_ID%}}""}",
get_systemInfo,canvas.Screen,1,2021-01-15T11:53:41.348Z,,,,,,,,,,,,,,,,,,,,,,,,,,,,,,,,,,,,,,,,,,,,,,,,,,,,,,,,,,,,,,,,,,,,,,,,,,,,,,,,,,,,,,,,,,,,,,,,,,,,,,,,Chrome,,,,,,,,,,,2600.058,,timeout,,87.0.4280.141,,,,,,,,,,,,87,,,,,,,,Netscape,"Mozilla/5.0 (Windows NT 10.0; Win64; x64) AppleWebKit/537.36 (KHTML, like Gecko) Chrome/87.0.4280.141 Safari/537.36",Windows,,,,,,,,,,,,,,,,,,,,,,,,,,,,,,,,,,,,,,,,,,,,,,,,{{%PROLIFIC_PID%}},,{{%STUDY_ID%}},,,,,,,,,,,,,5457.554999971762,5457.11499999743,5429.811,5442.370000004303,5446.3,8046.358,,,,
ConsentForm,html.Form,2_0,2021-01-15T11:53:50.901Z,,,,,,,,,,,,,,,,,,,,,,,,,,,,,,,,,,,,,,,,,,,,,,,,,,,,,,,,,,,,,,,,,,,,,,,,,,,,,,,,,,,,,,,,,,,,,,,,,,,,,,,,,,,true,true,,,,,,,6963.966999981094,,form submission,,,,,,,,,,,,,,,,,,,,,,,,,,,,,,,,,,,,,,,,,,,,,,,,,,,,,,,,,,,,,,,,,,,,,,,,,,,,,,,,,,,,,,,15010.59499999974,15010.324999981094,5457.11499999743,8062.020000012126,8046.358,15012.885,,,,
PepTalk,html.Page,2_1,2021-01-15T11:54:12.571Z,,,,,,,,,,,,,,,,,,,,,,,,,,,,,,,,,,,,,,,,,,,,,,,,,,,,,,,,,,,,,,,,,,,,,,,,,,,,,,,,,,,,,,,,,,,,,,,,,,,,,,,,,,,,,,,,,,,21667.989999961814,,form submission,,,,,,,,,,,,,,,,,,,,,,,,,,,,,,,,,,,,,,,,,,,,,,,,,,,,,,,,,,,,,,,,,,,,,,,,,,,,,,,,,,,,,,,36681.16499995813,36680.874999961816,14996.213,15010.739999997895,15012.885,36695.87,,,,
Demographics,html.Form,2_2,2021-01-15T11:54:26.416Z,,,,,,,,,,,,,,,,,,,,,,,,,,,,,,,,,,,,,,,,,,,,,,,,,,,,,,,,,,,,,,,,,,,,,,,,,,,,,,,,,,,,,,,,,,,,,,,,,,,,,,,,,,,,,,,,,,,13829.595000013353,2,form submission,,,1,,,,,19,,Web designer,,,,,,,,,,,,,,,,,,,,,,,,,,,,,,,,,,,,,,,,,,,,,,,,,,,,,,,,,,,,,,,,,,,,,,,,,,,,,50525.73499997379,50525.465000013355,36679.239,36681.349999969825,36695.87,50529.105,,,,
InclusionCrit,html.Form,2_3,2021-01-15T11:54:38.717Z,,,,,,,,,,,,,,,,,,,,,,,,,,,,,,,,,,,,,,,,,,,,,,,,,,,,,,,,,,,,,,,,,,,,,,,,,,,,,,,,,,,,,,,,,,,,,,,,,,,,,,,,,,,,,,,,,1,1,12296.98499998774,,form submission,1,,,,,,,,,,,,,,,,,,,,,,,,,,,,,,,,,,,,,,,,,,,,,,,,,,,,,,,,,,,,,,,,,,,,,,,,,,,,,,,,,,,,,,62826.36000000639,62826.089999987744,50512.416,50525.90999996755,50529.105,62828.99,,,,
Selection,html.Page,2_4_0,2021-01-15T11:54:42.476Z,,,,,,,,,,,,,,,,,,,,,,,,,,,,,,,,,,,,,,,,,,,,,,,,,,,,,,,,,,,,,,,,,,,,,,,,,,,,,,,,,,,,,,,,,,,,,,,,,,,,,,,,,,,,,,,,,,,3755.829999989124,,form submission,,,,,,,,,,,,,,,,,,,,,,,,,,,,,,,,,,,,,,,,,,,,,,,,,,,,,,,,,,,,,,,,,,,,,,,,,,,,,,,0,,,,,,,,66585.04999999423,66584.81999998912,62812.351,62826.59499999136,62828.99,66595.584,,,,
Load,html.Page,2_4_1,2021-01-15T11:54:42.489Z,,,,,,,,,,,,,,,,,,,,,,,,,,,,,,,,,,,,,,,,,,,,,,,,,,,,,,,,,,,,,,,,,,,,,,,,,,,,,,,,,,,,,,,,,,,,,,,,,,,,,,,,,,,,,,,,,,,2549.9219999999914,,timeout,,,,,,,,,,,,,,,,,,,,,,,,,,,,,,,,,,,,,,,,,,,,,,,,,,,,,,,,,,,,,,,,,,,,,,,,,,,,,,,,,,,,,,,66598.06499996921,66597.65000001062,66578.854,66585.19999997225,66595.584,69145.506,,,,
ratings_instructions,html.Screen,2_4_2_0,2021-01-15T11:54:55.909Z,,,,,,,,,,,,,,,,,,,,,,,,,,,,,,,,,,,,,,,,,,,,,,,,,,,,,,,,,,,,,,,,,,,,,,,,,,,,,,,,,,,,,,,,,,,,,,,,,,,,,,,,,,,,,,,,,,,10870.353999984975,,response,,,,,,,,,,,,,,,,,,,,,,,,,,,,,,,,,,,,,,,,,,,,,,,,,,,,,,,,,,,,,,,,,,,,,,,,,,,,continue,keypress(Space),false,,,,,,,,,80018.43999995617,80015.85999998497,66597.65000001062,69200.78499999363,69145.506,80028.674,0,0,,
fixCross,canvas.Screen,2_4_2_1_0_0,2021-01-15T11:54:56.403Z,,,,,,,,,,,,,,,,,,,,,,,,,,,,,,,,,,,,,,,,,,,,,,,,,,,,,,,,,,,,,,,,,,,,,,,,,,,,,,,,,,,,,,,,,,,,,,,,,,,,,,,,,,,,,,,,,,,499.99199999999837,,timeout,,,,unhealthy,,m&m.png,,,,,,,,,,,,,,,m&m,,,,,,,,,,,,,,,,,,,,,,,,,,,,,,,,,,,,,,,,,,,,,,,,,,,,,,,,,false,,,,,,,,,80512.84499996109,80512.082,80012.069,80018.7450000085,80028.674,80528.666,,,,
Rating,html.Form,2_4_2_1_0_1,2021-01-15T11:55:00.258Z,,,,,,,,,,,,,,,,,,,,,,,,,,,,,,,,,,,,,,,,,,,,,,,,,,,,,,,,,,,,,,,,,,,,,,,,,,,,,,,,,,,,,,,,,,,,,,,,,,,,,,,,,,,,,,,,,,,3838.3939999604772,,form submission,,,,unhealthy,,m&m.png,,,,,,,,,,,,,,,m&m,,,,,,,,,,,,,,,,,,,,,,,,,,,,,,,,,,,,,,,,,,,,,,,,,,,,,,,,,false,,,,,,,,,84367.28999996558,84367.05999996047,80512.082,80512.97999999952,80528.666,84378.675,,,,57
rating_sequence,flow.Sequence,2_4_2_1_0,2021-01-15T11:55:00.260Z,,,,,,,,,,,,,,,,,,,,,,,,,,,,,,,,,,,,,,,,,,,,,,,,,,,,,,,,,,,,,,,,,,,,,,,,,,,,,,,,,,,,,,,,,,,,,,,,,,,,,,,,,,,,,,,,,,,4338.385999960476,,completion,,,,unhealthy,,m&m.png,,,,,,,,,,,,,,,m&m,,,,,,,,,,,,,,,,,,,,,,,,,,,,,,,,,,,,,,,,,,,,,,,,,,,,,,,,,false,,,,,,,,,84369.05499995919,84367.05999996047,80012.069,80018.70999997482,80028.674,84378.675,,,,
fixCross,canvas.Screen,2_4_2_1_1_0,2021-01-15T11:55:00.753Z,,,,,,,,,,,,,,,,,,,,,,,,,,,,,,,,,,,,,,,,,,,,,,,,,,,,,,,,,,,,,,,,,,,,,,,,,,,,,,,,,,,,,,,,,,,,,,,,,,,,,,,,,,,,,,,,,,,499.9290000000037,,timeout,,,,healthy,,raspberry.png,,,,,,,,,,,,,,,raspberry,,,,,,,,,,,,,,,,,,,,,,,,,,,,,,,,,,,,,,,,,,,,,,,,,,,,,,,,,false,,,,,,,,,84862.83499997808,84862.028,84362.056,84369.20999997528,84378.675,84878.604,,,,
Rating,html.Form,2_4_2_1_1_1,2021-01-15T11:55:04.605Z,,,,,,,,,,,,,,,,,,,,,,,,,,,,,,,,,,,,,,,,,,,,,,,,,,,,,,,,,,,,,,,,,,,,,,,,,,,,,,,,,,,,,,,,,,,,,,,,,,,,,,,,,,,,,,,,,,,3836.1359999666893,,form submission,,,,healthy,,raspberry.png,,,,,,,,,,,,,,,raspberry,,,,,,,,,,,,,,,,,,,,,,,,,,,,,,,,,,,,,,,,,,,,,,,,,,,,,,,,,false,,,,,,,,,88714.97999998974,88714.7399999667,84862.028,84862.99499997403,84878.604,88728.595,,,,54
rating_sequence,flow.Sequence,2_4_2_1_1,2021-01-15T11:55:04.606Z,,,,,,,,,,,,,,,,,,,,,,,,,,,,,,,,,,,,,,,,,,,,,,,,,,,,,,,,,,,,,,,,,,,,,,,,,,,,,,,,,,,,,,,,,,,,,,,,,,,,,,,,,,,,,,,,,,,4336.064999966693,,completion,,,,healthy,,raspberry.png,,,,,,,,,,,,,,,raspberry,,,,,,,,,,,,,,,,,,,,,,,,,,,,,,,,,,,,,,,,,,,,,,,,,,,,,,,,,false,,,,,,,,,88715.15000000363,88714.7399999667,84362.056,84369.17999997968,84378.675,88728.595,,,,
fixCross,canvas.Screen,2_4_2_1_2_0,2021-01-15T11:55:05.104Z,,,,,,,,,,,,,,,,,,,,,,,,,,,,,,,,,,,,,,,,,,,,,,,,,,,,,,,,,,,,,,,,,,,,,,,,,,,,,,,,,,,,,,,,,,,,,,,,,,,,,,,,,,,,,,,,,,,499.9850000000006,,timeout,,,,unhealthy,,chocolate.png,,,,,,,,,,,,,,,chocolate,,,,,,,,,,,,,,,,,,,,,,,,,,,,,,,,,,,,,,,,,,,,,,,,,,,,,,,,,false,,,,,,,,,89213.20999995805,89211.904,88711.908,88715.27499996591,88728.595,89228.58,,,,
Rating,html.Form,2_4_2_1_2_1,2021-01-15T11:55:09.668Z,,,,,,,,,,,,,,,,,,,,,,,,,,,,,,,,,,,,,,,,,,,,,,,,,,,,,,,,,,,,,,,,,,,,,,,,,,,,,,,,,,,,,,,,,,,,,,,,,,,,,,,,,,,,,,,,,,,4548.765000009516,,form submission,,,,unhealthy,,chocolate.png,,,,,,,,,,,,,,,chocolate,,,,,,,,,,,,,,,,,,,,,,,,,,,,,,,,,,,,,,,,,,,,,,,,,,,,,,,,,false,,,,,,,,,93777.53500000108,93777.34500000952,89211.904,89213.3249999606,89228.58,93778.531,,,,76
rating_sequence,flow.Sequence,2_4_2_1_2,2021-01-15T11:55:09.668Z,,,,,,,,,,,,,,,,,,,,,,,,,,,,,,,,,,,,,,,,,,,,,,,,,,,,,,,,,,,,,,,,,,,,,,,,,,,,,,,,,,,,,,,,,,,,,,,,,,,,,,,,,,,,,,,,,,,5048.750000009517,,completion,,,,unhealthy,,chocolate.png,,,,,,,,,,,,,,,chocolate,,,,,,,,,,,,,,,,,,,,,,,,,,,,,,,,,,,,,,,,,,,,,,,,,,,,,,,,,false,,,,,,,,,93777.69499999704,93777.34500000952,88711.908,88715.23500001058,88728.595,93778.531,,,,
fixCross,canvas.Screen,2_4_2_1_3_0,2021-01-15T11:55:10.153Z,,,,,,,,,,,,,,,,,,,,,,,,,,,,,,,,,,,,,,,,,,,,,,,,,,,,,,,,,,,,,,,,,,,,,,,,,,,,,,,,,,,,,,,,,,,,,,,,,,,,,,,,,,,,,,,,,,,499.9259999999922,,timeout,,,,unhealthy,,liqorice.png,,,,,,,,,,,,,,,liquorice,,,,,,,,,,,,,,,,,,,,,,,,,,,,,,,,,,,,,,,,,,,,,,,,,,,,,,,,,false,,,,,,,,,94262.8900000127,94261.818,93761.838,93777.80499996152,93778.531,94278.457,,,,
Rating,html.Form,2_4_2_1_3_1,2021-01-15T11:55:12.554Z,,,,,,,,,,,,,,,,,,,,,,,,,,,,,,,,,,,,,,,,,,,,,,,,,,,,,,,,,,,,,,,,,,,,,,,,,,,,,,,,,,,,,,,,,,,,,,,,,,,,,,,,,,,,,,,,,,,2385.2529999934486,,form submission,,,,unhealthy,,liqorice.png,,,,,,,,,,,,,,,liquorice,,,,,,,,,,,,,,,,,,,,,,,,,,,,,,,,,,,,,,,,,,,,,,,,,,,,,,,,,false,,,,,,,,,96663.92999998061,96663.70999999344,94261.818,94263.05499998853,94278.457,96678.566,,,,31
rating_sequence,flow.Sequence,2_4_2_1_3,2021-01-15T11:55:12.555Z,,,,,,,,,,,,,,,,,,,,,,,,,,,,,,,,,,,,,,,,,,,,,,,,,,,,,,,,,,,,,,,,,,,,,,,,,,,,,,,,,,,,,,,,,,,,,,,,,,,,,,,,,,,,,,,,,,,2885.178999993441,,completion,,,,unhealthy,,liqorice.png,,,,,,,,,,,,,,,liquorice,,,,,,,,,,,,,,,,,,,,,,,,,,,,,,,,,,,,,,,,,,,,,,,,,,,,,,,,,false,,,,,,,,,96664.10499997437,96663.70999999344,93761.838,93777.77499996591,93778.531,96678.566,,,,
fixCross,canvas.Screen,2_4_2_1_4_0,2021-01-15T11:55:13.053Z,,,,,,,,,,,,,,,,,,,,,,,,,,,,,,,,,,,,,,,,,,,,,,,,,,,,,,,,,,,,,,,,,,,,,,,,,,,,,,,,,,,,,,,,,,,,,,,,,,,,,,,,,,,,,,,,,,,499.92399999999907,,timeout,,,,healthy,,strawberry.png,,,,,,,,,,,,,,,strawberry,,,,,,,,,,,,,,,,,,,,,,,,,,,,,,,,,,,,,,,,,,,,,,,,,,,,,,,,,false,,,,,,,,,97162.45999996318,97161.868,96661.806,96664.22499995679,96678.566,97178.49,,,,
Rating,html.Form,2_4_2_1_4_1,2021-01-15T11:55:19.980Z,,,,,,,,,,,,,,,,,,,,,,,,,,,,,,,,,,,,,,,,,,,,,,,,,,,,,,,,,,,,,,,,,,,,,,,,,,,,,,,,,,,,,,,,,,,,,,,,,,,,,,,,,,,,,,,,,,,6911.140000002211,,form submission,,,,healthy,,strawberry.png,,,,,,,,,,,,,,,strawberry,,,,,,,,,,,,,,,,,,,,,,,,,,,,,,,,,,,,,,,,,,,,,,,,,,,,,,,,,false,,,,,,,,,104089.81500001391,104089.63000000222,97161.868,97162.5800000038,97178.49,104095.025,,,,66
rating_sequence,flow.Sequence,2_4_2_1_4,2021-01-15T11:55:19.980Z,,,,,,,,,,,,,,,,,,,,,,,,,,,,,,,,,,,,,,,,,,,,,,,,,,,,,,,,,,,,,,,,,,,,,,,,,,,,,,,,,,,,,,,,,,,,,,,,,,,,,,,,,,,,,,,,,,,7411.06400000221,,completion,,,,healthy,,strawberry.png,,,,,,,,,,,,,,,strawberry,,,,,,,,,,,,,,,,,,,,,,,,,,,,,,,,,,,,,,,,,,,,,,,,,,,,,,,,,false,,,,,,,,,104089.97500000987,104089.63000000222,96661.806,96664.18500000145,96678.566,104095.025,,,,
fixCross,canvas.Screen,2_4_2_1_5_0,2021-01-15T11:55:20.470Z,,,,,,,,,,,,,,,,,,,,,,,,,,,,,,,,,,,,,,,,,,,,,,,,,,,,,,,,,,,,,,,,,,,,,,,,,,,,,,,,,,,,,,,,,,,,,,,,,,,,,,,,,,,,,,,,,,,500.0060000000085,,timeout,,,,unhealthy,,praline.png,,,,,,,,,,,,,,,praline,,,,,,,,,,,,,,,,,,,,,,,,,,,,,,,,,,,,,,,,,,,,,,,,,,,,,,,,,false,,,,,,,,,104579.31499998085,104578.391,104078.447,104090.09000001242,104095.025,104595.031,,,,
Rating,html.Form,2_4_2_1_5_1,2021-01-15T11:55:24.251Z,,,,,,,,,,,,,,,,,,,,,,,,,,,,,,,,,,,,,,,,,,,,,,,,,,,,,,,,,,,,,,,,,,,,,,,,,,,,,,,,,,,,,,,,,,,,,,,,,,,,,,,,,,,,,,,,,,,3765.7539999680157,,form submission,,,,unhealthy,,praline.png,,,,,,,,,,,,,,,praline,,,,,,,,,,,,,,,,,,,,,,,,,,,,,,,,,,,,,,,,,,,,,,,,,,,,,,,,,false,,,,,,,,,108361.00999999326,108360.78499996802,104578.391,104579.46999999695,104595.031,108378.403,,,,85
rating_sequence,flow.Sequence,2_4_2_1_5,2021-01-15T11:55:24.252Z,,,,,,,,,,,,,,,,,,,,,,,,,,,,,,,,,,,,,,,,,,,,,,,,,,,,,,,,,,,,,,,,,,,,,,,,,,,,,,,,,,,,,,,,,,,,,,,,,,,,,,,,,,,,,,,,,,,4265.759999968024,,completion,,,,unhealthy,,praline.png,,,,,,,,,,,,,,,praline,,,,,,,,,,,,,,,,,,,,,,,,,,,,,,,,,,,,,,,,,,,,,,,,,,,,,,,,,false,,,,,,,,,108361.18499998702,108360.78499996802,104078.447,104090.05499997875,104095.025,108378.403,,,,
fixCross,canvas.Screen,2_4_2_1_6_0,2021-01-15T11:55:24.753Z,,,,,,,,,,,,,,,,,,,,,,,,,,,,,,,,,,,,,,,,,,,,,,,,,,,,,,,,,,,,,,,,,,,,,,,,,,,,,,,,,,,,,,,,,,,,,,,,,,,,,,,,,,,,,,,,,,,499.9850000000006,,timeout,,,,healthy,,blueberry.png,,,,,,,,,,,,,,,blueberry,,,,,,,,,,,,,,,,,,,,,,,,,,,,,,,,,,,,,,,,,,,,,,,,,,,,,,,,,false,,,,,,,,,108862.43999999715,108861.647,108361.65,108361.30499996943,108378.403,108878.388,,,,
Rating,html.Form,2_4_2_1_6_1,2021-01-15T11:55:26.849Z,,,,,,,,,,,,,,,,,,,,,,,,,,,,,,,,,,,,,,,,,,,,,,,,,,,,,,,,,,,,,,,,,,,,,,,,,,,,,,,,,,,,,,,,,,,,,,,,,,,,,,,,,,,,,,,,,,,2079.501999961474,,form submission,,,,healthy,,blueberry.png,,,,,,,,,,,,,,,blueberry,,,,,,,,,,,,,,,,,,,,,,,,,,,,,,,,,,,,,,,,,,,,,,,,,,,,,,,,,false,,,,,,,,,110958.06999999331,110957.88999996148,108861.647,108862.56499995943,108878.388,110978.424,,,,100
rating_sequence,flow.Sequence,2_4_2_1_6,2021-01-15T11:55:26.849Z,,,,,,,,,,,,,,,,,,,,,,,,,,,,,,,,,,,,,,,,,,,,,,,,,,,,,,,,,,,,,,,,,,,,,,,,,,,,,,,,,,,,,,,,,,,,,,,,,,,,,,,,,,,,,,,,,,,2579.486999961475,,completion,,,,healthy,,blueberry.png,,,,,,,,,,,,,,,blueberry,,,,,,,,,,,,,,,,,,,,,,,,,,,,,,,,,,,,,,,,,,,,,,,,,,,,,,,,,false,,,,,,,,,110958.2250000094,110957.88999996148,108361.65,108361.2650000141,108378.403,110978.424,,,,
fixCross,canvas.Screen,2_4_2_1_7_0,2021-01-15T11:55:27.353Z,,,,,,,,,,,,,,,,,,,,,,,,,,,,,,,,,,,,,,,,,,,,,,,,,,,,,,,,,,,,,,,,,,,,,,,,,,,,,,,,,,,,,,,,,,,,,,,,,,,,,,,,,,,,,,,,,,,499.8439999999973,,timeout,,,,healthy,,cherry.png,,,,,,,,,,,,,,,cherry,,,,,,,,,,,,,,,,,,,,,,,,,,,,,,,,,,,,,,,,,,,,,,,,,,,,,,,,,false,,,,,,,,,111462.54999999655,111461.604,110961.612,110958.33499997389,110978.424,111478.268,,,,
Rating,html.Form,2_4_2_1_7_1,2021-01-15T11:55:29.285Z,,,,,,,,,,,,,,,,,,,,,,,,,,,,,,,,,,,,,,,,,,,,,,,,,,,,,,,,,,,,,,,,,,,,,,,,,,,,,,,,,,,,,,,,,,,,,,,,,,,,,,,,,,,,,,,,,,,1916.3720000131725,,form submission,,,,healthy,,cherry.png,,,,,,,,,,,,,,,cherry,,,,,,,,,,,,,,,,,,,,,,,,,,,,,,,,,,,,,,,,,,,,,,,,,,,,,,,,,false,,,,,,,,,113394.879999978,113394.64000001317,111461.604,111462.70999999251,111478.268,113411.687,,,,28
rating_sequence,flow.Sequence,2_4_2_1_7,2021-01-15T11:55:29.286Z,,,,,,,,,,,,,,,,,,,,,,,,,,,,,,,,,,,,,,,,,,,,,,,,,,,,,,,,,,,,,,,,,,,,,,,,,,,,,,,,,,,,,,,,,,,,,,,,,,,,,,,,,,,,,,,,,,,2416.21600001317,,completion,,,,healthy,,cherry.png,,,,,,,,,,,,,,,cherry,,,,,,,,,,,,,,,,,,,,,,,,,,,,,,,,,,,,,,,,,,,,,,,,,,,,,,,,,false,,,,,,,,,113395.30500001274,113394.64000001317,110961.612,110958.30499997828,110978.424,113411.687,,,,
fixCross,canvas.Screen,2_4_2_1_8_0,2021-01-15T11:55:29.786Z,,,,,,,,,,,,,,,,,,,,,,,,,,,,,,,,,,,,,,,,,,,,,,,,,,,,,,,,,,,,,,,,,,,,,,,,,,,,,,,,,,,,,,,,,,,,,,,,,,,,,,,,,,,,,,,,,,,499.91399999998976,,timeout,,,,healthy,,orange.png,,,,,,,,,,,,,,,orange,,,,,,,,,,,,,,,,,,,,,,,,,,,,,,,,,,,,,,,,,,,,,,,,,,,,,,,,,false,,,,,,,,,113895.56999999331,113894.987,113394.919,113395.4800000065,113411.687,113911.601,,,,
Rating,html.Form,2_4_2_1_8_1,2021-01-15T11:55:33.973Z,,,,,,,,,,,,,,,,,,,,,,,,,,,,,,,,,,,,,,,,,,,,,,,,,,,,,,,,,,,,,,,,,,,,,,,,,,,,,,,,,,,,,,,,,,,,,,,,,,,,,,,,,,,,,,,,,,,4170.95900000984,,form submission,,,,healthy,,orange.png,,,,,,,,,,,,,,,orange,,,,,,,,,,,,,,,,,,,,,,,,,,,,,,,,,,,,,,,,,,,,,,,,,,,,,,,,,false,,,,,,,,,118082.73999998346,118082.56000000983,113894.987,113895.68999997573,113911.601,118094.957,,,,0
rating_sequence,flow.Sequence,2_4_2_1_8,2021-01-15T11:55:33.973Z,,,,,,,,,,,,,,,,,,,,,,,,,,,,,,,,,,,,,,,,,,,,,,,,,,,,,,,,,,,,,,,,,,,,,,,,,,,,,,,,,,,,,,,,,,,,,,,,,,,,,,,,,,,,,,,,,,,4670.873000009829,,completion,,,,healthy,,orange.png,,,,,,,,,,,,,,,orange,,,,,,,,,,,,,,,,,,,,,,,,,,,,,,,,,,,,,,,,,,,,,,,,,,,,,,,,,false,,,,,,,,,118082.88999996148,118082.56000000983,113394.919,113395.4350000131,113411.687,118094.957,,,,
fixCross,canvas.Screen,2_4_2_1_9_0,2021-01-15T11:55:34.469Z,,,,,,,,,,,,,,,,,,,,,,,,,,,,,,,,,,,,,,,,,,,,,,,,,,,,,,,,,,,,,,,,,,,,,,,,,,,,,,,,,,,,,,,,,,,,,,,,,,,,,,,,,,,,,,,,,,,499.88000000000466,,timeout,,,,unhealthy,,gummybear.png,,,,,,,,,,,,,,,gummybear,,,,,,,,,,,,,,,,,,,,,,,,,,,,,,,,,,,,,,,,,,,,,,,,,,,,,,,,,false,,,,,,,,,118579.28999996511,118578.183,118078.255,118083.00499996403,118094.957,118594.837,,,,
Rating,html.Form,2_4_2_1_9_1,2021-01-15T11:55:36.824Z,,,,,,,,,,,,,,,,,,,,,,,,,,,,,,,,,,,,,,,,,,,,,,,,,,,,,,,,,,,,,,,,,,,,,,,,,,,,,,,,,,,,,,,,,,,,,,,,,,,,,,,,,,,,,,,,,,,2338.752999971446,,form submission,,,,unhealthy,,gummybear.png,,,,,,,,,,,,,,,gummybear,,,,,,,,,,,,,,,,,,,,,,,,,,,,,,,,,,,,,,,,,,,,,,,,,,,,,,,,,false,,,,,,,,,120933.81499999668,120933.58999997145,118578.183,118579.47999995667,118594.837,120961.517,,,,80
rating_sequence,flow.Sequence,2_4_2_1_9,2021-01-15T11:55:36.824Z,,,,,,,,,,,,,,,,,,,,,,,,,,,,,,,,,,,,,,,,,,,,,,,,,,,,,,,,,,,,,,,,,,,,,,,,,,,,,,,,,,,,,,,,,,,,,,,,,,,,,,,,,,,,,,,,,,,2838.6329999714508,,completion,,,,unhealthy,,gummybear.png,,,,,,,,,,,,,,,gummybear,,,,,,,,,,,,,,,,,,,,,,,,,,,,,,,,,,,,,,,,,,,,,,,,,,,,,,,,,false,,,,,,,,,120934.00000000838,120933.58999997145,118078.255,118082.96999998856,118094.957,120961.517,,,,
fixCross,canvas.Screen,2_4_2_1_10_0,2021-01-15T11:55:37.336Z,,,,,,,,,,,,,,,,,,,,,,,,,,,,,,,,,,,,,,,,,,,,,,,,,,,,,,,,,,,,,,,,,,,,,,,,,,,,,,,,,,,,,,,,,,,,,,,,,,,,,,,,,,,,,,,,,,,499.98899999998685,,timeout,,,,unhealthy,,marshmallow.png,,,,,,,,,,,,,,,marshmallow,,,,,,,,,,,,,,,,,,,,,,,,,,,,,,,,,,,,,,,,,,,,,,,,,,,,,,,,,false,,,,,,,,,121445.73999999557,121444.951,120944.829,120934.1199999908,120961.517,121461.506,,,,
Rating,html.Form,2_4_2_1_10_1,2021-01-15T11:55:41.459Z,,,,,,,,,,,,,,,,,,,,,,,,,,,,,,,,,,,,,,,,,,,,,,,,,,,,,,,,,,,,,,,,,,,,,,,,,,,,,,,,,,,,,,,,,,,,,,,,,,,,,,,,,,,,,,,,,,,4106.9939999939525,,form submission,,,,unhealthy,,marshmallow.png,,,,,,,,,,,,,,,marshmallow,,,,,,,,,,,,,,,,,,,,,,,,,,,,,,,,,,,,,,,,,,,,,,,,,,,,,,,,,false,,,,,,,,,125568.67999996757,125568.49999999395,121444.951,121445.85999997798,121461.506,125578.269,,,,46
rating_sequence,flow.Sequence,2_4_2_1_10,2021-01-15T11:55:41.459Z,,,,,,,,,,,,,,,,,,,,,,,,,,,,,,,,,,,,,,,,,,,,,,,,,,,,,,,,,,,,,,,,,,,,,,,,,,,,,,,,,,,,,,,,,,,,,,,,,,,,,,,,,,,,,,,,,,,4606.982999993939,,completion,,,,unhealthy,,marshmallow.png,,,,,,,,,,,,,,,marshmallow,,,,,,,,,,,,,,,,,,,,,,,,,,,,,,,,,,,,,,,,,,,,,,,,,,,,,,,,,false,,,,,,,,,125568.83499998366,125568.49999999395,120944.829,120934.08499995712,120961.517,125578.269,,,,
fixCross,canvas.Screen,2_4_2_1_11_0,2021-01-15T11:55:41.952Z,,,,,,,,,,,,,,,,,,,,,,,,,,,,,,,,,,,,,,,,,,,,,,,,,,,,,,,,,,,,,,,,,,,,,,,,,,,,,,,,,,,,,,,,,,,,,,,,,,,,,,,,,,,,,,,,,,,499.88099999999395,,timeout,,,,unhealthy,,chocolate_truffle.png,,,,,,,,,,,,,,,chocolate truffle,,,,,,,,,,,,,,,,,,,,,,,,,,,,,,,,,,,,,,,,,,,,,,,,,,,,,,,,,false,,,,,,,,,126062.22999998135,126061.461,125561.505,125568.94500000635,125578.269,126078.15,,,,
Rating,html.Form,2_4_2_1_11_1,2021-01-15T11:55:44.676Z,,,,,,,,,,,,,,,,,,,,,,,,,,,,,,,,,,,,,,,,,,,,,,,,,,,,,,,,,,,,,,,,,,,,,,,,,,,,,,,,,,,,,,,,,,,,,,,,,,,,,,,,,,,,,,,,,,,2707.659999972122,,form submission,,,,unhealthy,,chocolate_truffle.png,,,,,,,,,,,,,,,chocolate truffle,,,,,,,,,,,,,,,,,,,,,,,,,,,,,,,,,,,,,,,,,,,,,,,,,,,,,,,,,false,,,,,,,,,128786.02999995928,128785.80999997212,126061.461,126062.39499995718,126078.15,128794.744,,,,100
rating_sequence,flow.Sequence,2_4_2_1_11,2021-01-15T11:55:44.676Z,,,,,,,,,,,,,,,,,,,,,,,,,,,,,,,,,,,,,,,,,,,,,,,,,,,,,,,,,,,,,,,,,,,,,,,,,,,,,,,,,,,,,,,,,,,,,,,,,,,,,,,,,,,,,,,,,,,3207.540999972116,,completion,,,,unhealthy,,chocolate_truffle.png,,,,,,,,,,,,,,,chocolate truffle,,,,,,,,,,,,,,,,,,,,,,,,,,,,,,,,,,,,,,,,,,,,,,,,,,,,,,,,,false,,,,,,,,,128786.20999999112,128785.80999997212,125561.505,125568.91500001075,125578.269,128794.744,,,,
fixCross,canvas.Screen,2_4_2_1_12_0,2021-01-15T11:55:45.169Z,,,,,,,,,,,,,,,,,,,,,,,,,,,,,,,,,,,,,,,,,,,,,,,,,,,,,,,,,,,,,,,,,,,,,,,,,,,,,,,,,,,,,,,,,,,,,,,,,,,,,,,,,,,,,,,,,,,499.99499999999534,,timeout,,,,healthy,,pear.png,,,,,,,,,,,,,,,pear,,,,,,,,,,,,,,,,,,,,,,,,,,,,,,,,,,,,,,,,,,,,,,,,,,,,,,,,,false,,,,,,,,,129278.70500000427,129278.121,128778.099,128786.3350000116,128794.744,129294.739,,,,
Rating,html.Form,2_4_2_1_12_1,2021-01-15T11:55:47.715Z,,,,,,,,,,,,,,,,,,,,,,,,,,,,,,,,,,,,,,,,,,,,,,,,,,,,,,,,,,,,,,,,,,,,,,,,,,,,,,,,,,,,,,,,,,,,,,,,,,,,,,,,,,,,,,,,,,,2529.6659999630065,,form submission,,,,healthy,,pear.png,,,,,,,,,,,,,,,pear,,,,,,,,,,,,,,,,,,,,,,,,,,,,,,,,,,,,,,,,,,,,,,,,,,,,,,,,,false,,,,,,,,,131824.5899999747,131824.404999963,129278.121,129278.82000000682,129294.739,131828.063,,,,80
rating_sequence,flow.Sequence,2_4_2_1_12,2021-01-15T11:55:47.715Z,,,,,,,,,,,,,,,,,,,,,,,,,,,,,,,,,,,,,,,,,,,,,,,,,,,,,,,,,,,,,,,,,,,,,,,,,,,,,,,,,,,,,,,,,,,,,,,,,,,,,,,,,,,,,,,,,,,3029.660999963002,,completion,,,,healthy,,pear.png,,,,,,,,,,,,,,,pear,,,,,,,,,,,,,,,,,,,,,,,,,,,,,,,,,,,,,,,,,,,,,,,,,,,,,,,,,false,,,,,,,,,131824.804999982,131824.404999963,128778.099,128786.29499999806,128794.744,131828.063,,,,
fixCross,canvas.Screen,2_4_2_1_13_0,2021-01-15T11:55:48.203Z,,,,,,,,,,,,,,,,,,,,,,,,,,,,,,,,,,,,,,,,,,,,,,,,,,,,,,,,,,,,,,,,,,,,,,,,,,,,,,,,,,,,,,,,,,,,,,,,,,,,,,,,,,,,,,,,,,,499.9679999999935,,timeout,,,,healthy,,coconut.png,,,,,,,,,,,,,,,coconut,,,,,,,,,,,,,,,,,,,,,,,,,,,,,,,,,,,,,,,,,,,,,,,,,,,,,,,,,false,,,,,,,,,132312.51999997767,132311.414,131811.352,131824.9450000003,131828.063,132328.031,,,,
Rating,html.Form,2_4_2_1_13_1,2021-01-15T11:55:51.943Z,,,,,,,,,,,,,,,,,,,,,,,,,,,,,,,,,,,,,,,,,,,,,,,,,,,,,,,,,,,,,,,,,,,,,,,,,,,,,,,,,,,,,,,,,,,,,,,,,,,,,,,,,,,,,,,,,,,3724.5039999661676,,form submission,,,,healthy,,coconut.png,,,,,,,,,,,,,,,coconut,,,,,,,,,,,,,,,,,,,,,,,,,,,,,,,,,,,,,,,,,,,,,,,,,,,,,,,,,false,,,,,,,,,136052.76499997126,136052.53499996616,132311.414,132312.68999999156,132328.031,136061.324,,,,28
rating_sequence,flow.Sequence,2_4_2_1_13,2021-01-15T11:55:51.943Z,,,,,,,,,,,,,,,,,,,,,,,,,,,,,,,,,,,,,,,,,,,,,,,,,,,,,,,,,,,,,,,,,,,,,,,,,,,,,,,,,,,,,,,,,,,,,,,,,,,,,,,,,,,,,,,,,,,4224.471999966161,,completion,,,,healthy,,coconut.png,,,,,,,,,,,,,,,coconut,,,,,,,,,,,,,,,,,,,,,,,,,,,,,,,,,,,,,,,,,,,,,,,,,,,,,,,,,false,,,,,,,,,136052.94999998296,136052.53499996616,131811.352,131824.90499998676,131828.063,136061.324,,,,
fixCross,canvas.Screen,2_4_2_1_14_0,2021-01-15T11:55:52.436Z,,,,,,,,,,,,,,,,,,,,,,,,,,,,,,,,,,,,,,,,,,,,,,,,,,,,,,,,,,,,,,,,,,,,,,,,,,,,,,,,,,,,,,,,,,,,,,,,,,,,,,,,,,,,,,,,,,,499.99499999999534,,timeout,,,,unhealthy,,candy.png,,,,,,,,,,,,,,,candy,,,,,,,,,,,,,,,,,,,,,,,,,,,,,,,,,,,,,,,,,,,,,,,,,,,,,,,,,false,,,,,,,,,136545.48500000965,136544.702,136044.708,136053.0799999833,136061.324,136561.319,,,,
Rating,html.Form,2_4_2_1_14_1,2021-01-15T11:55:57.421Z,,,,,,,,,,,,,,,,,,,,,,,,,,,,,,,,,,,,,,,,,,,,,,,,,,,,,,,,,,,,,,,,,,,,,,,,,,,,,,,,,,,,,,,,,,,,,,,,,,,,,,,,,,,,,,,,,,,4969.390999962721,,form submission,,,,unhealthy,,candy.png,,,,,,,,,,,,,,,candy,,,,,,,,,,,,,,,,,,,,,,,,,,,,,,,,,,,,,,,,,,,,,,,,,,,,,,,,,false,,,,,,,,,141530.88999999454,141530.7099999627,136544.702,136545.59499997413,136561.319,141561.39,,,,77
rating_sequence,flow.Sequence,2_4_2_1_14,2021-01-15T11:55:57.421Z,,,,,,,,,,,,,,,,,,,,,,,,,,,,,,,,,,,,,,,,,,,,,,,,,,,,,,,,,,,,,,,,,,,,,,,,,,,,,,,,,,,,,,,,,,,,,,,,,,,,,,,,,,,,,,,,,,,5469.385999962717,,completion,,,,unhealthy,,candy.png,,,,,,,,,,,,,,,candy,,,,,,,,,,,,,,,,,,,,,,,,,,,,,,,,,,,,,,,,,,,,,,,,,,,,,,,,,false,,,,,,,,,141531.03999997256,141530.7099999627,136044.708,136053.0349999899,136061.324,141561.39,,,,
fixCross,canvas.Screen,2_4_2_1_15_0,2021-01-15T11:55:57.936Z,,,,,,,,,,,,,,,,,,,,,,,,,,,,,,,,,,,,,,,,,,,,,,,,,,,,,,,,,,,,,,,,,,,,,,,,,,,,,,,,,,,,,,,,,,,,,,,,,,,,,,,,,,,,,,,,,,,499.8039999999746,,timeout,,,,unhealthy,,maltesers.png,,,,,,,,,,,,,,,malteser,,,,,,,,,,,,,,,,,,,,,,,,,,,,,,,,,,,,,,,,,,,,,,,,,,,,,,,,,false,,,,,,,,,142045.67999998108,142044.559,141544.613,141531.14999999525,141561.39,142061.194,,,,
Rating,html.Form,2_4_2_1_15_1,2021-01-15T11:56:00.961Z,,,,,,,,,,,,,,,,,,,,,,,,,,,,,,,,,,,,,,,,,,,,,,,,,,,,,,,,,,,,,,,,,,,,,,,,,,,,,,,,,,,,,,,,,,,,,,,,,,,,,,,,,,,,,,,,,,,3009.540999957506,,form submission,,,,unhealthy,,maltesers.png,,,,,,,,,,,,,,,malteser,,,,,,,,,,,,,,,,,,,,,,,,,,,,,,,,,,,,,,,,,,,,,,,,,,,,,,,,,false,,,,,,,,,145071.00499997614,145070.7349999575,142044.559,142045.83999997703,142061.194,145077.819,,,,88
rating_sequence,flow.Sequence,2_4_2_1_15,2021-01-15T11:56:00.961Z,,,,,,,,,,,,,,,,,,,,,,,,,,,,,,,,,,,,,,,,,,,,,,,,,,,,,,,,,,,,,,,,,,,,,,,,,,,,,,,,,,,,,,,,,,,,,,,,,,,,,,,,,,,,,,,,,,,3509.3449999574805,,completion,,,,unhealthy,,maltesers.png,,,,,,,,,,,,,,,malteser,,,,,,,,,,,,,,,,,,,,,,,,,,,,,,,,,,,,,,,,,,,,,,,,,,,,,,,,,false,,,,,,,,,145071.2549999589,145070.7349999575,141544.613,141531.11499996157,141561.39,145077.819,,,,
fixCross,canvas.Screen,2_4_2_1_16_0,2021-01-15T11:56:01.452Z,,,,,,,,,,,,,,,,,,,,,,,,,,,,,,,,,,,,,,,,,,,,,,,,,,,,,,,,,,,,,,,,,,,,,,,,,,,,,,,,,,,,,,,,,,,,,,,,,,,,,,,,,,,,,,,,,,,500.07300000000396,,timeout,,,,healthy,,grape.png,,,,,,,,,,,,,,,grape,,,,,,,,,,,,,,,,,,,,,,,,,,,,,,,,,,,,,,,,,,,,,,,,,,,,,,,,,false,,,,,,,,,145562.0699999854,145561.302,145061.285,145071.409999975,145077.819,145577.892,,,,
Rating,html.Form,2_4_2_1_16_1,2021-01-15T11:56:04.226Z,,,,,,,,,,,,,,,,,,,,,,,,,,,,,,,,,,,,,,,,,,,,,,,,,,,,,,,,,,,,,,,,,,,,,,,,,,,,,,,,,,,,,,,,,,,,,,,,,,,,,,,,,,,,,,,,,,,2758.112999990117,,form submission,,,,healthy,,grape.png,,,,,,,,,,,,,,,grape,,,,,,,,,,,,,,,,,,,,,,,,,,,,,,,,,,,,,,,,,,,,,,,,,,,,,,,,,false,,,,,,,,,148336.2999999663,148336.0049999901,145561.302,145562.1899999678,145577.892,148344.563,,,,15
rating_sequence,flow.Sequence,2_4_2_1_16,2021-01-15T11:56:04.227Z,,,,,,,,,,,,,,,,,,,,,,,,,,,,,,,,,,,,,,,,,,,,,,,,,,,,,,,,,,,,,,,,,,,,,,,,,,,,,,,,,,,,,,,,,,,,,,,,,,,,,,,,,,,,,,,,,,,3258.1859999901208,,completion,,,,healthy,,grape.png,,,,,,,,,,,,,,,grape,,,,,,,,,,,,,,,,,,,,,,,,,,,,,,,,,,,,,,,,,,,,,,,,,,,,,,,,,false,,,,,,,,,148336.46999998018,148336.0049999901,145061.285,145071.3649999816,145077.819,148344.563,,,,
fixCross,canvas.Screen,2_4_2_1_17_0,2021-01-15T11:56:04.719Z,,,,,,,,,,,,,,,,,,,,,,,,,,,,,,,,,,,,,,,,,,,,,,,,,,,,,,,,,,,,,,,,,,,,,,,,,,,,,,,,,,,,,,,,,,,,,,,,,,,,,,,,,,,,,,,,,,,499.91599999999744,,timeout,,,,healthy,,apple.png,,,,,,,,,,,,,,,apple,,,,,,,,,,,,,,,,,,,,,,,,,,,,,,,,,,,,,,,,,,,,,,,,,,,,,,,,,false,,,,,,,,,148828.89999996405,148827.827,148327.882,148336.5899999626,148344.563,148844.479,,,,
Rating,html.Form,2_4_2_1_17_1,2021-01-15T11:56:07.283Z,,,,,,,,,,,,,,,,,,,,,,,,,,,,,,,,,,,,,,,,,,,,,,,,,,,,,,,,,,,,,,,,,,,,,,,,,,,,,,,,,,,,,,,,,,,,,,,,,,,,,,,,,,,,,,,,,,,2547.9909999624942,,form submission,,,,healthy,,apple.png,,,,,,,,,,,,,,,apple,,,,,,,,,,,,,,,,,,,,,,,,,,,,,,,,,,,,,,,,,,,,,,,,,,,,,,,,,false,,,,,,,,,151392.74999999907,151392.4699999625,148827.827,148829.06999997795,148844.479,151427.78,,,,30
rating_sequence,flow.Sequence,2_4_2_1_17,2021-01-15T11:56:07.283Z,,,,,,,,,,,,,,,,,,,,,,,,,,,,,,,,,,,,,,,,,,,,,,,,,,,,,,,,,,,,,,,,,,,,,,,,,,,,,,,,,,,,,,,,,,,,,,,,,,,,,,,,,,,,,,,,,,,3047.9069999624917,,completion,,,,healthy,,apple.png,,,,,,,,,,,,,,,apple,,,,,,,,,,,,,,,,,,,,,,,,,,,,,,,,,,,,,,,,,,,,,,,,,,,,,,,,,false,,,,,,,,,151392.98000000417,151392.4699999625,148327.882,148336.55499998713,148344.563,151427.78,,,,
rating_loop,flow.Loop,2_4_2_1,2021-01-15T11:56:07.283Z,,,,,,,,,,,,,,,,,,,,,,,,,,,,,,,,,,,,,,,,,,,,,,,,,,,,,,,,,,,,,,,,,,,,,,,,,,,,,,,,,,,,,,,,,,,,,,,,,,,,,,,,,,,,,,,,,,,71363.79599996249,,completion,,,,,,,,,,,,,,,,,,,,,,,,,,,,,,,,,,,,,,,,,,,,,,,,,,,,,,,,,,,,,,,,,,,,,,,,,,,,,,false,,,,,,,,,151393.21499998914,151392.4699999625,80012.069,80018.66000000155,80028.674,151427.78,,,,
data_transmission,html.Screen,2_4_2_2,2021-01-15T11:56:07.292Z,,,,,,,,,,,,,,,,,,,,,,,,,,,,,,,,,,,,,,,,,,,,,,,,,,,,,,,,,,,,,,,,,,,,,,,,,,,,,,,,,,,,,,,,,,,,,,,,,,,,,,,,,,,,,,,,,,,NaN,,no compatible backend,,,,,,,,,,,,,,,Transferring data,,,,,,,,,,,,,,,,,,,,,,,,,,,,,,,,,,,,,,,,,,,,,,,,,,,,,,,,,,,,,,,false,,,Please wait a second…,,,,,,151401.95999998832,151401.66500001214,,151393.3299999917,,151427.78,,,,
instructions,html.Screen,2_4_2_3,2021-01-15T11:57:35.433Z,,,,,,,,,,,,,,,,,,,,,,,,,,,,,,,,,,,,,,,,,,,,,,,,,,,,,,,,,,,,,,,,,,,,,,,,,,,,,,,,,,,,,,,,,,,,,,,,,,,,,,,,,,,,,,,,,,,88114.6550000103,,done,,,,,,,,,,,,,,,,,,,,,,,,,,,,,,,,,,,,,,,,,,,,,,,,,,,,,,,,,,,,,,,,,,,,,,,,,,,,,,false,,,,,,,,,239542.7400000044,239542.4350000103,151394.483,151402.20000001136,151427.78,239560.04,,,,
Q1,html.Screen,2_4_2_4_0,2021-01-15T11:57:44.625Z,,,,,,,,,,,,,,,,,,,,,,,,,,,,,,,,,,,,,,,,,,,,,,,,,,,,,,,,,,,,,,,,,,,,,,,,,,,,,,,,,,,,,,,,,,,,,,,,,,,,,,,,,,,,,,,false,input_Q1==3,,,9172.559999988443,,response,,,,,,,,,,,,,,,,,,,,,,,,,Q1_i2,Q1_i4,Q1_i3,Q1_i1,2,4,3,1,false,false,correct,false,,,,,,,,,,,,,,,,,,,,,,,,,,,,,,,,,,,,,,,,,click #Q1_i3,false,,,,,,,,,248735.01499998383,248732.59999998845,239543.264,239542.9099999601,239560.04,248743.307,,,,
Q1_correct,html.Screen,2_4_2_4_1,2021-01-15T11:57:45.814Z,,,,,,,,,,,,,,,,,,,,,,,,,,,,,,,,,,,,,,,,,,,,,,,,,,,,,,,,,,,,,,,,,,,,,,,,,,,,,,,,,,,,,,,,,,,,,,,,,,,,,,,,,,,,,,,,,,,1179.3079999885813,,response,,,,,,,,,,,,,,,,,,,,,,,,,,,,,,,,,,,,,,,,,,,,,,,,,,,,,,,,,,,,,,,,,,,,,,,,,,,,,keypress,false,,,,,,,,,249923.24999999255,249922.61499998858,248726.633,248735.22500001127,248743.307,249943.199,,,,
Q2,html.Screen,2_4_2_4_2,2021-01-15T11:57:51.037Z,,,,,,,,,,,,,,,,,,,,,,,,,,,,,,,,,,,,,,,,,,,,,,,,,,,,,,,,,,,,,,,,,,,,,,,,,,,,,,,,,,,,,,,,,,,,,,,,,,,,,,,,,,,,,,,,,,,5201.311000012822,,response,,,,,,,,,,,,,,,,,,,,,,,,,,,,,,,,,,,,,Q2_i2,Q2_i3,Q2_i1,Option 2,Same amount,Option 1,opt2,same,correct,,,,,,,,,,,,,,,,,,,,,,,,,,,,,,,,click #Q2_i1,false,,,,,,,,,255146.29999996396,255144.51000001281,249926.525,249923.3799999929,249943.199,255159.824,,,,
Q2_correct,html.Screen,2_4_2_4_3,2021-01-15T11:57:52.826Z,,,,,,,,,,,,,,,,,,,,,,,,,,,,,,,,,,,,,,,,,,,,,,,,,,,,,,,,,,,,,,,,,,,,,,,,,,,,,,,,,,,,,,,,,,,,,,,,,,,,,,,,,,,,,,,,,,,1775.086000010866,,response,,,,,,,,,,,,,,,,,,,,,,,,,,,,,,,,,,,,,,,,,,,,,,,,,,,,,,,,,,,,,,,,,,,,,,,,,,,,,keypress,false,,,,,,,,,256935.7500000042,256934.91000001086,255143.252,255146.49000001373,255159.824,256943.111,,,,
Q4,html.Screen,2_4_2_4_4,2021-01-15T11:58:03.528Z,,,,,,,,,,,,,,,,,,,,,,,,,,,,,,,,,,,,,,,,,,,,,,,,,,,,,,,,,,,,,,,,,,,,,,,,,,,,,,,,,,,,,,,,,,,,,,,,,,,,,,,,,,,,,,,,,,,10693.409000000014,,response,,,,,,,,,,,,,,,,,,,,,,,,,,,,,,,,,,,,,,,,,,,,,,Q4_i1,Q4_i4,Q4_i2,Q4_i3,Press the arrow key that corresponds with the snack option I prefer,Press the space key,Indicate the number of food items in each snack option,Press the arrow key that corresponds with the snack option with more food items,correct,pressspace,indicate,morefood,,,,,,,,,,,,,,,,,,,,click #Q4_i1,false,,,,,,,,,267637.5049999915,267636.52,256926.507,256935.85999996867,256943.111,267643.127,,,,
Q4_correct,html.Screen,2_4_2_4_5,2021-01-15T11:58:04.844Z,,,,,,,,,,,,,,,,,,,,,,,,,,,,,,,,,,,,,,,,,,,,,,,,,,,,,,,,,,,,,,,,,,,,,,,,,,,,,,,,,,,,,,,,,,,,,,,,,,,,,,,,,,,,,,,,,,,1309.6729999700328,,response,,,,,,,,,,,,,,,,,,,,,,,,,,,,,,,,,,,,,,,,,,,,,,,,,,,,,,,,,,,,,,,,,,,,,,,,,,,,,keypress,false,,,,,,,,,268953.54999997653,268952.79999997,267626.362,267637.69999996293,267643.127,268959.638,,,,
Q5,html.Screen,2_4_2_4_6,2021-01-15T11:58:14.026Z,,,,,,,,,,,,,,,,,,,,,,,,,,,,,,,,,,,,,,,,,,,,,,,,,,,,,,,,,,,,,,,,,,,,,,,,,,,,,,,,,,,,,,,,,,,,,,,,,,,,,,,,,,,,,,,,,,,9174.901999999129,,response,,,,,,,,,,,,,,,,,,,,,,,,,,,,,,,,,,,,,,,,,,,,,,,,,,,,,,,,,,Q5_i3,Q5_i1,Q5_i2,Q5_i4,There are more slices of kiwi in snack Option 1,Snack Option 2 has been chosen,There are more pieces of chocolate in snack Option 2,Snack Option 1 has been chosen,morekiwi1,correct,morechoc2,chose1,,,,,,,,click #Q5_i1,false,,,,,,,,,278135.4899999569,278134.5399999991,268943.08,268953.6599999992,268959.638,278142.863,,,,
Q5_correct,html.Screen,2_4_2_4_7,2021-01-15T11:58:15.073Z,,,,,,,,,,,,,,,,,,,,,,,,,,,,,,,,,,,,,,,,,,,,,,,,,,,,,,,,,,,,,,,,,,,,,,,,,,,,,,,,,,,,,,,,,,,,,,,,,,,,,,,,,,,,,,,,,,,1038.9270000023535,,response,,,,,,,,,,,,,,,,,,,,,,,,,,,,,,,,,,,,,,,,,,,,,,,,,,,,,,,,,,,,,,,,,,,,,,,,,,,,,keypress,false,,,,,,,,,279182.519999973,279181.79000000237,278126.221,278135.6899999664,278142.863,279192.938,,,,
practice_sequence,flow.Sequence,2_4_2_4,2021-01-15T11:58:15.073Z,,,,,,,,,,,,,,,,,,,,,,,,,,,,,,,,,,,,,,,,,,,,,,,,,,,,,,,,,,,,,,,,,,,,,,,,,,,,,,,,,,,,,,,,,,,,,,,,,,,,,,,,,,,,,,,,,,,39621.75000000236,,completion,,,,,,,,,,,,,,,,,,,,,,,,,,,,,,,,,,,,,,,,,,,,,,,,,,,,,,,,,,,,,,,,,,,,,,,,,,,,,,false,,,,,,,,,279182.67000000924,279181.79000000237,239543.264,239542.87000000477,239560.04,279192.938,,,,
final_instru,html.Screen,2_4_2_5,2021-01-15T11:58:30.098Z,,,,,,,,,,,,,,,,,,,,,,,,,,,,,,,,,,,,,,,,,,,,,,,,,,,,,,,,,,,,,,,,,,,,,,,,,,,,,,,,,,,,,,,,,,,,,,,,,,,,,,,,,,,,,,,,,,,15013.951999972167,,done,,,,,,,,,,,,,,,,,,,,,,,,,,,,,,,,,,,,,,,,,,,,,,,,,,,,,,,,,,,,,,,,,,,,,,,,,,,,,,false,,,,,,,,,294207.10999995936,294206.8899999722,279176.23,279182.7499999781,279192.938,294209.296,,,,
blank_screen,canvas.Screen,2_4_2_6_0,2021-01-15T11:58:32.084Z,,,,,,,,,,,,,,,,,,,,,,,,,,,,,,,,,,,,,,,,,,,,,,,,,,,,,,,,,,,,,,,,,,,,,,,,,,,,,,,,,,,,,,,,,,,,,,,,,,,,,,,,,,,,,,,,,,,2016.6860000000452,,timeout,,,,,,,,,,,,,,,,,,,,,,,,,,,,,,,,,,,,,,,,,,,,,,,,,,,,,,,,,,,,,,,,,,,,,,,,,,,,,,false,,,,,,,,,296193.32999998005,296192.665,294192.553,294207.2899999912,294209.296,296225.982,,,,
fixCross,canvas.Screen,2_4_2_6_1_0_0_0_0_0_0,2021-01-15T11:58:32.701Z,,,blank.png,"[""chocolate_truffle.png""]",blank.png,blank.png,blank.png,blank.png,blank.png,blank.png,blank.png,blank.png,blank.png,blank.png,blank.png,,,,,,,,,,,,,,,,,,,,,,,,,,,,,"[""chocolate_truffle.png""]","[""blueberry.png""]",PB16.png,,,,,,,,,,,0,6,"[""blueberry.png""]","[""blueberry.png""]","[""blueberry.png""]","[""blueberry.png""]","[""blueberry.png""]","[""blueberry.png""]",blank.png,PB18.png,PB18.png,"[""blueberry.png""]","[""blueberry.png""]","[""blueberry.png""]","[""blueberry.png""]","[""blueberry.png""]",blank.png,"[""blueberry.png""]","[""blueberry.png""]","[""blueberry.png""]","[""blueberry.png""]","[""blueberry.png""]","[""blueberry.png""]",1,"[""chocolate_truffle.png""]",blank.png,blank.png,blank.png,5,"[""blueberry.png""]","[""blueberry.png""]","[""blueberry.png""]","[""blueberry.png""]","[""blueberry.png""]",blank.png,PB16.png,,,,,,,,,,,1,,,,,,,,,,,,1250.0189999999711,,timeout,,,,,,,,,,,,,3,,,,,,,,,,,,,,,,,,,,,,,,,,,,,,,,,,,,,,,,,,,,,,,,,,,,,,,,,"[""blueberry.png""]","[""chocolate_truffle.png""]",,,,4,,,false,,1,,,,,,,296810.055000009,296809.33,296192.665,296231.7000000039,296225.982,297476.001,1,,,
timeout,canvas.Screen,2_4_2_6_1_0_0_0_0_0_1,2021-01-15T11:58:33.850Z,,,blank.png,"[""chocolate_truffle.png""]",blank.png,blank.png,blank.png,blank.png,blank.png,blank.png,blank.png,blank.png,blank.png,blank.png,blank.png,,,,,,,,,,,,,,,,,,,,,,,,,,,,,"[""chocolate_truffle.png""]","[""blueberry.png""]",PB16.png,,,,,,,,,,,0,6,"[""blueberry.png""]","[""blueberry.png""]","[""blueberry.png""]","[""blueberry.png""]","[""blueberry.png""]","[""blueberry.png""]",blank.png,PB18.png,PB18.png,"[""blueberry.png""]","[""blueberry.png""]","[""blueberry.png""]","[""blueberry.png""]","[""blueberry.png""]",blank.png,"[""blueberry.png""]","[""blueberry.png""]","[""blueberry.png""]","[""blueberry.png""]","[""blueberry.png""]","[""blueberry.png""]",1,"[""chocolate_truffle.png""]",blank.png,blank.png,blank.png,5,"[""blueberry.png""]","[""blueberry.png""]","[""blueberry.png""]","[""blueberry.png""]","[""blueberry.png""]",blank.png,PB16.png,,,,,,,,,,,1,,,,,,,,,,,,1299.9420000000391,,timeout,,,,,,,,,,,,,3,,,,,,,,,,,,,,,,,,,,,,,,,,,,,,,,,,,,,,,,,,,,,,,,,,,,,,,,,"[""blueberry.png""]","[""chocolate_truffle.png""]",,,,4,,,false,,1,,,,,,,297960.01499996055,297959.329,296809.33,297621.370000008,297476.001,298775.943,,,,
choice,canvas.Screen,2_4_2_6_1_0_0_0_0_0_2,2021-01-15T11:58:36.107Z,,,blank.png,"[""chocolate_truffle.png""]",blank.png,blank.png,blank.png,blank.png,blank.png,blank.png,blank.png,blank.png,blank.png,blank.png,blank.png,,,,,,,,,,,,,,,,,,,,,,,,,,,,,"[""chocolate_truffle.png""]","[""blueberry.png""]",PB16.png,,,,,,,,,,,0,6,"[""blueberry.png""]","[""blueberry.png""]","[""blueberry.png""]","[""blueberry.png""]","[""blueberry.png""]","[""blueberry.png""]",blank.png,PB18.png,PB18.png,"[""blueberry.png""]","[""blueberry.png""]","[""blueberry.png""]","[""blueberry.png""]","[""blueberry.png""]",blank.png,"[""blueberry.png""]","[""blueberry.png""]","[""blueberry.png""]","[""blueberry.png""]","[""blueberry.png""]","[""blueberry.png""]",1,"[""chocolate_truffle.png""]",blank.png,blank.png,blank.png,5,"[""blueberry.png""]","[""blueberry.png""]","[""blueberry.png""]","[""blueberry.png""]","[""blueberry.png""]",blank.png,PB16.png,,,,,,,,,,,1,,,,,,,,,,,,1439.5319999753847,,response,,,,,,,,,,,,,3,,,,,,,,,,,,,,,,,,,,,,,,,,,,,,,,,,,,,,,,,,,,,,,,,,,,,,,,,"[""blueberry.png""]","[""chocolate_truffle.png""]",,,,4,left,keydown(ArrowLeft),false,,1,,,,,,,300217.2099999734,300215.4749999754,297959.329,298795.71499995654,298775.943,301075.898,,1,,
square,canvas.Screen,2_4_2_6_1_0_0_0_0_0_3,2021-01-15T11:58:37.950Z,,,blank.png,"[""chocolate_truffle.png""]",blank.png,blank.png,blank.png,blank.png,blank.png,blank.png,blank.png,blank.png,blank.png,blank.png,blank.png,,,,,,,,,,,,,,,,,,,,,,,,,,,,,"[""chocolate_truffle.png""]","[""blueberry.png""]",PB16.png,,,,,,,,,,,0,6,"[""blueberry.png""]","[""blueberry.png""]","[""blueberry.png""]","[""blueberry.png""]","[""blueberry.png""]","[""blueberry.png""]",blank.png,PB18.png,PB18.png,"[""blueberry.png""]","[""blueberry.png""]","[""blueberry.png""]","[""blueberry.png""]","[""blueberry.png""]",blank.png,"[""blueberry.png""]","[""blueberry.png""]","[""blueberry.png""]","[""blueberry.png""]","[""blueberry.png""]","[""blueberry.png""]",1,"[""chocolate_truffle.png""]",blank.png,blank.png,blank.png,5,"[""blueberry.png""]","[""blueberry.png""]","[""blueberry.png""]","[""blueberry.png""]","[""blueberry.png""]",blank.png,PB16.png,,,,,,,,,,,1,,#33ff3f,#808080,,,,,,,,,1000.054999999993,,timeout,,,,,,,,,,,,,3,,,,,,,,,,,,,,,,,,,,,,,,,,,,,,,,,,,,,,,,,,,,,,,,,,,,,,,,,"[""blueberry.png""]","[""chocolate_truffle.png""]",,,,4,,,false,,1,,,,,black,white,302059.9499999662,302059.207,301009.335,301023.1349999667,301075.898,302075.953,,,,
ITI_late,canvas.Screen,2_4_2_6_1_0_0_0_0_0_4,2021-01-15T11:58:38.700Z,,,blank.png,"[""chocolate_truffle.png""]",blank.png,blank.png,blank.png,blank.png,blank.png,blank.png,blank.png,blank.png,blank.png,blank.png,blank.png,,,,,,,,,,,,,,,,,,,,,,,,,,,,,"[""chocolate_truffle.png""]","[""blueberry.png""]",PB16.png,,,,,,,,,,,0,6,"[""blueberry.png""]","[""blueberry.png""]","[""blueberry.png""]","[""blueberry.png""]","[""blueberry.png""]","[""blueberry.png""]",blank.png,PB18.png,PB18.png,"[""blueberry.png""]","[""blueberry.png""]","[""blueberry.png""]","[""blueberry.png""]","[""blueberry.png""]",blank.png,"[""blueberry.png""]","[""blueberry.png""]","[""blueberry.png""]","[""blueberry.png""]","[""blueberry.png""]","[""blueberry.png""]",1,"[""chocolate_truffle.png""]",blank.png,blank.png,blank.png,5,"[""blueberry.png""]","[""blueberry.png""]","[""blueberry.png""]","[""blueberry.png""]","[""blueberry.png""]",blank.png,PB16.png,,,,,,,,,,,1,,,,,,,,,,,,749.9349999999977,,timeout,,,,,,,,,,,,white,3,,,,,,,,,,,,,,,,,,,,,,,,,,,,,,,,,,,,,,,,,,,,,,,,,,,,,,,,,"[""blueberry.png""]","[""chocolate_truffle.png""]",,,,4,,,false,,1,,,,,,,302809.95999998413,302809.315,302059.207,302061.86499999603,302075.953,302825.888,,,,
choice_sequence,flow.Sequence,2_4_2_6_1_0_0_0_0_0,2021-01-15T11:58:38.701Z,,,blank.png,"[""chocolate_truffle.png""]",blank.png,blank.png,blank.png,blank.png,blank.png,blank.png,blank.png,blank.png,blank.png,blank.png,blank.png,,,,,,,,,,,,,,,,,,,,,,,,,,,,,"[""chocolate_truffle.png""]","[""blueberry.png""]",PB16.png,,,,,,,,,,,0,6,"[""blueberry.png""]","[""blueberry.png""]","[""blueberry.png""]","[""blueberry.png""]","[""blueberry.png""]","[""blueberry.png""]",blank.png,PB18.png,PB18.png,"[""blueberry.png""]","[""blueberry.png""]","[""blueberry.png""]","[""blueberry.png""]","[""blueberry.png""]",blank.png,"[""blueberry.png""]","[""blueberry.png""]","[""blueberry.png""]","[""blueberry.png""]","[""blueberry.png""]","[""blueberry.png""]",1,"[""chocolate_truffle.png""]",blank.png,blank.png,blank.png,5,"[""blueberry.png""]","[""blueberry.png""]","[""blueberry.png""]","[""blueberry.png""]","[""blueberry.png""]",blank.png,PB16.png,,,,,,,,,,,1,,,,,,,,,,,,6583.332999999984,,completion,,,,,,,,,,,,,3,,,,,,,,,,,,,,,,,,,,,,,,,,,,,,,,,,,,,,,,,,,,,,,,,,,,,,,,,"[""blueberry.png""]","[""chocolate_truffle.png""]",,,,4,,,false,,1,,,,,,,302810.60500000603,302809.315,296192.665,296229.26499997266,296225.982,302825.888,,,,
fixCross,canvas.Screen,2_4_2_6_1_0_0_0_0_1_0,2021-01-15T11:58:39.250Z,,,blank.png,"[""chocolate_truffle.png""]",blank.png,blank.png,blank.png,blank.png,blank.png,blank.png,blank.png,blank.png,blank.png,blank.png,blank.png,,,,,,,,,,,,,,,,,,,,,,,,,,,,,"[""chocolate_truffle.png""]","[""blueberry.png""]",PB07.png,,,,,,,,,,,0,6,"[""blueberry.png""]","[""blueberry.png""]","[""blueberry.png""]","[""blueberry.png""]","[""blueberry.png""]","[""blueberry.png""]",blank.png,PB18.png,PB18.png,"[""blueberry.png""]",blank.png,blank.png,blank.png,blank.png,blank.png,"[""blueberry.png""]","[""blueberry.png""]","[""blueberry.png""]","[""blueberry.png""]","[""blueberry.png""]","[""blueberry.png""]",1,"[""chocolate_truffle.png""]",blank.png,blank.png,blank.png,1,"[""blueberry.png""]",blank.png,blank.png,blank.png,blank.png,blank.png,PB07.png,,,,,,,,,,,1,,,,,,,,,,,,1149.9569999999949,,timeout,,,,,,,,,,,,,3,,,,,,,,,,,,,,,,,,,,,,,,,,,,,,,,,,,,,,,,,,,,,,,,,,,,,,,,,"[""blueberry.png""]","[""chocolate_truffle.png""]",,,,4,,,false,,1,,,,,,,303359.85999996774,303359.22,302809.315,302816.09999999637,302825.888,303975.845,2,,,
timeout,canvas.Screen,2_4_2_6_1_0_0_0_0_1_1,2021-01-15T11:58:40.350Z,,,blank.png,"[""chocolate_truffle.png""]",blank.png,blank.png,blank.png,blank.png,blank.png,blank.png,blank.png,blank.png,blank.png,blank.png,blank.png,,,,,,,,,,,,,,,,,,,,,,,,,,,,,"[""chocolate_truffle.png""]","[""blueberry.png""]",PB07.png,,,,,,,,,,,0,6,"[""blueberry.png""]","[""blueberry.png""]","[""blueberry.png""]","[""blueberry.png""]","[""blueberry.png""]","[""blueberry.png""]",blank.png,PB18.png,PB18.png,"[""blueberry.png""]",blank.png,blank.png,blank.png,blank.png,blank.png,"[""blueberry.png""]","[""blueberry.png""]","[""blueberry.png""]","[""blueberry.png""]","[""blueberry.png""]","[""blueberry.png""]",1,"[""chocolate_truffle.png""]",blank.png,blank.png,blank.png,1,"[""blueberry.png""]",blank.png,blank.png,blank.png,blank.png,blank.png,PB07.png,,,,,,,,,,,1,,,,,,,,,,,,1150.0340000000433,,timeout,,,,,,,,,,,,,3,,,,,,,,,,,,,,,,,,,,,,,,,,,,,,,,,,,,,,,,,,,,,,,,,,,,,,,,,"[""blueberry.png""]","[""chocolate_truffle.png""]",,,,4,,,false,,1,,,,,,,304459.9499999895,304459.247,303359.22,303983.264999988,303975.845,305125.879,,,,
choice,canvas.Screen,2_4_2_6_1_0_0_0_0_1_2,2021-01-15T11:58:41.064Z,,,blank.png,"[""chocolate_truffle.png""]",blank.png,blank.png,blank.png,blank.png,blank.png,blank.png,blank.png,blank.png,blank.png,blank.png,blank.png,,,,,,,,,,,,,,,,,,,,,,,,,,,,,"[""chocolate_truffle.png""]","[""blueberry.png""]",PB07.png,,,,,,,,,,,0,6,"[""blueberry.png""]","[""blueberry.png""]","[""blueberry.png""]","[""blueberry.png""]","[""blueberry.png""]","[""blueberry.png""]",blank.png,PB18.png,PB18.png,"[""blueberry.png""]",blank.png,blank.png,blank.png,blank.png,blank.png,"[""blueberry.png""]","[""blueberry.png""]","[""blueberry.png""]","[""blueberry.png""]","[""blueberry.png""]","[""blueberry.png""]",1,"[""chocolate_truffle.png""]",blank.png,blank.png,blank.png,1,"[""blueberry.png""]",blank.png,blank.png,blank.png,blank.png,blank.png,PB07.png,,,,,,,,,,,1,,,,,,,,,,,,46.64099996368168,,response,,,,,,,,,,,,,3,,,,,,,,,,,,,,,,,,,,,,,,,,,,,,,,,,,,,,,,,,,,,,,,,,,,,,,,,"[""blueberry.png""]","[""chocolate_truffle.png""]",,,,4,right,keydown(ArrowRight),false,,1,,,,,,,305173.6599999713,305172.5199999637,304459.247,305117.3199999612,305125.879,305842.491,,2,,
square,canvas.Screen,2_4_2_6_1_0_0_0_0_1_3,2021-01-15T11:58:42.717Z,,,blank.png,"[""chocolate_truffle.png""]",blank.png,blank.png,blank.png,blank.png,blank.png,blank.png,blank.png,blank.png,blank.png,blank.png,blank.png,,,,,,,,,,,,,,,,,,,,,,,,,,,,,"[""chocolate_truffle.png""]","[""blueberry.png""]",PB07.png,,,,,,,,,,,0,6,"[""blueberry.png""]","[""blueberry.png""]","[""blueberry.png""]","[""blueberry.png""]","[""blueberry.png""]","[""blueberry.png""]",blank.png,PB18.png,PB18.png,"[""blueberry.png""]",blank.png,blank.png,blank.png,blank.png,blank.png,"[""blueberry.png""]","[""blueberry.png""]","[""blueberry.png""]","[""blueberry.png""]","[""blueberry.png""]","[""blueberry.png""]",1,"[""chocolate_truffle.png""]",blank.png,blank.png,blank.png,1,"[""blueberry.png""]",blank.png,blank.png,blank.png,blank.png,blank.png,PB07.png,,,,,,,,,,,1,,#808080,#33ff3f,,,,,,,,,999.9980000000214,,timeout,,,,,,,,,,,,,3,,,,,,,,,,,,,,,,,,,,,,,,,,,,,,,,,,,,,,,,,,,,,,,,,,,,,,,,,"[""blueberry.png""]","[""chocolate_truffle.png""]",,,,4,,,false,,1,,,,,white,black,306827.0449999836,306825.809,305825.808,305835.91999998316,305842.491,306842.489,,,,
ITI_late,canvas.Screen,2_4_2_6_1_0_0_0_0_1_4,2021-01-15T11:58:43.967Z,,,blank.png,"[""chocolate_truffle.png""]",blank.png,blank.png,blank.png,blank.png,blank.png,blank.png,blank.png,blank.png,blank.png,blank.png,blank.png,,,,,,,,,,,,,,,,,,,,,,,,,,,,,"[""chocolate_truffle.png""]","[""blueberry.png""]",PB07.png,,,,,,,,,,,0,6,"[""blueberry.png""]","[""blueberry.png""]","[""blueberry.png""]","[""blueberry.png""]","[""blueberry.png""]","[""blueberry.png""]",blank.png,PB18.png,PB18.png,"[""blueberry.png""]",blank.png,blank.png,blank.png,blank.png,blank.png,"[""blueberry.png""]","[""blueberry.png""]","[""blueberry.png""]","[""blueberry.png""]","[""blueberry.png""]","[""blueberry.png""]",1,"[""chocolate_truffle.png""]",blank.png,blank.png,blank.png,1,"[""blueberry.png""]",blank.png,blank.png,blank.png,blank.png,blank.png,PB07.png,,,,,,,,,,,1,,,,,,,,,,,,1249.9639999999781,,timeout,,,,,,,,,,,,white,3,,,,,,,,,,,,,,,,,,,,,,,,,,,,,,,,,,,,,,,,,,,,,,,,,,,,,,,,,"[""blueberry.png""]","[""chocolate_truffle.png""]",,,,4,,,false,,1,,,,,,,308077.28999998653,308076.079,306825.809,306829.09999997355,306842.489,308092.453,,,,
choice_sequence,flow.Sequence,2_4_2_6_1_0_0_0_0_1,2021-01-15T11:58:43.968Z,,,blank.png,"[""chocolate_truffle.png""]",blank.png,blank.png,blank.png,blank.png,blank.png,blank.png,blank.png,blank.png,blank.png,blank.png,blank.png,,,,,,,,,,,,,,,,,,,,,,,,,,,,,"[""chocolate_truffle.png""]","[""blueberry.png""]",PB07.png,,,,,,,,,,,0,6,"[""blueberry.png""]","[""blueberry.png""]","[""blueberry.png""]","[""blueberry.png""]","[""blueberry.png""]","[""blueberry.png""]",blank.png,PB18.png,PB18.png,"[""blueberry.png""]",blank.png,blank.png,blank.png,blank.png,blank.png,"[""blueberry.png""]","[""blueberry.png""]","[""blueberry.png""]","[""blueberry.png""]","[""blueberry.png""]","[""blueberry.png""]",1,"[""chocolate_truffle.png""]",blank.png,blank.png,blank.png,1,"[""blueberry.png""]",blank.png,blank.png,blank.png,blank.png,blank.png,PB07.png,,,,,,,,,,,1,,,,,,,,,,,,5250.19100000005,,completion,,,,,,,,,,,,,3,,,,,,,,,,,,,,,,,,,,,,,,,,,,,,,,,,,,,,,,,,,,,,,,,,,,,,,,,"[""blueberry.png""]","[""chocolate_truffle.png""]",,,,4,,,false,,1,,,,,,,308077.82499998575,308076.079,302809.315,302815.14999998035,302825.888,308092.453,,,,
fixCross,canvas.Screen,2_4_2_6_1_0_0_0_0_2_0,2021-01-15T11:58:44.417Z,,,blank.png,blank.png,blank.png,blank.png,blank.png,blank.png,blank.png,"[""chocolate_truffle.png""]",blank.png,blank.png,blank.png,blank.png,blank.png,,,,,,,,,,,,,,,,,,,,,,,,,,,,,"[""chocolate_truffle.png""]","[""blueberry.png""]",PB18.png,,,,,,,,,,,0,6,"[""blueberry.png""]","[""blueberry.png""]","[""blueberry.png""]","[""blueberry.png""]","[""blueberry.png""]","[""blueberry.png""]",blank.png,PB18.png,PB12.png,"[""blueberry.png""]","[""blueberry.png""]","[""blueberry.png""]","[""blueberry.png""]","[""blueberry.png""]","[""blueberry.png""]","[""blueberry.png""]","[""blueberry.png""]",blank.png,blank.png,blank.png,blank.png,1,"[""chocolate_truffle.png""]",blank.png,blank.png,blank.png,2,"[""blueberry.png""]","[""blueberry.png""]",blank.png,blank.png,blank.png,blank.png,PB12.png,,,,,,,,,,,1,,,,,,,,,,,,1099.9960000000428,,timeout,,,,,,,,,,,,,4,,,,,,,,,,,,,,,,,,,,,,,,,,,,,,,,,,,,,,,,,,,,,,,,,,,,,,,,,"[""blueberry.png""]","[""chocolate_truffle.png""]",,,,4,,,false,,1,,,,,,,308526.6100000008,308525.893,308076.079,308085.7299999916,308092.453,309192.449,3,,,
timeout,canvas.Screen,2_4_2_6_1_0_0_0_0_2_1,2021-01-15T11:58:45.567Z,,,blank.png,blank.png,blank.png,blank.png,blank.png,blank.png,blank.png,"[""chocolate_truffle.png""]",blank.png,blank.png,blank.png,blank.png,blank.png,,,,,,,,,,,,,,,,,,,,,,,,,,,,,"[""chocolate_truffle.png""]","[""blueberry.png""]",PB18.png,,,,,,,,,,,0,6,"[""blueberry.png""]","[""blueberry.png""]","[""blueberry.png""]","[""blueberry.png""]","[""blueberry.png""]","[""blueberry.png""]",blank.png,PB18.png,PB12.png,"[""blueberry.png""]","[""blueberry.png""]","[""blueberry.png""]","[""blueberry.png""]","[""blueberry.png""]","[""blueberry.png""]","[""blueberry.png""]","[""blueberry.png""]",blank.png,blank.png,blank.png,blank.png,1,"[""chocolate_truffle.png""]",blank.png,blank.png,blank.png,2,"[""blueberry.png""]","[""blueberry.png""]",blank.png,blank.png,blank.png,blank.png,PB12.png,,,,,,,,,,,1,,,,,,,,,,,,1183.3310000000056,,timeout,,,,,,,,,,,,,4,,,,,,,,,,,,,,,,,,,,,,,,,,,,,,,,,,,,,,,,,,,,,,,,,,,,,,,,,"[""blueberry.png""]","[""chocolate_truffle.png""]",,,,4,,,false,,1,,,,,,,309676.5749999904,309675.895,308525.893,309199.2849999806,309192.449,310375.78,,,,
choice,canvas.Screen,2_4_2_6_1_0_0_0_0_2_2,2021-01-15T11:58:46.669Z,,,blank.png,blank.png,blank.png,blank.png,blank.png,blank.png,blank.png,"[""chocolate_truffle.png""]",blank.png,blank.png,blank.png,blank.png,blank.png,,,,,,,,,,,,,,,,,,,,,,,,,,,,,"[""chocolate_truffle.png""]","[""blueberry.png""]",PB18.png,,,,,,,,,,,0,6,"[""blueberry.png""]","[""blueberry.png""]","[""blueberry.png""]","[""blueberry.png""]","[""blueberry.png""]","[""blueberry.png""]",blank.png,PB18.png,PB12.png,"[""blueberry.png""]","[""blueberry.png""]","[""blueberry.png""]","[""blueberry.png""]","[""blueberry.png""]","[""blueberry.png""]","[""blueberry.png""]","[""blueberry.png""]",blank.png,blank.png,blank.png,blank.png,1,"[""chocolate_truffle.png""]",blank.png,blank.png,blank.png,2,"[""blueberry.png""]","[""blueberry.png""]",blank.png,blank.png,blank.png,blank.png,PB12.png,,,,,,,,,,,1,,,,,,,,,,,,400.830000000773,,response,,,,,,,,,,,,,4,,,,,,,,,,,,,,,,,,,,,,,,,,,,,,,,,,,,,,,,,,,,,,,,,,,,,,,,,"[""blueberry.png""]","[""chocolate_truffle.png""]",,,,4,left,keydown(ArrowLeft),false,,1,,,,,,,310778.41500000795,310776.6100000008,309675.895,310357.864999969,310375.78,311492.417,,3,,
square,canvas.Screen,2_4_2_6_1_0_0_0_0_2_3,2021-01-15T11:58:48.367Z,,,blank.png,blank.png,blank.png,blank.png,blank.png,blank.png,blank.png,"[""chocolate_truffle.png""]",blank.png,blank.png,blank.png,blank.png,blank.png,,,,,,,,,,,,,,,,,,,,,,,,,,,,,"[""chocolate_truffle.png""]","[""blueberry.png""]",PB18.png,,,,,,,,,,,0,6,"[""blueberry.png""]","[""blueberry.png""]","[""blueberry.png""]","[""blueberry.png""]","[""blueberry.png""]","[""blueberry.png""]",blank.png,PB18.png,PB12.png,"[""blueberry.png""]","[""blueberry.png""]","[""blueberry.png""]","[""blueberry.png""]","[""blueberry.png""]","[""blueberry.png""]","[""blueberry.png""]","[""blueberry.png""]",blank.png,blank.png,blank.png,blank.png,1,"[""chocolate_truffle.png""]",blank.png,blank.png,blank.png,2,"[""blueberry.png""]","[""blueberry.png""]",blank.png,blank.png,blank.png,blank.png,PB12.png,,,,,,,,,,,1,,#33ff3f,#808080,,,,,,,,,1000.0909999999567,,timeout,,,,,,,,,,,,,4,,,,,,,,,,,,,,,,,,,,,,,,,,,,,,,,,,,,,,,,,,,,,,,,,,,,,,,,,"[""blueberry.png""]","[""chocolate_truffle.png""]",,,,4,,,false,,1,,,,,black,white,312476.41000000294,312475.755,311442.499,311455.0900000031,311492.417,312492.508,,,,
ITI_late,canvas.Screen,2_4_2_6_1_0_0_0_0_2_4,2021-01-15T11:58:49.617Z,,,blank.png,blank.png,blank.png,blank.png,blank.png,blank.png,blank.png,"[""chocolate_truffle.png""]",blank.png,blank.png,blank.png,blank.png,blank.png,,,,,,,,,,,,,,,,,,,,,,,,,,,,,"[""chocolate_truffle.png""]","[""blueberry.png""]",PB18.png,,,,,,,,,,,0,6,"[""blueberry.png""]","[""blueberry.png""]","[""blueberry.png""]","[""blueberry.png""]","[""blueberry.png""]","[""blueberry.png""]",blank.png,PB18.png,PB12.png,"[""blueberry.png""]","[""blueberry.png""]","[""blueberry.png""]","[""blueberry.png""]","[""blueberry.png""]","[""blueberry.png""]","[""blueberry.png""]","[""blueberry.png""]",blank.png,blank.png,blank.png,blank.png,1,"[""chocolate_truffle.png""]",blank.png,blank.png,blank.png,2,"[""blueberry.png""]","[""blueberry.png""]",blank.png,blank.png,blank.png,blank.png,PB12.png,,,,,,,,,,,1,,,,,,,,,,,,1250.0550000000512,,timeout,,,,,,,,,,,,white,4,,,,,,,,,,,,,,,,,,,,,,,,,,,,,,,,,,,,,,,,,,,,,,,,,,,,,,,,,"[""blueberry.png""]","[""chocolate_truffle.png""]",,,,4,,,false,,1,,,,,,,313726.3849999872,313725.729,312475.755,312478.209999972,312492.508,313742.563,,,,
choice_sequence,flow.Sequence,2_4_2_6_1_0_0_0_0_2,2021-01-15T11:58:49.617Z,,,blank.png,blank.png,blank.png,blank.png,blank.png,blank.png,blank.png,"[""chocolate_truffle.png""]",blank.png,blank.png,blank.png,blank.png,blank.png,,,,,,,,,,,,,,,,,,,,,,,,,,,,,"[""chocolate_truffle.png""]","[""blueberry.png""]",PB18.png,,,,,,,,,,,0,6,"[""blueberry.png""]","[""blueberry.png""]","[""blueberry.png""]","[""blueberry.png""]","[""blueberry.png""]","[""blueberry.png""]",blank.png,PB18.png,PB12.png,"[""blueberry.png""]","[""blueberry.png""]","[""blueberry.png""]","[""blueberry.png""]","[""blueberry.png""]","[""blueberry.png""]","[""blueberry.png""]","[""blueberry.png""]",blank.png,blank.png,blank.png,blank.png,1,"[""chocolate_truffle.png""]",blank.png,blank.png,blank.png,2,"[""blueberry.png""]","[""blueberry.png""]",blank.png,blank.png,blank.png,blank.png,PB12.png,,,,,,,,,,,1,,,,,,,,,,,,5633.276000000013,,completion,,,,,,,,,,,,,4,,,,,,,,,,,,,,,,,,,,,,,,,,,,,,,,,,,,,,,,,,,,,,,,,,,,,,,,,"[""blueberry.png""]","[""chocolate_truffle.png""]",,,,4,,,false,,1,,,,,,,313726.9399999641,313725.729,308076.079,308084.2399999965,308092.453,313742.563,,,,
fixCross,canvas.Screen,2_4_2_6_1_0_0_0_0_3_0,2021-01-15T11:58:50.317Z,,,blank.png,blank.png,blank.png,blank.png,blank.png,blank.png,blank.png,"[""chocolate_truffle.png""]",blank.png,blank.png,blank.png,blank.png,blank.png,,,,,,,,,,,,,,,,,,,,,,,,,,,,,"[""chocolate_truffle.png""]","[""blueberry.png""]",PB18.png,,,,,,,,,,,0,6,"[""blueberry.png""]","[""blueberry.png""]","[""blueberry.png""]","[""blueberry.png""]","[""blueberry.png""]","[""blueberry.png""]",blank.png,PB18.png,PB15.png,"[""blueberry.png""]","[""blueberry.png""]","[""blueberry.png""]","[""blueberry.png""]","[""blueberry.png""]","[""blueberry.png""]","[""blueberry.png""]","[""blueberry.png""]","[""blueberry.png""]","[""blueberry.png""]",blank.png,blank.png,1,"[""chocolate_truffle.png""]",blank.png,blank.png,blank.png,4,"[""blueberry.png""]","[""blueberry.png""]","[""blueberry.png""]","[""blueberry.png""]",blank.png,blank.png,PB15.png,,,,,,,,,,,1,,,,,,,,,,,,1433.1389999999665,,timeout,,,,,,,,,,,,,4,,,,,,,,,,,,,,,,,,,,,,,,,,,,,,,,,,,,,,,,,,,,,,,,,,,,,,,,,"[""blueberry.png""]","[""chocolate_truffle.png""]",,,,4,,,false,,1,,,,,,,314426.3949999586,314425.715,313725.729,313732.0249999757,313742.563,315175.702,4,,,
timeout,canvas.Screen,2_4_2_6_1_0_0_0_0_3_1,2021-01-15T11:58:51.550Z,,,blank.png,blank.png,blank.png,blank.png,blank.png,blank.png,blank.png,"[""chocolate_truffle.png""]",blank.png,blank.png,blank.png,blank.png,blank.png,,,,,,,,,,,,,,,,,,,,,,,,,,,,,"[""chocolate_truffle.png""]","[""blueberry.png""]",PB18.png,,,,,,,,,,,0,6,"[""blueberry.png""]","[""blueberry.png""]","[""blueberry.png""]","[""blueberry.png""]","[""blueberry.png""]","[""blueberry.png""]",blank.png,PB18.png,PB15.png,"[""blueberry.png""]","[""blueberry.png""]","[""blueberry.png""]","[""blueberry.png""]","[""blueberry.png""]","[""blueberry.png""]","[""blueberry.png""]","[""blueberry.png""]","[""blueberry.png""]","[""blueberry.png""]",blank.png,blank.png,1,"[""chocolate_truffle.png""]",blank.png,blank.png,blank.png,4,"[""blueberry.png""]","[""blueberry.png""]","[""blueberry.png""]","[""blueberry.png""]",blank.png,blank.png,PB15.png,,,,,,,,,,,1,,,,,,,,,,,,1283.3439999999828,,timeout,,,,,,,,,,,,,4,,,,,,,,,,,,,,,,,,,,,,,,,,,,,,,,,,,,,,,,,,,,,,,,,,,,,,,,,"[""blueberry.png""]","[""chocolate_truffle.png""]",,,,4,,,false,,1,,,,,,,315659.9050000077,315659.108,314425.715,315182.4599999818,315175.702,316459.046,,,,
choice,canvas.Screen,2_4_2_6_1_0_0_0_0_3_2,2021-01-15T11:58:53.159Z,,,blank.png,blank.png,blank.png,blank.png,blank.png,blank.png,blank.png,"[""chocolate_truffle.png""]",blank.png,blank.png,blank.png,blank.png,blank.png,,,,,,,,,,,,,,,,,,,,,,,,,,,,,"[""chocolate_truffle.png""]","[""blueberry.png""]",PB18.png,,,,,,,,,,,0,6,"[""blueberry.png""]","[""blueberry.png""]","[""blueberry.png""]","[""blueberry.png""]","[""blueberry.png""]","[""blueberry.png""]",blank.png,PB18.png,PB15.png,"[""blueberry.png""]","[""blueberry.png""]","[""blueberry.png""]","[""blueberry.png""]","[""blueberry.png""]","[""blueberry.png""]","[""blueberry.png""]","[""blueberry.png""]","[""blueberry.png""]","[""blueberry.png""]",blank.png,blank.png,1,"[""chocolate_truffle.png""]",blank.png,blank.png,blank.png,4,"[""blueberry.png""]","[""blueberry.png""]","[""blueberry.png""]","[""blueberry.png""]",blank.png,blank.png,PB15.png,,,,,,,,,,,1,,,,,,,,,,,,808.6339999899501,,response,,,,,,,,,,,,,4,,,,,,,,,,,,,,,,,,,,,,,,,,,,,,,,,,,,,,,,,,,,,,,,,,,,,,,,,"[""blueberry.png""]","[""chocolate_truffle.png""]",,,,4,left,keydown(ArrowLeft),false,,1,,,,,,,317268.7399999704,317267.6799999899,315659.108,316440.23000000743,316459.046,318009.01,,4,,
square,canvas.Screen,2_4_2_6_1_0_0_0_0_3_3,2021-01-15T11:58:54.883Z,,,blank.png,blank.png,blank.png,blank.png,blank.png,blank.png,blank.png,"[""chocolate_truffle.png""]",blank.png,blank.png,blank.png,blank.png,blank.png,,,,,,,,,,,,,,,,,,,,,,,,,,,,,"[""chocolate_truffle.png""]","[""blueberry.png""]",PB18.png,,,,,,,,,,,0,6,"[""blueberry.png""]","[""blueberry.png""]","[""blueberry.png""]","[""blueberry.png""]","[""blueberry.png""]","[""blueberry.png""]",blank.png,PB18.png,PB15.png,"[""blueberry.png""]","[""blueberry.png""]","[""blueberry.png""]","[""blueberry.png""]","[""blueberry.png""]","[""blueberry.png""]","[""blueberry.png""]","[""blueberry.png""]","[""blueberry.png""]","[""blueberry.png""]",blank.png,blank.png,1,"[""chocolate_truffle.png""]",blank.png,blank.png,blank.png,4,"[""blueberry.png""]","[""blueberry.png""]","[""blueberry.png""]","[""blueberry.png""]",blank.png,blank.png,PB15.png,,,,,,,,,,,1,,#33ff3f,#808080,,,,,,,,,1000.1570000000065,,timeout,,,,,,,,,,,,,4,,,,,,,,,,,,,,,,,,,,,,,,,,,,,,,,,,,,,,,,,,,,,,,,,,,,,,,,,"[""blueberry.png""]","[""chocolate_truffle.png""]",,,,4,,,false,,1,,,,,black,white,318992.9949999787,318992.322,317992.373,318005.7950000046,318009.01,319009.167,,,,
ITI_late,canvas.Screen,2_4_2_6_1_0_0_0_0_3_4,2021-01-15T11:58:56.133Z,,,blank.png,blank.png,blank.png,blank.png,blank.png,blank.png,blank.png,"[""chocolate_truffle.png""]",blank.png,blank.png,blank.png,blank.png,blank.png,,,,,,,,,,,,,,,,,,,,,,,,,,,,,"[""chocolate_truffle.png""]","[""blueberry.png""]",PB18.png,,,,,,,,,,,0,6,"[""blueberry.png""]","[""blueberry.png""]","[""blueberry.png""]","[""blueberry.png""]","[""blueberry.png""]","[""blueberry.png""]",blank.png,PB18.png,PB15.png,"[""blueberry.png""]","[""blueberry.png""]","[""blueberry.png""]","[""blueberry.png""]","[""blueberry.png""]","[""blueberry.png""]","[""blueberry.png""]","[""blueberry.png""]","[""blueberry.png""]","[""blueberry.png""]",blank.png,blank.png,1,"[""chocolate_truffle.png""]",blank.png,blank.png,blank.png,4,"[""blueberry.png""]","[""blueberry.png""]","[""blueberry.png""]","[""blueberry.png""]",blank.png,blank.png,PB15.png,,,,,,,,,,,1,,,,,,,,,,,,1249.8409999999567,,timeout,,,,,,,,,,,,white,4,,,,,,,,,,,,,,,,,,,,,,,,,,,,,,,,,,,,,,,,,,,,,,,,,,,,,,,,,"[""blueberry.png""]","[""chocolate_truffle.png""]",,,,4,,,false,,1,,,,,,,320243.12499997905,320242.453,318992.322,318994.7149999789,319009.167,320259.008,,,,
choice_sequence,flow.Sequence,2_4_2_6_1_0_0_0_0_3,2021-01-15T11:58:56.134Z,,,blank.png,blank.png,blank.png,blank.png,blank.png,blank.png,blank.png,"[""chocolate_truffle.png""]",blank.png,blank.png,blank.png,blank.png,blank.png,,,,,,,,,,,,,,,,,,,,,,,,,,,,,"[""chocolate_truffle.png""]","[""blueberry.png""]",PB18.png,,,,,,,,,,,0,6,"[""blueberry.png""]","[""blueberry.png""]","[""blueberry.png""]","[""blueberry.png""]","[""blueberry.png""]","[""blueberry.png""]",blank.png,PB18.png,PB15.png,"[""blueberry.png""]","[""blueberry.png""]","[""blueberry.png""]","[""blueberry.png""]","[""blueberry.png""]","[""blueberry.png""]","[""blueberry.png""]","[""blueberry.png""]","[""blueberry.png""]","[""blueberry.png""]",blank.png,blank.png,1,"[""chocolate_truffle.png""]",blank.png,blank.png,blank.png,4,"[""blueberry.png""]","[""blueberry.png""]","[""blueberry.png""]","[""blueberry.png""]",blank.png,blank.png,PB15.png,,,,,,,,,,,1,,,,,,,,,,,,6499.889999999956,,completion,,,,,,,,,,,,,4,,,,,,,,,,,,,,,,,,,,,,,,,,,,,,,,,,,,,,,,,,,,,,,,,,,,,,,,,"[""blueberry.png""]","[""chocolate_truffle.png""]",,,,4,,,false,,1,,,,,,,320243.69500001194,320242.453,313725.729,313731.23500001384,313742.563,320259.008,,,,
fixCross,canvas.Screen,2_4_2_6_1_0_0_0_0_4_0,2021-01-15T11:58:56.583Z,,,blank.png,"[""chocolate_truffle.png""]",blank.png,blank.png,blank.png,blank.png,blank.png,blank.png,blank.png,blank.png,blank.png,blank.png,blank.png,,,,,,,,,,,,,,,,,,,,,,,,,,,,,"[""chocolate_truffle.png""]","[""blueberry.png""]",PB14.png,,,,,,,,,,,0,6,"[""blueberry.png""]","[""blueberry.png""]","[""blueberry.png""]","[""blueberry.png""]","[""blueberry.png""]","[""blueberry.png""]",blank.png,PB18.png,PB18.png,"[""blueberry.png""]","[""blueberry.png""]","[""blueberry.png""]",blank.png,blank.png,blank.png,"[""blueberry.png""]","[""blueberry.png""]","[""blueberry.png""]","[""blueberry.png""]","[""blueberry.png""]","[""blueberry.png""]",1,"[""chocolate_truffle.png""]",blank.png,blank.png,blank.png,3,"[""blueberry.png""]","[""blueberry.png""]","[""blueberry.png""]",blank.png,blank.png,blank.png,PB14.png,,,,,,,,,,,1,,,,,,,,,,,,1200.0200000000186,,timeout,,,,,,,,,,,,,3,,,,,,,,,,,,,,,,,,,,,,,,,,,,,,,,,,,,,,,,,,,,,,,,,,,,,,,,,"[""blueberry.png""]","[""chocolate_truffle.png""]",,,,4,,,false,,1,,,,,,,320693.2449999731,320692.458,320242.453,320252.3349999683,320259.008,321459.028,5,,,
timeout,canvas.Screen,2_4_2_6_1_0_0_0_0_4_1,2021-01-15T11:58:57.833Z,,,blank.png,"[""chocolate_truffle.png""]",blank.png,blank.png,blank.png,blank.png,blank.png,blank.png,blank.png,blank.png,blank.png,blank.png,blank.png,,,,,,,,,,,,,,,,,,,,,,,,,,,,,"[""chocolate_truffle.png""]","[""blueberry.png""]",PB14.png,,,,,,,,,,,0,6,"[""blueberry.png""]","[""blueberry.png""]","[""blueberry.png""]","[""blueberry.png""]","[""blueberry.png""]","[""blueberry.png""]",blank.png,PB18.png,PB18.png,"[""blueberry.png""]","[""blueberry.png""]","[""blueberry.png""]",blank.png,blank.png,blank.png,"[""blueberry.png""]","[""blueberry.png""]","[""blueberry.png""]","[""blueberry.png""]","[""blueberry.png""]","[""blueberry.png""]",1,"[""chocolate_truffle.png""]",blank.png,blank.png,blank.png,3,"[""blueberry.png""]","[""blueberry.png""]","[""blueberry.png""]",blank.png,blank.png,blank.png,PB14.png,,,,,,,,,,,1,,,,,,,,,,,,1249.960000000021,,timeout,,,,,,,,,,,,,3,,,,,,,,,,,,,,,,,,,,,,,,,,,,,,,,,,,,,,,,,,,,,,,,,,,,,,,,,"[""blueberry.png""]","[""chocolate_truffle.png""]",,,,4,,,false,,1,,,,,,,321943.00999998813,321942.341,320692.458,321465.7199999783,321459.028,322708.988,,,,
choice,canvas.Screen,2_4_2_6_1_0_0_0_0_4_2,2021-01-15T11:58:59.380Z,,,blank.png,"[""chocolate_truffle.png""]",blank.png,blank.png,blank.png,blank.png,blank.png,blank.png,blank.png,blank.png,blank.png,blank.png,blank.png,,,,,,,,,,,,,,,,,,,,,,,,,,,,,"[""chocolate_truffle.png""]","[""blueberry.png""]",PB14.png,,,,,,,,,,,0,6,"[""blueberry.png""]","[""blueberry.png""]","[""blueberry.png""]","[""blueberry.png""]","[""blueberry.png""]","[""blueberry.png""]",blank.png,PB18.png,PB18.png,"[""blueberry.png""]","[""blueberry.png""]","[""blueberry.png""]",blank.png,blank.png,blank.png,"[""blueberry.png""]","[""blueberry.png""]","[""blueberry.png""]","[""blueberry.png""]","[""blueberry.png""]","[""blueberry.png""]",1,"[""chocolate_truffle.png""]",blank.png,blank.png,blank.png,3,"[""blueberry.png""]","[""blueberry.png""]","[""blueberry.png""]",blank.png,blank.png,blank.png,PB14.png,,,,,,,,,,,1,,,,,,,,,,,,778.6119999930961,,response,,,,,,,,,,,,,3,,,,,,,,,,,,,,,,,,,,,,,,,,,,,,,,,,,,,,,,,,,,,,,,,,,,,,,,,"[""blueberry.png""]","[""chocolate_truffle.png""]",,,,4,right,keydown(ArrowRight),false,,1,,,,,,,323489.5849999739,323487.5999999931,321942.341,322665.24499998195,322708.988,324192.271,,5,,
square,canvas.Screen,2_4_2_6_1_0_0_0_0_4_3,2021-01-15T11:59:01.067Z,,,blank.png,"[""chocolate_truffle.png""]",blank.png,blank.png,blank.png,blank.png,blank.png,blank.png,blank.png,blank.png,blank.png,blank.png,blank.png,,,,,,,,,,,,,,,,,,,,,,,,,,,,,"[""chocolate_truffle.png""]","[""blueberry.png""]",PB14.png,,,,,,,,,,,0,6,"[""blueberry.png""]","[""blueberry.png""]","[""blueberry.png""]","[""blueberry.png""]","[""blueberry.png""]","[""blueberry.png""]",blank.png,PB18.png,PB18.png,"[""blueberry.png""]","[""blueberry.png""]","[""blueberry.png""]",blank.png,blank.png,blank.png,"[""blueberry.png""]","[""blueberry.png""]","[""blueberry.png""]","[""blueberry.png""]","[""blueberry.png""]","[""blueberry.png""]",1,"[""chocolate_truffle.png""]",blank.png,blank.png,blank.png,3,"[""blueberry.png""]","[""blueberry.png""]","[""blueberry.png""]",blank.png,blank.png,blank.png,PB14.png,,,,,,,,,,,1,,#808080,#33ff3f,,,,,,,,,1000.0929999999935,,timeout,,,,,,,,,,,,,3,,,,,,,,,,,,,,,,,,,,,,,,,,,,,,,,,,,,,,,,,,,,,,,,,,,,,,,,,"[""blueberry.png""]","[""chocolate_truffle.png""]",,,,4,,,false,,1,,,,,white,black,325176.3299999875,325175.65,324175.657,324184.98499999987,324192.271,325192.364,,,,
ITI_late,canvas.Screen,2_4_2_6_1_0_0_0_0_4_4,2021-01-15T11:59:02.317Z,,,blank.png,"[""chocolate_truffle.png""]",blank.png,blank.png,blank.png,blank.png,blank.png,blank.png,blank.png,blank.png,blank.png,blank.png,blank.png,,,,,,,,,,,,,,,,,,,,,,,,,,,,,"[""chocolate_truffle.png""]","[""blueberry.png""]",PB14.png,,,,,,,,,,,0,6,"[""blueberry.png""]","[""blueberry.png""]","[""blueberry.png""]","[""blueberry.png""]","[""blueberry.png""]","[""blueberry.png""]",blank.png,PB18.png,PB18.png,"[""blueberry.png""]","[""blueberry.png""]","[""blueberry.png""]",blank.png,blank.png,blank.png,"[""blueberry.png""]","[""blueberry.png""]","[""blueberry.png""]","[""blueberry.png""]","[""blueberry.png""]","[""blueberry.png""]",1,"[""chocolate_truffle.png""]",blank.png,blank.png,blank.png,3,"[""blueberry.png""]","[""blueberry.png""]","[""blueberry.png""]",blank.png,blank.png,blank.png,PB14.png,,,,,,,,,,,1,,,,,,,,,,,,1249.9380000000237,,timeout,,,,,,,,,,,,white,3,,,,,,,,,,,,,,,,,,,,,,,,,,,,,,,,,,,,,,,,,,,,,,,,,,,,,,,,,"[""blueberry.png""]","[""chocolate_truffle.png""]",,,,4,,,false,,1,,,,,,,326426.32500000764,326425.653,325175.65,325178.1600000104,325192.364,326442.302,,,,
choice_sequence,flow.Sequence,2_4_2_6_1_0_0_0_0_4,2021-01-15T11:59:02.317Z,,,blank.png,"[""chocolate_truffle.png""]",blank.png,blank.png,blank.png,blank.png,blank.png,blank.png,blank.png,blank.png,blank.png,blank.png,blank.png,,,,,,,,,,,,,,,,,,,,,,,,,,,,,"[""chocolate_truffle.png""]","[""blueberry.png""]",PB14.png,,,,,,,,,,,0,6,"[""blueberry.png""]","[""blueberry.png""]","[""blueberry.png""]","[""blueberry.png""]","[""blueberry.png""]","[""blueberry.png""]",blank.png,PB18.png,PB18.png,"[""blueberry.png""]","[""blueberry.png""]","[""blueberry.png""]",blank.png,blank.png,blank.png,"[""blueberry.png""]","[""blueberry.png""]","[""blueberry.png""]","[""blueberry.png""]","[""blueberry.png""]","[""blueberry.png""]",1,"[""chocolate_truffle.png""]",blank.png,blank.png,blank.png,3,"[""blueberry.png""]","[""blueberry.png""]","[""blueberry.png""]",blank.png,blank.png,blank.png,PB14.png,,,,,,,,,,,1,,,,,,,,,,,,6166.645000000019,,completion,,,,,,,,,,,,,3,,,,,,,,,,,,,,,,,,,,,,,,,,,,,,,,,,,,,,,,,,,,,,,,,,,,,,,,,"[""blueberry.png""]","[""chocolate_truffle.png""]",,,,4,,,false,,1,,,,,,,326426.8999999622,326425.653,320242.453,320251.51500001084,320259.008,326442.302,,,,
fixCross,canvas.Screen,2_4_2_6_1_0_0_0_0_5_0,2021-01-15T11:59:03.017Z,,,blank.png,blank.png,blank.png,blank.png,blank.png,blank.png,blank.png,"[""chocolate_truffle.png""]",blank.png,blank.png,blank.png,blank.png,blank.png,,,,,,,,,,,,,,,,,,,,,,,,,,,,,"[""chocolate_truffle.png""]","[""blueberry.png""]",PB18.png,,,,,,,,,,,0,6,"[""blueberry.png""]","[""blueberry.png""]","[""blueberry.png""]","[""blueberry.png""]","[""blueberry.png""]","[""blueberry.png""]",blank.png,PB18.png,PB01.png,"[""blueberry.png""]","[""blueberry.png""]","[""blueberry.png""]","[""blueberry.png""]","[""blueberry.png""]","[""blueberry.png""]",blank.png,blank.png,blank.png,blank.png,blank.png,blank.png,1,"[""chocolate_truffle.png""]",blank.png,blank.png,blank.png,0,blank.png,blank.png,blank.png,blank.png,blank.png,blank.png,PB01.png,,,,,,,,,,,1,,,,,,,,,,,,1266.579999999958,,timeout,,,,,,,,,,,,,4,,,,,,,,,,,,,,,,,,,,,,,,,,,,,,,,,,,,,,,,,,,,,,,,,,,,,,,,,"[""blueberry.png""]","[""chocolate_truffle.png""]",,,,4,,,false,,1,,,,,,,327126.38999999035,327125.64,326425.653,326431.9099999848,326442.302,327708.882,6,,,
timeout,canvas.Screen,2_4_2_6_1_0_0_0_0_5_1,2021-01-15T11:59:04.084Z,,,blank.png,blank.png,blank.png,blank.png,blank.png,blank.png,blank.png,"[""chocolate_truffle.png""]",blank.png,blank.png,blank.png,blank.png,blank.png,,,,,,,,,,,,,,,,,,,,,,,,,,,,,"[""chocolate_truffle.png""]","[""blueberry.png""]",PB18.png,,,,,,,,,,,0,6,"[""blueberry.png""]","[""blueberry.png""]","[""blueberry.png""]","[""blueberry.png""]","[""blueberry.png""]","[""blueberry.png""]",blank.png,PB18.png,PB01.png,"[""blueberry.png""]","[""blueberry.png""]","[""blueberry.png""]","[""blueberry.png""]","[""blueberry.png""]","[""blueberry.png""]",blank.png,blank.png,blank.png,blank.png,blank.png,blank.png,1,"[""chocolate_truffle.png""]",blank.png,blank.png,blank.png,0,blank.png,blank.png,blank.png,blank.png,blank.png,blank.png,PB01.png,,,,,,,,,,,1,,,,,,,,,,,,1150.0590000000084,,timeout,,,,,,,,,,,,,4,,,,,,,,,,,,,,,,,,,,,,,,,,,,,,,,,,,,,,,,,,,,,,,,,,,,,,,,,"[""blueberry.png""]","[""chocolate_truffle.png""]",,,,4,,,false,,1,,,,,,,328193.42500000494,328192.28,327125.64,327715.57499998016,327708.882,328858.941,,,,
choice,canvas.Screen,2_4_2_6_1_0_0_0_0_5_2,2021-01-15T11:59:05.099Z,,,blank.png,blank.png,blank.png,blank.png,blank.png,blank.png,blank.png,"[""chocolate_truffle.png""]",blank.png,blank.png,blank.png,blank.png,blank.png,,,,,,,,,,,,,,,,,,,,,,,,,,,,,"[""chocolate_truffle.png""]","[""blueberry.png""]",PB18.png,,,,,,,,,,,0,6,"[""blueberry.png""]","[""blueberry.png""]","[""blueberry.png""]","[""blueberry.png""]","[""blueberry.png""]","[""blueberry.png""]",blank.png,PB18.png,PB01.png,"[""blueberry.png""]","[""blueberry.png""]","[""blueberry.png""]","[""blueberry.png""]","[""blueberry.png""]","[""blueberry.png""]",blank.png,blank.png,blank.png,blank.png,blank.png,blank.png,1,"[""chocolate_truffle.png""]",blank.png,blank.png,blank.png,0,blank.png,blank.png,blank.png,blank.png,blank.png,blank.png,PB01.png,,,,,,,,,,,1,,,,,,,,,,,,348.56899997836445,,response,,,,,,,,,,,,,4,,,,,,,,,,,,,,,,,,,,,,,,,,,,,,,,,,,,,,,,,,,,,,,,,,,,,,,,,"[""blueberry.png""]","[""chocolate_truffle.png""]",,,,4,left,keydown(ArrowLeft),false,,1,,,,,,,329208.5799999768,329207.50999997836,328192.28,328804.83999999706,328858.941,329792.268,,6,,
square,canvas.Screen,2_4_2_6_1_0_0_0_0_5_3,2021-01-15T11:59:06.667Z,,,blank.png,blank.png,blank.png,blank.png,blank.png,blank.png,blank.png,"[""chocolate_truffle.png""]",blank.png,blank.png,blank.png,blank.png,blank.png,,,,,,,,,,,,,,,,,,,,,,,,,,,,,"[""chocolate_truffle.png""]","[""blueberry.png""]",PB18.png,,,,,,,,,,,0,6,"[""blueberry.png""]","[""blueberry.png""]","[""blueberry.png""]","[""blueberry.png""]","[""blueberry.png""]","[""blueberry.png""]",blank.png,PB18.png,PB01.png,"[""blueberry.png""]","[""blueberry.png""]","[""blueberry.png""]","[""blueberry.png""]","[""blueberry.png""]","[""blueberry.png""]",blank.png,blank.png,blank.png,blank.png,blank.png,blank.png,1,"[""chocolate_truffle.png""]",blank.png,blank.png,blank.png,0,blank.png,blank.png,blank.png,blank.png,blank.png,blank.png,PB01.png,,,,,,,,,,,1,,#33ff3f,#808080,,,,,,,,,999.9270000000251,,timeout,,,,,,,,,,,,,4,,,,,,,,,,,,,,,,,,,,,,,,,,,,,,,,,,,,,,,,,,,,,,,,,,,,,,,,,"[""blueberry.png""]","[""chocolate_truffle.png""]",,,,4,,,false,,1,,,,,black,white,330776.33999998216,330775.606,329775.569,329782.65499998815,329792.268,330792.195,,,,
ITI_late,canvas.Screen,2_4_2_6_1_0_0_0_0_5_4,2021-01-15T11:59:06.916Z,,,blank.png,blank.png,blank.png,blank.png,blank.png,blank.png,blank.png,"[""chocolate_truffle.png""]",blank.png,blank.png,blank.png,blank.png,blank.png,,,,,,,,,,,,,,,,,,,,,,,,,,,,,"[""chocolate_truffle.png""]","[""blueberry.png""]",PB18.png,,,,,,,,,,,0,6,"[""blueberry.png""]","[""blueberry.png""]","[""blueberry.png""]","[""blueberry.png""]","[""blueberry.png""]","[""blueberry.png""]",blank.png,PB18.png,PB01.png,"[""blueberry.png""]","[""blueberry.png""]","[""blueberry.png""]","[""blueberry.png""]","[""blueberry.png""]","[""blueberry.png""]",blank.png,blank.png,blank.png,blank.png,blank.png,blank.png,1,"[""chocolate_truffle.png""]",blank.png,blank.png,blank.png,0,blank.png,blank.png,blank.png,blank.png,blank.png,blank.png,PB01.png,,,,,,,,,,,1,,,,,,,,,,,,250.00199999997858,,timeout,,,,,,,,,,,,white,4,,,,,,,,,,,,,,,,,,,,,,,,,,,,,,,,,,,,,,,,,,,,,,,,,,,,,,,,,"[""blueberry.png""]","[""chocolate_truffle.png""]",,,,4,,,false,,1,,,,,,,331026.24999999534,331025.642,330775.606,330779.0199999581,330792.195,331042.197,,,,
choice_sequence,flow.Sequence,2_4_2_6_1_0_0_0_0_5,2021-01-15T11:59:06.917Z,,,blank.png,blank.png,blank.png,blank.png,blank.png,blank.png,blank.png,"[""chocolate_truffle.png""]",blank.png,blank.png,blank.png,blank.png,blank.png,,,,,,,,,,,,,,,,,,,,,,,,,,,,,"[""chocolate_truffle.png""]","[""blueberry.png""]",PB18.png,,,,,,,,,,,0,6,"[""blueberry.png""]","[""blueberry.png""]","[""blueberry.png""]","[""blueberry.png""]","[""blueberry.png""]","[""blueberry.png""]",blank.png,PB18.png,PB01.png,"[""blueberry.png""]","[""blueberry.png""]","[""blueberry.png""]","[""blueberry.png""]","[""blueberry.png""]","[""blueberry.png""]",blank.png,blank.png,blank.png,blank.png,blank.png,blank.png,1,"[""chocolate_truffle.png""]",blank.png,blank.png,blank.png,0,blank.png,blank.png,blank.png,blank.png,blank.png,blank.png,PB01.png,,,,,,,,,,,1,,,,,,,,,,,,4583.339999999967,,completion,,,,,,,,,,,,,4,,,,,,,,,,,,,,,,,,,,,,,,,,,,,,,,,,,,,,,,,,,,,,,,,,,,,,,,,"[""blueberry.png""]","[""chocolate_truffle.png""]",,,,4,,,false,,1,,,,,,,331026.78499999456,331025.642,326425.653,326431.1199999647,326442.302,331042.197,,,,
fixCross,canvas.Screen,2_4_2_6_1_0_0_0_0_6_0,2021-01-15T11:59:07.616Z,,,blank.png,"[""chocolate_truffle.png""]",blank.png,blank.png,blank.png,blank.png,blank.png,blank.png,blank.png,blank.png,blank.png,blank.png,blank.png,,,,,,,,,,,,,,,,,,,,,,,,,,,,,"[""chocolate_truffle.png""]","[""blueberry.png""]",PB17.png,,,,,,,,,,,0,6,"[""blueberry.png""]","[""blueberry.png""]","[""blueberry.png""]","[""blueberry.png""]","[""blueberry.png""]","[""blueberry.png""]",blank.png,PB18.png,PB18.png,"[""blueberry.png""]","[""blueberry.png""]","[""blueberry.png""]","[""blueberry.png""]","[""blueberry.png""]","[""blueberry.png""]","[""blueberry.png""]","[""blueberry.png""]","[""blueberry.png""]","[""blueberry.png""]","[""blueberry.png""]","[""blueberry.png""]",1,"[""chocolate_truffle.png""]",blank.png,blank.png,blank.png,6,"[""blueberry.png""]","[""blueberry.png""]","[""blueberry.png""]","[""blueberry.png""]","[""blueberry.png""]","[""blueberry.png""]",PB17.png,,,,,,,,,,,1,,,,,,,,,,,,1516.6670000000158,,timeout,,,,,,,,,,,,,3,,,,,,,,,,,,,,,,,,,,,,,,,,,,,,,,,,,,,,,,,,,,,,,,,,,,,,,,,"[""blueberry.png""]","[""chocolate_truffle.png""]",,,,4,,,false,,1,,,,,,,331726.13500000443,331725.504,331025.642,331031.634999963,331042.197,332558.864,7,,,
timeout,canvas.Screen,2_4_2_6_1_0_0_0_0_6_1,2021-01-15T11:59:08.933Z,,,blank.png,"[""chocolate_truffle.png""]",blank.png,blank.png,blank.png,blank.png,blank.png,blank.png,blank.png,blank.png,blank.png,blank.png,blank.png,,,,,,,,,,,,,,,,,,,,,,,,,,,,,"[""chocolate_truffle.png""]","[""blueberry.png""]",PB17.png,,,,,,,,,,,0,6,"[""blueberry.png""]","[""blueberry.png""]","[""blueberry.png""]","[""blueberry.png""]","[""blueberry.png""]","[""blueberry.png""]",blank.png,PB18.png,PB18.png,"[""blueberry.png""]","[""blueberry.png""]","[""blueberry.png""]","[""blueberry.png""]","[""blueberry.png""]","[""blueberry.png""]","[""blueberry.png""]","[""blueberry.png""]","[""blueberry.png""]","[""blueberry.png""]","[""blueberry.png""]","[""blueberry.png""]",1,"[""chocolate_truffle.png""]",blank.png,blank.png,blank.png,6,"[""blueberry.png""]","[""blueberry.png""]","[""blueberry.png""]","[""blueberry.png""]","[""blueberry.png""]","[""blueberry.png""]",PB17.png,,,,,,,,,,,1,,,,,,,,,,,,1366.6469999999972,,timeout,,,,,,,,,,,,,3,,,,,,,,,,,,,,,,,,,,,,,,,,,,,,,,,,,,,,,,,,,,,,,,,,,,,,,,,"[""blueberry.png""]","[""chocolate_truffle.png""]",,,,4,,,false,,1,,,,,,,333042.8199999733,333042.149,331725.504,332565.3699999675,332558.864,333925.511,,,,
choice,canvas.Screen,2_4_2_6_1_0_0_0_0_6_2,2021-01-15T11:59:10.173Z,,,blank.png,"[""chocolate_truffle.png""]",blank.png,blank.png,blank.png,blank.png,blank.png,blank.png,blank.png,blank.png,blank.png,blank.png,blank.png,,,,,,,,,,,,,,,,,,,,,,,,,,,,,"[""chocolate_truffle.png""]","[""blueberry.png""]",PB17.png,,,,,,,,,,,0,6,"[""blueberry.png""]","[""blueberry.png""]","[""blueberry.png""]","[""blueberry.png""]","[""blueberry.png""]","[""blueberry.png""]",blank.png,PB18.png,PB18.png,"[""blueberry.png""]","[""blueberry.png""]","[""blueberry.png""]","[""blueberry.png""]","[""blueberry.png""]","[""blueberry.png""]","[""blueberry.png""]","[""blueberry.png""]","[""blueberry.png""]","[""blueberry.png""]","[""blueberry.png""]","[""blueberry.png""]",1,"[""chocolate_truffle.png""]",blank.png,blank.png,blank.png,6,"[""blueberry.png""]","[""blueberry.png""]","[""blueberry.png""]","[""blueberry.png""]","[""blueberry.png""]","[""blueberry.png""]",PB17.png,,,,,,,,,,,1,,,,,,,,,,,,355.0189999890863,,response,,,,,,,,,,,,,3,,,,,,,,,,,,,,,,,,,,,,,,,,,,,,,,,,,,,,,,,,,,,,,,,,,,,,,,,"[""blueberry.png""]","[""chocolate_truffle.png""]",,,,4,left,keydown(ArrowLeft),false,,1,,,,,,,334282.5899999589,334280.5299999891,333042.149,333900.3049999592,333925.511,335108.864,,7,,
square,canvas.Screen,2_4_2_6_1_0_0_0_0_6_3,2021-01-15T11:59:11.984Z,,,blank.png,"[""chocolate_truffle.png""]",blank.png,blank.png,blank.png,blank.png,blank.png,blank.png,blank.png,blank.png,blank.png,blank.png,blank.png,,,,,,,,,,,,,,,,,,,,,,,,,,,,,"[""chocolate_truffle.png""]","[""blueberry.png""]",PB17.png,,,,,,,,,,,0,6,"[""blueberry.png""]","[""blueberry.png""]","[""blueberry.png""]","[""blueberry.png""]","[""blueberry.png""]","[""blueberry.png""]",blank.png,PB18.png,PB18.png,"[""blueberry.png""]","[""blueberry.png""]","[""blueberry.png""]","[""blueberry.png""]","[""blueberry.png""]","[""blueberry.png""]","[""blueberry.png""]","[""blueberry.png""]","[""blueberry.png""]","[""blueberry.png""]","[""blueberry.png""]","[""blueberry.png""]",1,"[""chocolate_truffle.png""]",blank.png,blank.png,blank.png,6,"[""blueberry.png""]","[""blueberry.png""]","[""blueberry.png""]","[""blueberry.png""]","[""blueberry.png""]","[""blueberry.png""]",PB17.png,,,,,,,,,,,1,,#33ff3f,#808080,,,,,,,,,999.9380000000237,,timeout,,,,,,,,,,,,,3,,,,,,,,,,,,,,,,,,,,,,,,,,,,,,,,,,,,,,,,,,,,,,,,,,,,,,,,,"[""blueberry.png""]","[""chocolate_truffle.png""]",,,,4,,,false,,1,,,,,black,white,336094.09500000766,336092.096,335092.088,335096.5800000122,335108.864,336108.802,,,,
ITI_late,canvas.Screen,2_4_2_6_1_0_0_0_0_6_4,2021-01-15T11:59:12.733Z,,,blank.png,"[""chocolate_truffle.png""]",blank.png,blank.png,blank.png,blank.png,blank.png,blank.png,blank.png,blank.png,blank.png,blank.png,blank.png,,,,,,,,,,,,,,,,,,,,,,,,,,,,,"[""chocolate_truffle.png""]","[""blueberry.png""]",PB17.png,,,,,,,,,,,0,6,"[""blueberry.png""]","[""blueberry.png""]","[""blueberry.png""]","[""blueberry.png""]","[""blueberry.png""]","[""blueberry.png""]",blank.png,PB18.png,PB18.png,"[""blueberry.png""]","[""blueberry.png""]","[""blueberry.png""]","[""blueberry.png""]","[""blueberry.png""]","[""blueberry.png""]","[""blueberry.png""]","[""blueberry.png""]","[""blueberry.png""]","[""blueberry.png""]","[""blueberry.png""]","[""blueberry.png""]",1,"[""chocolate_truffle.png""]",blank.png,blank.png,blank.png,6,"[""blueberry.png""]","[""blueberry.png""]","[""blueberry.png""]","[""blueberry.png""]","[""blueberry.png""]","[""blueberry.png""]",PB17.png,,,,,,,,,,,1,,,,,,,,,,,,766.7369999999646,,timeout,,,,,,,,,,,,white,3,,,,,,,,,,,,,,,,,,,,,,,,,,,,,,,,,,,,,,,,,,,,,,,,,,,,,,,,,"[""blueberry.png""]","[""chocolate_truffle.png""]",,,,4,,,false,,1,,,,,,,336842.8399999975,336842.177,336092.096,336095.96999996575,336108.802,336875.539,,,,
choice_sequence,flow.Sequence,2_4_2_6_1_0_0_0_0_6,2021-01-15T11:59:12.734Z,,,blank.png,"[""chocolate_truffle.png""]",blank.png,blank.png,blank.png,blank.png,blank.png,blank.png,blank.png,blank.png,blank.png,blank.png,blank.png,,,,,,,,,,,,,,,,,,,,,,,,,,,,,"[""chocolate_truffle.png""]","[""blueberry.png""]",PB17.png,,,,,,,,,,,0,6,"[""blueberry.png""]","[""blueberry.png""]","[""blueberry.png""]","[""blueberry.png""]","[""blueberry.png""]","[""blueberry.png""]",blank.png,PB18.png,PB18.png,"[""blueberry.png""]","[""blueberry.png""]","[""blueberry.png""]","[""blueberry.png""]","[""blueberry.png""]","[""blueberry.png""]","[""blueberry.png""]","[""blueberry.png""]","[""blueberry.png""]","[""blueberry.png""]","[""blueberry.png""]","[""blueberry.png""]",1,"[""chocolate_truffle.png""]",blank.png,blank.png,blank.png,6,"[""blueberry.png""]","[""blueberry.png""]","[""blueberry.png""]","[""blueberry.png""]","[""blueberry.png""]","[""blueberry.png""]",PB17.png,,,,,,,,,,,1,,,,,,,,,,,,5799.98000000004,,completion,,,,,,,,,,,,,3,,,,,,,,,,,,,,,,,,,,,,,,,,,,,,,,,,,,,,,,,,,,,,,,,,,,,,,,,"[""blueberry.png""]","[""chocolate_truffle.png""]",,,,4,,,false,,1,,,,,,,336843.41999999015,336842.177,331025.642,331030.8649999788,331042.197,336875.539,,,,
choice_loop,flow.Loop,2_4_2_6_1_0_0_0_0,2021-01-15T11:59:12.734Z,,,,,,,,,,,,,,,,,,,,,,,,,,,,,,,,,,,,,,,,,,,,"[""chocolate_truffle.png""]","[""blueberry.png""]",,,,,,,,,,,,,,,,,,,,,,,,,,,,,,,,,,,,,,,,,,,,,,,,,,,,,,,,,,,,,,,,,,,,,,40616.19500000001,,completion,,,,,,,,,,,,,,,,,,,,,,,,,,,,,,,,,,,,,,,,,,,,,,,,,,,,,,,,,,,,,,,,,,,,,,"[""blueberry.png""]","[""chocolate_truffle.png""]",,,,4,,,false,,,,,,,,,336843.75499997986,336842.177,296192.665,296224.9449999654,296225.982,336875.539,,,,
choice_frame,html.Frame,2_4_2_6_1_0_0_0,2021-01-15T11:59:12.734Z,,,,,,,,,,,,,,,,,,,,,,,,,,,,,,,,,,,,,,,,,,,,,,,,,,,,,,,,,,,,,,,,,,,,,,,,,,,,,,,,,,,,,,,,,,,,,,,,,,,,,,,,,,,,,,,,,,,40617.98300000728,,,,,,,,,,,,,,,,,,,,,,,,,,,,,,,,,,,,,,,,,,,,,,,,,,,,,,,,,,,,,,,,,,,,,,,,,,,,,4,,,false,,,,,,,,,336844.0899999696,336843.9650000073,296192.665,296193.58999998076,296225.982,336892.235,,,,
sublock_1,flow.Sequence,2_4_2_6_1_0_0,2021-01-15T11:59:12.734Z,,,,,,,,,,,,,,,,,,,,,,,,,,,,,,,,,,,,,,,,,,,,,,,,,,,,,,,,,,,,,,,,,,,,,,,,,,,,,,,,,,,,,,,,,,,,,,,,,,,,,,,,,,,,,,,,,,,40617.98300000728,,completion,,,,,,,,,,,,,,,,,,,,,,,,,,,,,,,,,,,,,,,,,,,,,,,,,,,,,,,,,,,,,,,,,,,,,,,,,,,4,,,false,,,,,,,,,336844.2149999901,336843.9650000073,296192.665,296193.5400000075,296225.982,336892.235,,,,
fixCross,canvas.Screen,2_4_2_6_1_0_1_0_0_0_0,2021-01-15T11:59:13.216Z,,,blank.png,"[""chocolate_truffle.png""]",blank.png,blank.png,blank.png,blank.png,blank.png,blank.png,blank.png,blank.png,blank.png,blank.png,blank.png,,,,,,,,,,,,,,,,,,,,,,,,,,,,,"[""chocolate_truffle.png""]","[""blueberry.png""]",PB01.png,,,,,,,,,,,0,6,"[""blueberry.png""]","[""blueberry.png""]","[""blueberry.png""]","[""blueberry.png""]","[""blueberry.png""]","[""blueberry.png""]",blank.png,PB18.png,PB18.png,blank.png,blank.png,blank.png,blank.png,blank.png,blank.png,"[""blueberry.png""]","[""blueberry.png""]","[""blueberry.png""]","[""blueberry.png""]","[""blueberry.png""]","[""blueberry.png""]",1,"[""chocolate_truffle.png""]",blank.png,blank.png,blank.png,0,blank.png,blank.png,blank.png,blank.png,blank.png,blank.png,PB01.png,,,,,,,,,,,1,,,,,,,,,,,,1049.9189999999944,,timeout,,,,,,,,,,,,,3,,,,,,,,,,,,,,,,,,,,,,,,,,,,,,,,,,,,,,,,,,,,,,,,,,,,,,,,,"[""blueberry.png""]","[""chocolate_truffle.png""]",,,,3,,,false,,1,,,,,,,337326.1699999566,337325.496,336875.539,336878.67999996524,336892.235,337942.154,8,,,
timeout,canvas.Screen,2_4_2_6_1_0_1_0_0_0_1,2021-01-15T11:59:14.316Z,,,blank.png,"[""chocolate_truffle.png""]",blank.png,blank.png,blank.png,blank.png,blank.png,blank.png,blank.png,blank.png,blank.png,blank.png,blank.png,,,,,,,,,,,,,,,,,,,,,,,,,,,,,"[""chocolate_truffle.png""]","[""blueberry.png""]",PB01.png,,,,,,,,,,,0,6,"[""blueberry.png""]","[""blueberry.png""]","[""blueberry.png""]","[""blueberry.png""]","[""blueberry.png""]","[""blueberry.png""]",blank.png,PB18.png,PB18.png,blank.png,blank.png,blank.png,blank.png,blank.png,blank.png,"[""blueberry.png""]","[""blueberry.png""]","[""blueberry.png""]","[""blueberry.png""]","[""blueberry.png""]","[""blueberry.png""]",1,"[""chocolate_truffle.png""]",blank.png,blank.png,blank.png,0,blank.png,blank.png,blank.png,blank.png,blank.png,blank.png,PB01.png,,,,,,,,,,,1,,,,,,,,,,,,1099.9679999999935,,timeout,,,,,,,,,,,,,3,,,,,,,,,,,,,,,,,,,,,,,,,,,,,,,,,,,,,,,,,,,,,,,,,,,,,,,,,"[""blueberry.png""]","[""chocolate_truffle.png""]",,,,3,,,false,,1,,,,,,,338426.1500000139,338425.46,337325.496,337928.73499996495,337942.154,339042.122,,,,
choice,canvas.Screen,2_4_2_6_1_0_1_0_0_0_2,2021-01-15T11:59:15.246Z,,,blank.png,"[""chocolate_truffle.png""]",blank.png,blank.png,blank.png,blank.png,blank.png,blank.png,blank.png,blank.png,blank.png,blank.png,blank.png,,,,,,,,,,,,,,,,,,,,,,,,,,,,,"[""chocolate_truffle.png""]","[""blueberry.png""]",PB01.png,,,,,,,,,,,0,6,"[""blueberry.png""]","[""blueberry.png""]","[""blueberry.png""]","[""blueberry.png""]","[""blueberry.png""]","[""blueberry.png""]",blank.png,PB18.png,PB18.png,blank.png,blank.png,blank.png,blank.png,blank.png,blank.png,"[""blueberry.png""]","[""blueberry.png""]","[""blueberry.png""]","[""blueberry.png""]","[""blueberry.png""]","[""blueberry.png""]",1,"[""chocolate_truffle.png""]",blank.png,blank.png,blank.png,0,blank.png,blank.png,blank.png,blank.png,blank.png,blank.png,PB01.png,,,,,,,,,,,1,,,,,,,,,,,,312.27299997303635,,response,,,,,,,,,,,,,3,,,,,,,,,,,,,,,,,,,,,,,,,,,,,,,,,,,,,,,,,,,,,,,,,,,,,,,,,"[""blueberry.png""]","[""chocolate_truffle.png""]",,,,3,right,keydown(ArrowRight),false,,1,,,,,,,339355.4749999894,339354.394999973,338425.46,339036.1350000021,339042.122,339958.805,,8,,
square,canvas.Screen,2_4_2_6_1_0_1_0_0_0_3,2021-01-15T11:59:16.833Z,,,blank.png,"[""chocolate_truffle.png""]",blank.png,blank.png,blank.png,blank.png,blank.png,blank.png,blank.png,blank.png,blank.png,blank.png,blank.png,,,,,,,,,,,,,,,,,,,,,,,,,,,,,"[""chocolate_truffle.png""]","[""blueberry.png""]",PB01.png,,,,,,,,,,,0,6,"[""blueberry.png""]","[""blueberry.png""]","[""blueberry.png""]","[""blueberry.png""]","[""blueberry.png""]","[""blueberry.png""]",blank.png,PB18.png,PB18.png,blank.png,blank.png,blank.png,blank.png,blank.png,blank.png,"[""blueberry.png""]","[""blueberry.png""]","[""blueberry.png""]","[""blueberry.png""]","[""blueberry.png""]","[""blueberry.png""]",1,"[""chocolate_truffle.png""]",blank.png,blank.png,blank.png,0,blank.png,blank.png,blank.png,blank.png,blank.png,blank.png,PB01.png,,,,,,,,,,,1,,#808080,#33ff3f,,,,,,,,,1000.0360000000219,,timeout,,,,,,,,,,,,,3,,,,,,,,,,,,,,,,,,,,,,,,,,,,,,,,,,,,,,,,,,,,,,,,,,,,,,,,,"[""blueberry.png""]","[""chocolate_truffle.png""]",,,,3,,,false,,1,,,,,white,black,340942.76000000536,340942.068,339942.036,339949.2399999872,339958.805,340958.841,,,,
ITI_late,canvas.Screen,2_4_2_6_1_0_1_0_0_0_4,2021-01-15T11:59:17.084Z,,,blank.png,"[""chocolate_truffle.png""]",blank.png,blank.png,blank.png,blank.png,blank.png,blank.png,blank.png,blank.png,blank.png,blank.png,blank.png,,,,,,,,,,,,,,,,,,,,,,,,,,,,,"[""chocolate_truffle.png""]","[""blueberry.png""]",PB01.png,,,,,,,,,,,0,6,"[""blueberry.png""]","[""blueberry.png""]","[""blueberry.png""]","[""blueberry.png""]","[""blueberry.png""]","[""blueberry.png""]",blank.png,PB18.png,PB18.png,blank.png,blank.png,blank.png,blank.png,blank.png,blank.png,"[""blueberry.png""]","[""blueberry.png""]","[""blueberry.png""]","[""blueberry.png""]","[""blueberry.png""]","[""blueberry.png""]",1,"[""chocolate_truffle.png""]",blank.png,blank.png,blank.png,0,blank.png,blank.png,blank.png,blank.png,blank.png,blank.png,PB01.png,,,,,,,,,,,1,,,,,,,,,,,,249.92900000000373,,timeout,,,,,,,,,,,,white,3,,,,,,,,,,,,,,,,,,,,,,,,,,,,,,,,,,,,,,,,,,,,,,,,,,,,,,,,,"[""blueberry.png""]","[""chocolate_truffle.png""]",,,,3,,,false,,1,,,,,,,341194.199999969,341192.208,340942.068,340944.5549999946,340958.841,341208.77,,,,
choice_sequence,flow.Sequence,2_4_2_6_1_0_1_0_0_0,2021-01-15T11:59:17.085Z,,,blank.png,"[""chocolate_truffle.png""]",blank.png,blank.png,blank.png,blank.png,blank.png,blank.png,blank.png,blank.png,blank.png,blank.png,blank.png,,,,,,,,,,,,,,,,,,,,,,,,,,,,,"[""chocolate_truffle.png""]","[""blueberry.png""]",PB01.png,,,,,,,,,,,0,6,"[""blueberry.png""]","[""blueberry.png""]","[""blueberry.png""]","[""blueberry.png""]","[""blueberry.png""]","[""blueberry.png""]",blank.png,PB18.png,PB18.png,blank.png,blank.png,blank.png,blank.png,blank.png,blank.png,"[""blueberry.png""]","[""blueberry.png""]","[""blueberry.png""]","[""blueberry.png""]","[""blueberry.png""]","[""blueberry.png""]",1,"[""chocolate_truffle.png""]",blank.png,blank.png,blank.png,0,blank.png,blank.png,blank.png,blank.png,blank.png,blank.png,PB01.png,,,,,,,,,,,1,,,,,,,,,,,,4299.972999999998,,completion,,,,,,,,,,,,,3,,,,,,,,,,,,,,,,,,,,,,,,,,,,,,,,,,,,,,,,,,,,,,,,,,,,,,,,,"[""blueberry.png""]","[""chocolate_truffle.png""]",,,,3,,,false,,1,,,,,,,341195.0099999667,341192.208,336875.539,336877.8699999675,336892.235,341208.77,,,,
fixCross,canvas.Screen,2_4_2_6_1_0_1_0_0_1_0,2021-01-15T11:59:17.483Z,,,blank.png,"[""chocolate_truffle.png""]",blank.png,blank.png,blank.png,blank.png,blank.png,blank.png,blank.png,blank.png,blank.png,blank.png,blank.png,,,,,,,,,,,,,,,,,,,,,,,,,,,,,"[""chocolate_truffle.png""]","[""blueberry.png""]",PB16.png,,,,,,,,,,,0,6,"[""blueberry.png""]","[""blueberry.png""]","[""blueberry.png""]","[""blueberry.png""]","[""blueberry.png""]","[""blueberry.png""]",blank.png,PB18.png,PB18.png,"[""blueberry.png""]","[""blueberry.png""]","[""blueberry.png""]","[""blueberry.png""]","[""blueberry.png""]",blank.png,"[""blueberry.png""]","[""blueberry.png""]","[""blueberry.png""]","[""blueberry.png""]","[""blueberry.png""]","[""blueberry.png""]",1,"[""chocolate_truffle.png""]",blank.png,blank.png,blank.png,5,"[""blueberry.png""]","[""blueberry.png""]","[""blueberry.png""]","[""blueberry.png""]","[""blueberry.png""]",blank.png,PB16.png,,,,,,,,,,,1,,,,,,,,,,,,1200.0529999999562,,timeout,,,,,,,,,,,,,3,,,,,,,,,,,,,,,,,,,,,,,,,,,,,,,,,,,,,,,,,,,,,,,,,,,,,,,,,"[""blueberry.png""]","[""chocolate_truffle.png""]",,,,3,,,false,,1,,,,,,,341592.88000001106,341592.183,341192.208,341200.8550000028,341208.77,342408.823,9,,,
timeout,canvas.Screen,2_4_2_6_1_0_1_0_0_1_1,2021-01-15T11:59:18.783Z,,,blank.png,"[""chocolate_truffle.png""]",blank.png,blank.png,blank.png,blank.png,blank.png,blank.png,blank.png,blank.png,blank.png,blank.png,blank.png,,,,,,,,,,,,,,,,,,,,,,,,,,,,,"[""chocolate_truffle.png""]","[""blueberry.png""]",PB16.png,,,,,,,,,,,0,6,"[""blueberry.png""]","[""blueberry.png""]","[""blueberry.png""]","[""blueberry.png""]","[""blueberry.png""]","[""blueberry.png""]",blank.png,PB18.png,PB18.png,"[""blueberry.png""]","[""blueberry.png""]","[""blueberry.png""]","[""blueberry.png""]","[""blueberry.png""]",blank.png,"[""blueberry.png""]","[""blueberry.png""]","[""blueberry.png""]","[""blueberry.png""]","[""blueberry.png""]","[""blueberry.png""]",1,"[""chocolate_truffle.png""]",blank.png,blank.png,blank.png,5,"[""blueberry.png""]","[""blueberry.png""]","[""blueberry.png""]","[""blueberry.png""]","[""blueberry.png""]",blank.png,PB16.png,,,,,,,,,,,1,,,,,,,,,,,,1299.9250000000466,,timeout,,,,,,,,,,,,,3,,,,,,,,,,,,,,,,,,,,,,,,,,,,,,,,,,,,,,,,,,,,,,,,,,,,,,,,,"[""blueberry.png""]","[""chocolate_truffle.png""]",,,,3,,,false,,1,,,,,,,342892.669999972,342892.021,341592.183,342395.8349999739,342408.823,343708.748,,,,
choice,canvas.Screen,2_4_2_6_1_0_1_0_0_1_2,2021-01-15T11:59:20.755Z,,,blank.png,"[""chocolate_truffle.png""]",blank.png,blank.png,blank.png,blank.png,blank.png,blank.png,blank.png,blank.png,blank.png,blank.png,blank.png,,,,,,,,,,,,,,,,,,,,,,,,,,,,,"[""chocolate_truffle.png""]","[""blueberry.png""]",PB16.png,,,,,,,,,,,0,6,"[""blueberry.png""]","[""blueberry.png""]","[""blueberry.png""]","[""blueberry.png""]","[""blueberry.png""]","[""blueberry.png""]",blank.png,PB18.png,PB18.png,"[""blueberry.png""]","[""blueberry.png""]","[""blueberry.png""]","[""blueberry.png""]","[""blueberry.png""]",blank.png,"[""blueberry.png""]","[""blueberry.png""]","[""blueberry.png""]","[""blueberry.png""]","[""blueberry.png""]","[""blueberry.png""]",1,"[""chocolate_truffle.png""]",blank.png,blank.png,blank.png,5,"[""blueberry.png""]","[""blueberry.png""]","[""blueberry.png""]","[""blueberry.png""]","[""blueberry.png""]",blank.png,PB16.png,,,,,,,,,,,1,,,,,,,,,,,,1153.6470000037225,,response,,,,,,,,,,,,,3,,,,,,,,,,,,,,,,,,,,,,,,,,,,,,,,,,,,,,,,,,,,,,,,,,,,,,,,,"[""blueberry.png""]","[""chocolate_truffle.png""]",,,,3,left,keydown(ArrowLeft),false,,1,,,,,,,344864.36000000685,344862.39500000374,342892.021,343696.99999998556,343708.748,345679.589,,9,,
square,canvas.Screen,2_4_2_6_1_0_1_0_0_1_3,2021-01-15T11:59:22.550Z,,,blank.png,"[""chocolate_truffle.png""]",blank.png,blank.png,blank.png,blank.png,blank.png,blank.png,blank.png,blank.png,blank.png,blank.png,blank.png,,,,,,,,,,,,,,,,,,,,,,,,,,,,,"[""chocolate_truffle.png""]","[""blueberry.png""]",PB16.png,,,,,,,,,,,0,6,"[""blueberry.png""]","[""blueberry.png""]","[""blueberry.png""]","[""blueberry.png""]","[""blueberry.png""]","[""blueberry.png""]",blank.png,PB18.png,PB18.png,"[""blueberry.png""]","[""blueberry.png""]","[""blueberry.png""]","[""blueberry.png""]","[""blueberry.png""]",blank.png,"[""blueberry.png""]","[""blueberry.png""]","[""blueberry.png""]","[""blueberry.png""]","[""blueberry.png""]","[""blueberry.png""]",1,"[""chocolate_truffle.png""]",blank.png,blank.png,blank.png,5,"[""blueberry.png""]","[""blueberry.png""]","[""blueberry.png""]","[""blueberry.png""]","[""blueberry.png""]",blank.png,PB16.png,,,,,,,,,,,1,,#33ff3f,#808080,,,,,,,,,995.838000000047,,timeout,,,,,,,,,,,,,3,,,,,,,,,,,,,,,,,,,,,,,,,,,,,,,,,,,,,,,,,,,,,,,,,,,,,,,,,"[""blueberry.png""]","[""chocolate_truffle.png""]",,,,3,,,false,,1,,,,,black,white,346659.3850000063,346658.714,345641.939,345657.91499998886,345679.589,346675.427,,,,
ITI_late,canvas.Screen,2_4_2_6_1_0_1_0_0_1_4,2021-01-15T11:59:23.550Z,,,blank.png,"[""chocolate_truffle.png""]",blank.png,blank.png,blank.png,blank.png,blank.png,blank.png,blank.png,blank.png,blank.png,blank.png,blank.png,,,,,,,,,,,,,,,,,,,,,,,,,,,,,"[""chocolate_truffle.png""]","[""blueberry.png""]",PB16.png,,,,,,,,,,,0,6,"[""blueberry.png""]","[""blueberry.png""]","[""blueberry.png""]","[""blueberry.png""]","[""blueberry.png""]","[""blueberry.png""]",blank.png,PB18.png,PB18.png,"[""blueberry.png""]","[""blueberry.png""]","[""blueberry.png""]","[""blueberry.png""]","[""blueberry.png""]",blank.png,"[""blueberry.png""]","[""blueberry.png""]","[""blueberry.png""]","[""blueberry.png""]","[""blueberry.png""]","[""blueberry.png""]",1,"[""chocolate_truffle.png""]",blank.png,blank.png,blank.png,5,"[""blueberry.png""]","[""blueberry.png""]","[""blueberry.png""]","[""blueberry.png""]","[""blueberry.png""]",blank.png,PB16.png,,,,,,,,,,,1,,,,,,,,,,,,999.9599999999627,,timeout,,,,,,,,,,,,white,3,,,,,,,,,,,,,,,,,,,,,,,,,,,,,,,,,,,,,,,,,,,,,,,,,,,,,,,,,"[""blueberry.png""]","[""chocolate_truffle.png""]",,,,3,,,false,,1,,,,,,,347659.40499998396,347658.757,346658.714,346661.1499999999,346675.427,347675.387,,,,
choice_sequence,flow.Sequence,2_4_2_6_1_0_1_0_0_1,2021-01-15T11:59:23.550Z,,,blank.png,"[""chocolate_truffle.png""]",blank.png,blank.png,blank.png,blank.png,blank.png,blank.png,blank.png,blank.png,blank.png,blank.png,blank.png,,,,,,,,,,,,,,,,,,,,,,,,,,,,,"[""chocolate_truffle.png""]","[""blueberry.png""]",PB16.png,,,,,,,,,,,0,6,"[""blueberry.png""]","[""blueberry.png""]","[""blueberry.png""]","[""blueberry.png""]","[""blueberry.png""]","[""blueberry.png""]",blank.png,PB18.png,PB18.png,"[""blueberry.png""]","[""blueberry.png""]","[""blueberry.png""]","[""blueberry.png""]","[""blueberry.png""]",blank.png,"[""blueberry.png""]","[""blueberry.png""]","[""blueberry.png""]","[""blueberry.png""]","[""blueberry.png""]","[""blueberry.png""]",1,"[""chocolate_truffle.png""]",blank.png,blank.png,blank.png,5,"[""blueberry.png""]","[""blueberry.png""]","[""blueberry.png""]","[""blueberry.png""]","[""blueberry.png""]",blank.png,PB16.png,,,,,,,,,,,1,,,,,,,,,,,,6449.986999999965,,completion,,,,,,,,,,,,,3,,,,,,,,,,,,,,,,,,,,,,,,,,,,,,,,,,,,,,,,,,,,,,,,,,,,,,,,,"[""blueberry.png""]","[""chocolate_truffle.png""]",,,,3,,,false,,1,,,,,,,347659.91499996744,347658.757,341192.208,341199.91999998456,341208.77,347675.387,,,,
