sender,sender_type,sender_id,timestamp,meta,,Blank,DownLeft1,DownLeft2,DownLeft3,DownLeft4,DownLeft5,DownLeft6,DownRight1,DownRight2,DownRight3,DownRight4,DownRight5,DownRight6,FoodHabits_Fru_item1,FoodHabits_Fru_item2,FoodHabits_Fru_item3,FoodHabits_Fru_item4,FoodHabits_Fru_item5,FoodHabits_Fru_item6,FoodHabits_Fru_item7,FoodHabits_Meat_item1,FoodHabits_Meat_item2,FoodHabits_Meat_item3,FoodHabits_Meat_item4,FoodHabits_Meat_item5,FoodHabits_Meat_item6,FoodHabits_Meat_item7,FoodHabits_Swe_item1,FoodHabits_Swe_item2,FoodHabits_Swe_item3,FoodHabits_Swe_item4,FoodHabits_Swe_item5,FoodHabits_Swe_item6,FoodHabits_Swe_item7,FoodHabits_Veg_item1,FoodHabits_Veg_item2,FoodHabits_Veg_item3,FoodHabits_Veg_item4,FoodHabits_Veg_item5,FoodHabits_Veg_item6,FoodHabits_Veg_item7,ImgA,ImgB,LeftBar,PSS_item01,PSS_item02,PSS_item03,PSS_item04,PSS_item05,PSS_item06,PSS_item07,PSS_item08,PSS_item09,PSS_item10,RefA,RefB,RefB1,RefB2,RefB3,RefB4,RefB5,RefB6,RefB7,Ref_PB,RightBar,UpLeft1,UpLeft2,UpLeft3,UpLeft4,UpLeft5,UpLeft6,UpRight1,UpRight2,UpRight3,UpRight4,UpRight5,UpRight6,VarA,VarA1,VarA2,VarA3,VarA4,VarB,VarB1,VarB2,VarB3,VarB4,VarB5,VarB6,Var_PB,attCheck_fileA,attCheck_fileB,attCheck_fileC,attCheck_fileD,attCheck_options,attCheck_valueA,attCheck_valueB,attCheck_valueC,attCheck_valueD,attention_check,block,break1,browser_name,choseL,choseR,consent_form1,consent_form2,consentconfirmation_form1,consentconfirmation_form2,correct,correctResponse,diet,disorder,duration,edu,ended_on,enjoy,full_version,gender,group,hunger,img,imgTask,input_age,input_meal,input_occ,input_remark,lateRespFeed,list,major_version,message,mixQ_item1,mixQ_item2,mixQ_item3,mixQ_item4,mixQ_item5,name,navigator_appName,navigator_userAgent,os,pracQ1_IDa,pracQ1_IDb,pracQ1_IDc,pracQ1_IDd,pracQ1_optionA,pracQ1_optionB,pracQ1_optionC,pracQ1_optionD,pracQ1_valueA,pracQ1_valueB,pracQ1_valueC,pracQ1_valueD,pracQ2_IDa,pracQ2_IDb,pracQ2_IDc,pracQ2_optionA,pracQ2_optionB,pracQ2_optionC,pracQ2_valueA,pracQ2_valueB,pracQ2_valueC,pracQ4_IDa,pracQ4_IDb,pracQ4_IDc,pracQ4_IDd,pracQ4_optionA,pracQ4_optionB,pracQ4_optionC,pracQ4_optionD,pracQ4_valueA,pracQ4_valueB,pracQ4_valueC,pracQ4_valueD,pracQ5_IDa,pracQ5_IDb,pracQ5_IDc,pracQ5_IDd,pracQ5_optionA,pracQ5_optionB,pracQ5_optionC,pracQ5_optionD,pracQ5_valueA,pracQ5_valueB,pracQ5_valueC,pracQ5_valueD,prefHealty,prefUnhealthy,prolific_ID,psessionID,pstudyID,rep,response,response_action,skip,snack,sublock,subtitle,task_difficulty,task_engagement,task_focus,textL,textR,time_commit,time_end,time_render,time_run,time_show,time_switch,trial_count,trial_countO,url,valence
Title,html.Page,0,2021-05-24T16:10:15.579Z,"{""labjs_version"":""20.2.2"",""labjs_build"":{""flavor"":""production"",""commit"":""a25486e0c714a0ae2ce03ff94b7bb6896854dcfa""},""location"":""https://run.pavlovia.org/E3lab/rebund/html/?PROLIFIC_PID=5b5662caec85c10001acda49&STUDY_ID=60008f34cd719d13b0d706dd&SESSION_ID=60abcfd9510120b0f7fb0e70"",""userAgent"":""Mozilla/5.0 (Windows NT 10.0; Win64; x64) AppleWebKit/537.36 (KHTML, like Gecko) Chrome/90.0.4430.212 Safari/537.36"",""platform"":""Win32"",""language"":""en-US"",""locale"":""en-US"",""timeZone"":""Europe/London"",""timezoneOffset"":-60,""screen_width"":1366,""screen_height"":768,""scroll_width"":1366,""scroll_height"":577,""window_innerWidth"":1366,""window_innerHeight"":625,""devicePixelRatio"":1}",,,,,,,,,,,,,,,,,,,,,,,,,,,,,,,,,,,,,,,,,,,,,,,,,,,,,,,,,,,,,,,,,,,,,,,,,,,,,,,,,,,,,,,,,,,,,,,,,,,,,,,,,,,,,,,,,,,5450.843999977844,,form submission,,,,,,,,,,,,,,,,,,,,,,,,,,,,,,,,,,,,,,,,,,,,,,,,,,,,,,,,,,,,,,,,,,,,,,,,,,,,,,,,,,,,,,,8237.429999979213,8234.459999977844,2766.999,2776.2799999909475,2783.616,8244.94,,,"{""PROLIFIC_PID"":""5b5662caec85c10001acda49"",""STUDY_ID"":""60008f34cd719d13b0d706dd"",""SESSION_ID"":""60abcfd9510120b0f7fb0e70""}",
get_systemInfo,canvas.Screen,1,2021-05-24T16:10:15.591Z,,,,,,,,,,,,,,,,,,,,,,,,,,,,,,,,,,,,,,,,,,,,,,,,,,,,,,,,,,,,,,,,,,,,,,,,,,,,,,,,,,,,,,,,,,,,,,,,,,,,,,,,,Chrome,,,,,,,,,,,3713.0460000000003,,timeout,,90.0.4430.212,,,,,,,,,,,,90,,,,,,,,Netscape,"Mozilla/5.0 (Windows NT 10.0; Win64; x64) AppleWebKit/537.36 (KHTML, like Gecko) Chrome/90.0.4430.212 Safari/537.36",Windows,,,,,,,,,,,,,,,,,,,,,,,,,,,,,,,,,,,,,,,,,,,,,,,,5b5662caec85c10001acda49,,60008f34cd719d13b0d706dd,,,,,,,,,,,,,8249.839999974938,8249.319999973522,8232.439,8238.194999983534,8244.94,11957.986,,,,
ConsentForm,html.Form,2_0,2021-05-24T16:10:38.761Z,,,,,,,,,,,,,,,,,,,,,,,,,,,,,,,,,,,,,,,,,,,,,,,,,,,,,,,,,,,,,,,,,,,,,,,,,,,,,,,,,,,,,,,,,,,,,,,,,,,,,,,,,,,,true,true,,,,,,,19461.138999985797,,form submission,,,,,,,,,,,,,,,,,,,,,,,,,,,,,,,,,,,,,,,,,,,,,,,,,,,,,,,,,,,,,,,,,,,,,,,,,,,,,,,,,,,,,,,31419.43499998888,31419.124999985797,8249.319999973522,11980.51999998279,11957.986,31422.21,,,,
PepTalk,html.Page,2_1,2021-05-24T16:10:50.381Z,,,,,,,,,,,,,,,,,,,,,,,,,,,,,,,,,,,,,,,,,,,,,,,,,,,,,,,,,,,,,,,,,,,,,,,,,,,,,,,,,,,,,,,,,,,,,,,,,,,,,,,,,,,,,,,,,,,,11617.399999977984,,form submission,,,,,,,,,,,,,,,,,,,,,,,,,,,,,,,,,,,,,,,,,,,,,,,,,,,,,,,,,,,,,,,,,,,,,,,,,,,,,,,,,,,,,,,43039.87499998766,43039.60999997798,31405.9,31419.53499999363,31422.21,43044.179,,,,
Demographics,html.Form,2_2,2021-05-24T16:11:59.220Z,,,,,,,,,,,,,,,,,,,,,,,,,,,,,,,,,,,,,,,,,,,,,,,,,,,,,,,,,,,,,,,,,,,,,,,,,,,,,,,,,,,,,,,,,,,,,,,,,,,,,,,,,,,,,,,,,,,,68831.78599998471,2,form submission,,,1,,,,,19,,Student,,,,,,,,,,,,,,,,,,,,,,,,,,,,,,,,,,,,,,,,,,,,,,,,,,,,,,,,,,,,,,,,,,,,,,,,,,,,,111876.37499999255,111875.96499998472,43027.741,43039.95999999461,43044.179,111876.742,,,,
InclusionCrit,html.Form,2_3,2021-05-24T16:12:14.175Z,,,,,,,,,,,,,,,,,,,,,,,,,,,,,,,,,,,,,,,,,,,,,,,,,,,,,,,,,,,,,,,,,,,,,,,,,,,,,,,,,,,,,,,,,,,,,,,,,,,,,,,,,,,,,,,,,,1,1,14954.302999998996,,form submission,1,,,,,,,,,,,,,,,,,,,,,,,,,,,,,,,,,,,,,,,,,,,,,,,,,,,,,,,,,,,,,,,,,,,,,,,,,,,,,,,,,,,,,,126831.34499998414,126831.044999999,111860.477,111876.52499999967,111876.742,126845.844,,,,
Selection,html.Page,2_4_0,2021-05-24T16:12:20.070Z,,,,,,,,,,,,,,,,,,,,,,,,,,,,,,,,,,,,,,,,,,,,,,,,,,,,,,,,,,,,,,,,,,,,,,,,,,,,,,,,,,,,,,,,,,,,,,,,,,,,,,,,,,,,,,,,,,,,5880.065999979197,,form submission,,,,,,,,,,,,,,,,,,,,,,,,,,,,,,,,,,,,,,,,,,,,,,,,,,,,,,,,,,,,,,,,,,,,,,,,,,,,,,,0,,,,,,,,132726.20499998447,132725.9099999792,126829.186,126831.46499999566,126845.844,132740.195,,,,
Load,html.Page,2_4_1,2021-05-24T16:12:20.085Z,,,,,,,,,,,,,,,,,,,,,,,,,,,,,,,,,,,,,,,,,,,,,,,,,,,,,,,,,,,,,,,,,,,,,,,,,,,,,,,,,,,,,,,,,,,,,,,,,,,,,,,,,,,,,,,,,,,,5710.709999999992,,timeout,,,,,,,,,,,,,,,,,,,,,,,,,,,,,,,,,,,,,,,,,,,,,,,,,,,,,,,,,,,,,,,,,,,,,,,,,,,,,,,,,,,,,,,132740.7499999972,132740.44999998296,132723.14,132726.28999999142,132740.195,138450.905,,,,
ratings_instructions,html.Screen,2_4_2_0,2021-05-24T16:12:40.866Z,,,,,,,,,,,,,,,,,,,,,,,,,,,,,,,,,,,,,,,,,,,,,,,,,,,,,,,,,,,,,,,,,,,,,,,,,,,,,,,,,,,,,,,,,,,,,,,,,,,,,,,,,,,,,,,,,,,,15069.379999976867,,response,,,,,,,,,,,,,,,,,,,,,,,,,,,,,,,,,,,,,,,,,,,,,,,,,,,,,,,,,,,,,,,,,,,,,,,,,,,,continue,keypress(Space),false,,,,,,,,,153522.0599999884,153520.28499997687,132740.44999998296,138477.2749999829,138450.905,153535.903,0,0,,
fixCross,canvas.Screen,2_4_2_1_0_0,2021-05-24T16:12:41.366Z,,,,,,,,,,,,,,,,,,,,,,,,,,,,,,,,,,,,,,,,,,,,,,,,,,,,,,,,,,,,,,,,,,,,,,,,,,,,,,,,,,,,,,,,,,,,,,,,,,,,,,,,,,,,,,,,,,,,499.50500000000466,,timeout,,,,unhealthy,,liqorice.png,,,,,,,,,,,,,,,liquorice,,,,,,,,,,,,,,,,,,,,,,,,,,,,,,,,,,,,,,,,,,,,,,,,,,,,,,,,,false,,,,,,,,,154021.8949999835,154019.107,153519.742,153522.27999997558,153535.903,154035.408,,,,
Rating,html.Form,2_4_2_1_0_1,2021-05-24T16:12:48.731Z,,,,,,,,,,,,,,,,,,,,,,,,,,,,,,,,,,,,,,,,,,,,,,,,,,,,,,,,,,,,,,,,,,,,,,,,,,,,,,,,,,,,,,,,,,,,,,,,,,,,,,,,,,,,,,,,,,,,7348.192000001029,,form submission,,,,unhealthy,,liqorice.png,,,,,,,,,,,,,,,liquorice,,,,,,,,,,,,,,,,,,,,,,,,,,,,,,,,,,,,,,,,,,,,,,,,,,,,,,,,,false,,,,,,,,,161386.7699999828,161383.60000000102,154019.107,154022.0449999906,154035.408,161394.997,,,,17
rating_sequence,flow.Sequence,2_4_2_1_0,2021-05-24T16:12:48.731Z,,,,,,,,,,,,,,,,,,,,,,,,,,,,,,,,,,,,,,,,,,,,,,,,,,,,,,,,,,,,,,,,,,,,,,,,,,,,,,,,,,,,,,,,,,,,,,,,,,,,,,,,,,,,,,,,,,,,7847.697000001033,,completion,,,,unhealthy,,liqorice.png,,,,,,,,,,,,,,,liquorice,,,,,,,,,,,,,,,,,,,,,,,,,,,,,,,,,,,,,,,,,,,,,,,,,,,,,,,,,false,,,,,,,,,161386.92999997875,161383.60000000102,153519.742,153522.25499998895,153535.903,161394.997,,,,
fixCross,canvas.Screen,2_4_2_1_1_0,2021-05-24T16:12:49.223Z,,,,,,,,,,,,,,,,,,,,,,,,,,,,,,,,,,,,,,,,,,,,,,,,,,,,,,,,,,,,,,,,,,,,,,,,,,,,,,,,,,,,,,,,,,,,,,,,,,,,,,,,,,,,,,,,,,,,499.4459999999963,,timeout,,,,unhealthy,,praline.png,,,,,,,,,,,,,,,praline,,,,,,,,,,,,,,,,,,,,,,,,,,,,,,,,,,,,,,,,,,,,,,,,,,,,,,,,,false,,,,,,,,,161878.84999997914,161878.402,161378.748,161387.00999997673,161394.997,161894.443,,,,
Rating,html.Form,2_4_2_1_1_1,2021-05-24T16:12:54.644Z,,,,,,,,,,,,,,,,,,,,,,,,,,,,,,,,,,,,,,,,,,,,,,,,,,,,,,,,,,,,,,,,,,,,,,,,,,,,,,,,,,,,,,,,,,,,,,,,,,,,,,,,,,,,,,,,,,,,5402.096999981179,,form submission,,,,unhealthy,,praline.png,,,,,,,,,,,,,,,praline,,,,,,,,,,,,,,,,,,,,,,,,,,,,,,,,,,,,,,,,,,,,,,,,,,,,,,,,,false,,,,,,,,,167299.53999997815,167296.53999998118,161878.402,161878.96000000183,161894.443,167305.808,,,,85
rating_sequence,flow.Sequence,2_4_2_1_1,2021-05-24T16:12:54.644Z,,,,,,,,,,,,,,,,,,,,,,,,,,,,,,,,,,,,,,,,,,,,,,,,,,,,,,,,,,,,,,,,,,,,,,,,,,,,,,,,,,,,,,,,,,,,,,,,,,,,,,,,,,,,,,,,,,,,5901.542999981175,,completion,,,,unhealthy,,praline.png,,,,,,,,,,,,,,,praline,,,,,,,,,,,,,,,,,,,,,,,,,,,,,,,,,,,,,,,,,,,,,,,,,,,,,,,,,false,,,,,,,,,167299.6849999763,167296.53999998118,161378.748,161386.98999999906,161394.997,167305.808,,,,
fixCross,canvas.Screen,2_4_2_1_2_0,2021-05-24T16:12:55.134Z,,,,,,,,,,,,,,,,,,,,,,,,,,,,,,,,,,,,,,,,,,,,,,,,,,,,,,,,,,,,,,,,,,,,,,,,,,,,,,,,,,,,,,,,,,,,,,,,,,,,,,,,,,,,,,,,,,,,499.5770000000193,,timeout,,,,healthy,,strawberry.png,,,,,,,,,,,,,,,strawberry,,,,,,,,,,,,,,,,,,,,,,,,,,,,,,,,,,,,,,,,,,,,,,,,,,,,,,,,,false,,,,,,,,,167789.74999999627,167789.28,167289.447,167299.7800000012,167305.808,167805.385,,,,
Rating,html.Form,2_4_2_1_2_1,2021-05-24T16:12:59.196Z,,,,,,,,,,,,,,,,,,,,,,,,,,,,,,,,,,,,,,,,,,,,,,,,,,,,,,,,,,,,,,,,,,,,,,,,,,,,,,,,,,,,,,,,,,,,,,,,,,,,,,,,,,,,,,,,,,,,4042.30999997491,,form submission,,,,healthy,,strawberry.png,,,,,,,,,,,,,,,strawberry,,,,,,,,,,,,,,,,,,,,,,,,,,,,,,,,,,,,,,,,,,,,,,,,,,,,,,,,,false,,,,,,,,,171851.88000000198,171847.69499997492,167789.28,167789.87999999663,167805.385,171851.312,,,,59
rating_sequence,flow.Sequence,2_4_2_1_2,2021-05-24T16:12:59.196Z,,,,,,,,,,,,,,,,,,,,,,,,,,,,,,,,,,,,,,,,,,,,,,,,,,,,,,,,,,,,,,,,,,,,,,,,,,,,,,,,,,,,,,,,,,,,,,,,,,,,,,,,,,,,,,,,,,,,4541.8869999749295,,completion,,,,healthy,,strawberry.png,,,,,,,,,,,,,,,strawberry,,,,,,,,,,,,,,,,,,,,,,,,,,,,,,,,,,,,,,,,,,,,,,,,,,,,,,,,,false,,,,,,,,,171852.0599999756,171847.69499997492,167289.447,167299.74999997648,167305.808,171851.312,,,,
fixCross,canvas.Screen,2_4_2_1_3_0,2021-05-24T16:12:59.681Z,,,,,,,,,,,,,,,,,,,,,,,,,,,,,,,,,,,,,,,,,,,,,,,,,,,,,,,,,,,,,,,,,,,,,,,,,,,,,,,,,,,,,,,,,,,,,,,,,,,,,,,,,,,,,,,,,,,,499.83299999998417,,timeout,,,,unhealthy,,gummybear.png,,,,,,,,,,,,,,,gummybear,,,,,,,,,,,,,,,,,,,,,,,,,,,,,,,,,,,,,,,,,,,,,,,,,,,,,,,,,false,,,,,,,,,172336.92000000156,172334.518,171834.659,171852.1399999736,171851.312,172351.145,,,,
Rating,html.Form,2_4_2_1_3_1,2021-05-24T16:13:03.411Z,,,,,,,,,,,,,,,,,,,,,,,,,,,,,,,,,,,,,,,,,,,,,,,,,,,,,,,,,,,,,,,,,,,,,,,,,,,,,,,,,,,,,,,,,,,,,,,,,,,,,,,,,,,,,,,,,,,,3711.864999983489,,form submission,,,,unhealthy,,gummybear.png,,,,,,,,,,,,,,,gummybear,,,,,,,,,,,,,,,,,,,,,,,,,,,,,,,,,,,,,,,,,,,,,,,,,,,,,,,,,false,,,,,,,,,176066.5549999976,176063.00999998348,172334.518,172337.00999998837,172351.145,176063.853,,,,70
rating_sequence,flow.Sequence,2_4_2_1_3,2021-05-24T16:13:03.411Z,,,,,,,,,,,,,,,,,,,,,,,,,,,,,,,,,,,,,,,,,,,,,,,,,,,,,,,,,,,,,,,,,,,,,,,,,,,,,,,,,,,,,,,,,,,,,,,,,,,,,,,,,,,,,,,,,,,,4211.697999983473,,completion,,,,unhealthy,,gummybear.png,,,,,,,,,,,,,,,gummybear,,,,,,,,,,,,,,,,,,,,,,,,,,,,,,,,,,,,,,,,,,,,,,,,,,,,,,,,,false,,,,,,,,,176066.69999999576,176063.00999998348,171834.659,171852.11499998695,171851.312,176063.853,,,,
fixCross,canvas.Screen,2_4_2_1_4_0,2021-05-24T16:13:03.892Z,,,,,,,,,,,,,,,,,,,,,,,,,,,,,,,,,,,,,,,,,,,,,,,,,,,,,,,,,,,,,,,,,,,,,,,,,,,,,,,,,,,,,,,,,,,,,,,,,,,,,,,,,,,,,,,,,,,,500.0540000000037,,timeout,,,,healthy,,blueberry.png,,,,,,,,,,,,,,,blueberry,,,,,,,,,,,,,,,,,,,,,,,,,,,,,,,,,,,,,,,,,,,,,,,,,,,,,,,,,false,,,,,,,,,176547.5949999818,176547.076,176047.617,176066.77999999374,176063.853,176563.907,,,,
Rating,html.Form,2_4_2_1_4_1,2021-05-24T16:13:07.816Z,,,,,,,,,,,,,,,,,,,,,,,,,,,,,,,,,,,,,,,,,,,,,,,,,,,,,,,,,,,,,,,,,,,,,,,,,,,,,,,,,,,,,,,,,,,,,,,,,,,,,,,,,,,,,,,,,,,,3904.2479999804636,,form submission,,,,healthy,,blueberry.png,,,,,,,,,,,,,,,blueberry,,,,,,,,,,,,,,,,,,,,,,,,,,,,,,,,,,,,,,,,,,,,,,,,,,,,,,,,,false,,,,,,,,,180471.21499999776,180468.15499998047,176547.076,176547.67999998876,176563.907,180476.187,,,,56
rating_sequence,flow.Sequence,2_4_2_1_4,2021-05-24T16:13:07.816Z,,,,,,,,,,,,,,,,,,,,,,,,,,,,,,,,,,,,,,,,,,,,,,,,,,,,,,,,,,,,,,,,,,,,,,,,,,,,,,,,,,,,,,,,,,,,,,,,,,,,,,,,,,,,,,,,,,,,4404.301999980467,,completion,,,,healthy,,blueberry.png,,,,,,,,,,,,,,,blueberry,,,,,,,,,,,,,,,,,,,,,,,,,,,,,,,,,,,,,,,,,,,,,,,,,,,,,,,,,false,,,,,,,,,180471.35499998694,180468.15499998047,176047.617,176066.754999978,176063.853,180476.187,,,,
fixCross,canvas.Screen,2_4_2_1_5_0,2021-05-24T16:13:08.305Z,,,,,,,,,,,,,,,,,,,,,,,,,,,,,,,,,,,,,,,,,,,,,,,,,,,,,,,,,,,,,,,,,,,,,,,,,,,,,,,,,,,,,,,,,,,,,,,,,,,,,,,,,,,,,,,,,,,,500.15499999999884,,timeout,,,,healthy,,orange.png,,,,,,,,,,,,,,,orange,,,,,,,,,,,,,,,,,,,,,,,,,,,,,,,,,,,,,,,,,,,,,,,,,,,,,,,,,false,,,,,,,,,180960.5149999843,180959.246,180459.825,180471.42999997595,180476.187,180976.342,,,,
Rating,html.Form,2_4_2_1_5_1,2021-05-24T16:13:14.843Z,,,,,,,,,,,,,,,,,,,,,,,,,,,,,,,,,,,,,,,,,,,,,,,,,,,,,,,,,,,,,,,,,,,,,,,,,,,,,,,,,,,,,,,,,,,,,,,,,,,,,,,,,,,,,,,,,,,,6519.532999993244,,form submission,,,,healthy,,orange.png,,,,,,,,,,,,,,,orange,,,,,,,,,,,,,,,,,,,,,,,,,,,,,,,,,,,,,,,,,,,,,,,,,,,,,,,,,false,,,,,,,,,187498.83499997668,187495.87499999325,180959.246,180960.59999999125,180976.342,187502.69,,,,63
rating_sequence,flow.Sequence,2_4_2_1_5,2021-05-24T16:13:14.843Z,,,,,,,,,,,,,,,,,,,,,,,,,,,,,,,,,,,,,,,,,,,,,,,,,,,,,,,,,,,,,,,,,,,,,,,,,,,,,,,,,,,,,,,,,,,,,,,,,,,,,,,,,,,,,,,,,,,,7019.687999993243,,completion,,,,healthy,,orange.png,,,,,,,,,,,,,,,orange,,,,,,,,,,,,,,,,,,,,,,,,,,,,,,,,,,,,,,,,,,,,,,,,,,,,,,,,,false,,,,,,,,,187498.969999986,187495.87499999325,180459.825,180471.40499998932,180476.187,187502.69,,,,
fixCross,canvas.Screen,2_4_2_1_6_0,2021-05-24T16:13:15.331Z,,,,,,,,,,,,,,,,,,,,,,,,,,,,,,,,,,,,,,,,,,,,,,,,,,,,,,,,,,,,,,,,,,,,,,,,,,,,,,,,,,,,,,,,,,,,,,,,,,,,,,,,,,,,,,,,,,,,500.1039999999921,,timeout,,,,healthy,,pear.png,,,,,,,,,,,,,,,pear,,,,,,,,,,,,,,,,,,,,,,,,,,,,,,,,,,,,,,,,,,,,,,,,,,,,,,,,,false,,,,,,,,,187986.2799999828,187985.8,187486.494,187499.05499999295,187502.69,188002.794,,,,
Rating,html.Form,2_4_2_1_6_1,2021-05-24T16:13:18.594Z,,,,,,,,,,,,,,,,,,,,,,,,,,,,,,,,,,,,,,,,,,,,,,,,,,,,,,,,,,,,,,,,,,,,,,,,,,,,,,,,,,,,,,,,,,,,,,,,,,,,,,,,,,,,,,,,,,,,3243.470999994315,,form submission,,,,healthy,,pear.png,,,,,,,,,,,,,,,pear,,,,,,,,,,,,,,,,,,,,,,,,,,,,,,,,,,,,,,,,,,,,,,,,,,,,,,,,,false,,,,,,,,,191249.49999997625,191246.2649999943,187985.8,187986.39499998535,188002.794,191248.974,,,,54
rating_sequence,flow.Sequence,2_4_2_1_6,2021-05-24T16:13:18.594Z,,,,,,,,,,,,,,,,,,,,,,,,,,,,,,,,,,,,,,,,,,,,,,,,,,,,,,,,,,,,,,,,,,,,,,,,,,,,,,,,,,,,,,,,,,,,,,,,,,,,,,,,,,,,,,,,,,,,3743.5749999943073,,completion,,,,healthy,,pear.png,,,,,,,,,,,,,,,pear,,,,,,,,,,,,,,,,,,,,,,,,,,,,,,,,,,,,,,,,,,,,,,,,,,,,,,,,,false,,,,,,,,,191249.6449999744,191246.2649999943,187486.494,187499.0299999772,187502.69,191248.974,,,,
fixCross,canvas.Screen,2_4_2_1_7_0,2021-05-24T16:13:19.077Z,,,,,,,,,,,,,,,,,,,,,,,,,,,,,,,,,,,,,,,,,,,,,,,,,,,,,,,,,,,,,,,,,,,,,,,,,,,,,,,,,,,,,,,,,,,,,,,,,,,,,,,,,,,,,,,,,,,,500.18700000000536,,timeout,,,,healthy,,cherry.png,,,,,,,,,,,,,,,cherry,,,,,,,,,,,,,,,,,,,,,,,,,,,,,,,,,,,,,,,,,,,,,,,,,,,,,,,,,false,,,,,,,,,191732.90999999153,191732.48,191232.384,191249.7250000015,191248.974,191749.161,,,,
Rating,html.Form,2_4_2_1_7_1,2021-05-24T16:13:23.035Z,,,,,,,,,,,,,,,,,,,,,,,,,,,,,,,,,,,,,,,,,,,,,,,,,,,,,,,,,,,,,,,,,,,,,,,,,,,,,,,,,,,,,,,,,,,,,,,,,,,,,,,,,,,,,,,,,,,,3938.7389999899024,,form submission,,,,healthy,,cherry.png,,,,,,,,,,,,,,,cherry,,,,,,,,,,,,,,,,,,,,,,,,,,,,,,,,,,,,,,,,,,,,,,,,,,,,,,,,,false,,,,,,,,,195691.03999997606,195687.8999999899,191732.48,191733.01999998512,191749.161,195694.621,,,,64
rating_sequence,flow.Sequence,2_4_2_1_7,2021-05-24T16:13:23.036Z,,,,,,,,,,,,,,,,,,,,,,,,,,,,,,,,,,,,,,,,,,,,,,,,,,,,,,,,,,,,,,,,,,,,,,,,,,,,,,,,,,,,,,,,,,,,,,,,,,,,,,,,,,,,,,,,,,,,4438.925999989908,,completion,,,,healthy,,cherry.png,,,,,,,,,,,,,,,cherry,,,,,,,,,,,,,,,,,,,,,,,,,,,,,,,,,,,,,,,,,,,,,,,,,,,,,,,,,false,,,,,,,,,195691.21999997878,195687.8999999899,191232.384,191249.69999998575,191248.974,195694.621,,,,
fixCross,canvas.Screen,2_4_2_1_8_0,2021-05-24T16:13:23.523Z,,,,,,,,,,,,,,,,,,,,,,,,,,,,,,,,,,,,,,,,,,,,,,,,,,,,,,,,,,,,,,,,,,,,,,,,,,,,,,,,,,,,,,,,,,,,,,,,,,,,,,,,,,,,,,,,,,,,499.5779999999795,,timeout,,,,unhealthy,,m&m.png,,,,,,,,,,,,,,,m&m,,,,,,,,,,,,,,,,,,,,,,,,,,,,,,,,,,,,,,,,,,,,,,,,,,,,,,,,,false,,,,,,,,,196178.42999999993,196177.873,195678.373,195691.2949999969,195694.621,196194.199,,,,
Rating,html.Form,2_4_2_1_8_1,2021-05-24T16:13:26.990Z,,,,,,,,,,,,,,,,,,,,,,,,,,,,,,,,,,,,,,,,,,,,,,,,,,,,,,,,,,,,,,,,,,,,,,,,,,,,,,,,,,,,,,,,,,,,,,,,,,,,,,,,,,,,,,,,,,,,3447.1209999951825,,form submission,,,,unhealthy,,m&m.png,,,,,,,,,,,,,,,m&m,,,,,,,,,,,,,,,,,,,,,,,,,,,,,,,,,,,,,,,,,,,,,,,,,,,,,,,,,false,,,,,,,,,199645.2500000014,199641.31999999518,196177.873,196178.57999997796,196194.199,199657.894,,,,77
rating_sequence,flow.Sequence,2_4_2_1_8,2021-05-24T16:13:26.990Z,,,,,,,,,,,,,,,,,,,,,,,,,,,,,,,,,,,,,,,,,,,,,,,,,,,,,,,,,,,,,,,,,,,,,,,,,,,,,,,,,,,,,,,,,,,,,,,,,,,,,,,,,,,,,,,,,,,,3946.698999995162,,completion,,,,unhealthy,,m&m.png,,,,,,,,,,,,,,,m&m,,,,,,,,,,,,,,,,,,,,,,,,,,,,,,,,,,,,,,,,,,,,,,,,,,,,,,,,,false,,,,,,,,,199645.43999999296,199641.31999999518,195678.373,195691.27499999013,195694.621,199657.894,,,,
fixCross,canvas.Screen,2_4_2_1_9_0,2021-05-24T16:13:27.486Z,,,,,,,,,,,,,,,,,,,,,,,,,,,,,,,,,,,,,,,,,,,,,,,,,,,,,,,,,,,,,,,,,,,,,,,,,,,,,,,,,,,,,,,,,,,,,,,,,,,,,,,,,,,,,,,,,,,,499.36900000000605,,timeout,,,,unhealthy,,marshmallow.png,,,,,,,,,,,,,,,marshmallow,,,,,,,,,,,,,,,,,,,,,,,,,,,,,,,,,,,,,,,,,,,,,,,,,,,,,,,,,false,,,,,,,,,200141.27999998163,200140.777,199624.604,199645.5249999999,199657.894,200157.263,,,,
Rating,html.Form,2_4_2_1_9_1,2021-05-24T16:13:30.614Z,,,,,,,,,,,,,,,,,,,,,,,,,,,,,,,,,,,,,,,,,,,,,,,,,,,,,,,,,,,,,,,,,,,,,,,,,,,,,,,,,,,,,,,,,,,,,,,,,,,,,,,,,,,,,,,,,,,,3109.482000000804,,form submission,,,,unhealthy,,marshmallow.png,,,,,,,,,,,,,,,marshmallow,,,,,,,,,,,,,,,,,,,,,,,,,,,,,,,,,,,,,,,,,,,,,,,,,,,,,,,,,false,,,,,,,,,203269.75499998662,203266.7450000008,200140.777,200141.3599999796,200157.263,203270.513,,,,79
rating_sequence,flow.Sequence,2_4_2_1_9,2021-05-24T16:13:30.614Z,,,,,,,,,,,,,,,,,,,,,,,,,,,,,,,,,,,,,,,,,,,,,,,,,,,,,,,,,,,,,,,,,,,,,,,,,,,,,,,,,,,,,,,,,,,,,,,,,,,,,,,,,,,,,,,,,,,,3608.85100000081,,completion,,,,unhealthy,,marshmallow.png,,,,,,,,,,,,,,,marshmallow,,,,,,,,,,,,,,,,,,,,,,,,,,,,,,,,,,,,,,,,,,,,,,,,,,,,,,,,,false,,,,,,,,,203269.88999999594,203266.7450000008,199624.604,199645.4949999752,199657.894,203270.513,,,,
fixCross,canvas.Screen,2_4_2_1_10_0,2021-05-24T16:13:31.099Z,,,,,,,,,,,,,,,,,,,,,,,,,,,,,,,,,,,,,,,,,,,,,,,,,,,,,,,,,,,,,,,,,,,,,,,,,,,,,,,,,,,,,,,,,,,,,,,,,,,,,,,,,,,,,,,,,,,,499.5339999999851,,timeout,,,,unhealthy,,chocolate_truffle.png,,,,,,,,,,,,,,,chocolate truffle,,,,,,,,,,,,,,,,,,,,,,,,,,,,,,,,,,,,,,,,,,,,,,,,,,,,,,,,,false,,,,,,,,,203754.53999999445,203753.931,203254.192,203269.96999999392,203270.513,203770.047,,,,
Rating,html.Form,2_4_2_1_10_1,2021-05-24T16:13:34.494Z,,,,,,,,,,,,,,,,,,,,,,,,,,,,,,,,,,,,,,,,,,,,,,,,,,,,,,,,,,,,,,,,,,,,,,,,,,,,,,,,,,,,,,,,,,,,,,,,,,,,,,,,,,,,,,,,,,,,3379.4779999861785,,form submission,,,,unhealthy,,chocolate_truffle.png,,,,,,,,,,,,,,,chocolate truffle,,,,,,,,,,,,,,,,,,,,,,,,,,,,,,,,,,,,,,,,,,,,,,,,,,,,,,,,,false,,,,,,,,,207149.7949999757,207149.52499998617,203753.931,203754.65999997687,203770.047,207177.242,,,,98
rating_sequence,flow.Sequence,2_4_2_1_10,2021-05-24T16:13:34.494Z,,,,,,,,,,,,,,,,,,,,,,,,,,,,,,,,,,,,,,,,,,,,,,,,,,,,,,,,,,,,,,,,,,,,,,,,,,,,,,,,,,,,,,,,,,,,,,,,,,,,,,,,,,,,,,,,,,,,3879.0119999861636,,completion,,,,unhealthy,,chocolate_truffle.png,,,,,,,,,,,,,,,chocolate truffle,,,,,,,,,,,,,,,,,,,,,,,,,,,,,,,,,,,,,,,,,,,,,,,,,,,,,,,,,false,,,,,,,,,207149.92999998503,207149.52499998617,203254.192,203269.94499997818,203270.513,207177.242,,,,
fixCross,canvas.Screen,2_4_2_1_11_0,2021-05-24T16:13:35.012Z,,,,,,,,,,,,,,,,,,,,,,,,,,,,,,,,,,,,,,,,,,,,,,,,,,,,,,,,,,,,,,,,,,,,,,,,,,,,,,,,,,,,,,,,,,,,,,,,,,,,,,,,,,,,,,,,,,,,505.622000000003,,timeout,,,,unhealthy,,chocolate.png,,,,,,,,,,,,,,,chocolate,,,,,,,,,,,,,,,,,,,,,,,,,,,,,,,,,,,,,,,,,,,,,,,,,,,,,,,,,false,,,,,,,,,207667.25499997847,207666.777,207133.914,207150.02499998081,207177.242,207682.864,,,,
Rating,html.Form,2_4_2_1_11_1,2021-05-24T16:13:41.173Z,,,,,,,,,,,,,,,,,,,,,,,,,,,,,,,,,,,,,,,,,,,,,,,,,,,,,,,,,,,,,,,,,,,,,,,,,,,,,,,,,,,,,,,,,,,,,,,,,,,,,,,,,,,,,,,,,,,,6142.195999973745,,form submission,,,,unhealthy,,chocolate.png,,,,,,,,,,,,,,,chocolate,,,,,,,,,,,,,,,,,,,,,,,,,,,,,,,,,,,,,,,,,,,,,,,,,,,,,,,,,false,,,,,,,,,213828.51999998093,213825.05999997375,207666.777,207667.33499997645,207682.864,213826.862,,,,91
rating_sequence,flow.Sequence,2_4_2_1_11,2021-05-24T16:13:41.173Z,,,,,,,,,,,,,,,,,,,,,,,,,,,,,,,,,,,,,,,,,,,,,,,,,,,,,,,,,,,,,,,,,,,,,,,,,,,,,,,,,,,,,,,,,,,,,,,,,,,,,,,,,,,,,,,,,,,,6647.817999973748,,completion,,,,unhealthy,,chocolate.png,,,,,,,,,,,,,,,chocolate,,,,,,,,,,,,,,,,,,,,,,,,,,,,,,,,,,,,,,,,,,,,,,,,,,,,,,,,,false,,,,,,,,,213828.66499997908,213825.05999997375,207133.914,207149.98499999638,207177.242,213826.862,,,,
fixCross,canvas.Screen,2_4_2_1_12_0,2021-05-24T16:13:41.655Z,,,,,,,,,,,,,,,,,,,,,,,,,,,,,,,,,,,,,,,,,,,,,,,,,,,,,,,,,,,,,,,,,,,,,,,,,,,,,,,,,,,,,,,,,,,,,,,,,,,,,,,,,,,,,,,,,,,,499.5800000000163,,timeout,,,,healthy,,coconut.png,,,,,,,,,,,,,,,coconut,,,,,,,,,,,,,,,,,,,,,,,,,,,,,,,,,,,,,,,,,,,,,,,,,,,,,,,,,false,,,,,,,,,214310.6549999793,214310.152,213810.696,213828.74499997706,213826.862,214326.442,,,,
Rating,html.Form,2_4_2_1_12_1,2021-05-24T16:13:45.737Z,,,,,,,,,,,,,,,,,,,,,,,,,,,,,,,,,,,,,,,,,,,,,,,,,,,,,,,,,,,,,,,,,,,,,,,,,,,,,,,,,,,,,,,,,,,,,,,,,,,,,,,,,,,,,,,,,,,,4063.8729999969073,,form submission,,,,healthy,,coconut.png,,,,,,,,,,,,,,,coconut,,,,,,,,,,,,,,,,,,,,,,,,,,,,,,,,,,,,,,,,,,,,,,,,,,,,,,,,,false,,,,,,,,,218393.30999998492,218390.31499999692,214310.152,214310.73499997729,214326.442,218405.902,,,,59
rating_sequence,flow.Sequence,2_4_2_1_12,2021-05-24T16:13:45.737Z,,,,,,,,,,,,,,,,,,,,,,,,,,,,,,,,,,,,,,,,,,,,,,,,,,,,,,,,,,,,,,,,,,,,,,,,,,,,,,,,,,,,,,,,,,,,,,,,,,,,,,,,,,,,,,,,,,,,4563.452999996924,,completion,,,,healthy,,coconut.png,,,,,,,,,,,,,,,coconut,,,,,,,,,,,,,,,,,,,,,,,,,,,,,,,,,,,,,,,,,,,,,,,,,,,,,,,,,false,,,,,,,,,218393.4349999763,218390.31499999692,213810.696,213828.71999999043,213826.862,218405.902,,,,
fixCross,canvas.Screen,2_4_2_1_13_0,2021-05-24T16:13:46.233Z,,,,,,,,,,,,,,,,,,,,,,,,,,,,,,,,,,,,,,,,,,,,,,,,,,,,,,,,,,,,,,,,,,,,,,,,,,,,,,,,,,,,,,,,,,,,,,,,,,,,,,,,,,,,,,,,,,,,499.7049999999872,,timeout,,,,healthy,,grape.png,,,,,,,,,,,,,,,grape,,,,,,,,,,,,,,,,,,,,,,,,,,,,,,,,,,,,,,,,,,,,,,,,,,,,,,,,,false,,,,,,,,,218889.4250000012,218888.921,218389.229,218393.5149999743,218405.902,218905.607,,,,
Rating,html.Form,2_4_2_1_13_1,2021-05-24T16:13:50.137Z,,,,,,,,,,,,,,,,,,,,,,,,,,,,,,,,,,,,,,,,,,,,,,,,,,,,,,,,,,,,,,,,,,,,,,,,,,,,,,,,,,,,,,,,,,,,,,,,,,,,,,,,,,,,,,,,,,,,3884.8329999824928,,form submission,,,,healthy,,grape.png,,,,,,,,,,,,,,,grape,,,,,,,,,,,,,,,,,,,,,,,,,,,,,,,,,,,,,,,,,,,,,,,,,,,,,,,,,false,,,,,,,,,222793.40999998385,222790.43999998248,218888.921,218889.51499998802,218905.607,222801.725,,,,54
rating_sequence,flow.Sequence,2_4_2_1_13,2021-05-24T16:13:50.137Z,,,,,,,,,,,,,,,,,,,,,,,,,,,,,,,,,,,,,,,,,,,,,,,,,,,,,,,,,,,,,,,,,,,,,,,,,,,,,,,,,,,,,,,,,,,,,,,,,,,,,,,,,,,,,,,,,,,,4384.53799998248,,completion,,,,healthy,,grape.png,,,,,,,,,,,,,,,grape,,,,,,,,,,,,,,,,,,,,,,,,,,,,,,,,,,,,,,,,,,,,,,,,,,,,,,,,,false,,,,,,,,,222793.5399999842,222790.43999998248,218389.229,218393.49499999662,218405.902,222801.725,,,,
fixCross,canvas.Screen,2_4_2_1_14_0,2021-05-24T16:13:50.630Z,,,,,,,,,,,,,,,,,,,,,,,,,,,,,,,,,,,,,,,,,,,,,,,,,,,,,,,,,,,,,,,,,,,,,,,,,,,,,,,,,,,,,,,,,,,,,,,,,,,,,,,,,,,,,,,,,,,,499.50800000000163,,timeout,,,,unhealthy,,maltesers.png,,,,,,,,,,,,,,,malteser,,,,,,,,,,,,,,,,,,,,,,,,,,,,,,,,,,,,,,,,,,,,,,,,,,,,,,,,,false,,,,,,,,,223285.66499997396,223284.358,222785.118,222793.61999998218,222801.725,223301.233,,,,
Rating,html.Form,2_4_2_1_14_1,2021-05-24T16:13:53.595Z,,,,,,,,,,,,,,,,,,,,,,,,,,,,,,,,,,,,,,,,,,,,,,,,,,,,,,,,,,,,,,,,,,,,,,,,,,,,,,,,,,,,,,,,,,,,,,,,,,,,,,,,,,,,,,,,,,,,2946.531999978237,,form submission,,,,unhealthy,,maltesers.png,,,,,,,,,,,,,,,malteser,,,,,,,,,,,,,,,,,,,,,,,,,,,,,,,,,,,,,,,,,,,,,,,,,,,,,,,,,false,,,,,,,,,226251.0749999783,226247.76499997824,223284.358,223285.7499999809,223301.233,226273.663,,,,86
rating_sequence,flow.Sequence,2_4_2_1_14,2021-05-24T16:13:53.595Z,,,,,,,,,,,,,,,,,,,,,,,,,,,,,,,,,,,,,,,,,,,,,,,,,,,,,,,,,,,,,,,,,,,,,,,,,,,,,,,,,,,,,,,,,,,,,,,,,,,,,,,,,,,,,,,,,,,,3446.0399999782385,,completion,,,,unhealthy,,maltesers.png,,,,,,,,,,,,,,,malteser,,,,,,,,,,,,,,,,,,,,,,,,,,,,,,,,,,,,,,,,,,,,,,,,,,,,,,,,,false,,,,,,,,,226251.2149999966,226247.76499997824,222785.118,222793.59499999555,222801.725,226273.663,,,,
fixCross,canvas.Screen,2_4_2_1_15_0,2021-05-24T16:13:54.110Z,,,,,,,,,,,,,,,,,,,,,,,,,,,,,,,,,,,,,,,,,,,,,,,,,,,,,,,,,,,,,,,,,,,,,,,,,,,,,,,,,,,,,,,,,,,,,,,,,,,,,,,,,,,,,,,,,,,,507.57300000000396,,timeout,,,,healthy,,raspberry.png,,,,,,,,,,,,,,,raspberry,,,,,,,,,,,,,,,,,,,,,,,,,,,,,,,,,,,,,,,,,,,,,,,,,,,,,,,,,false,,,,,,,,,226765.699999989,226764.166,226231.397,226251.2899999856,226273.663,226781.236,,,,
Rating,html.Form,2_4_2_1_15_1,2021-05-24T16:13:57.795Z,,,,,,,,,,,,,,,,,,,,,,,,,,,,,,,,,,,,,,,,,,,,,,,,,,,,,,,,,,,,,,,,,,,,,,,,,,,,,,,,,,,,,,,,,,,,,,,,,,,,,,,,,,,,,,,,,,,,3667.528999979171,,form submission,,,,healthy,,raspberry.png,,,,,,,,,,,,,,,raspberry,,,,,,,,,,,,,,,,,,,,,,,,,,,,,,,,,,,,,,,,,,,,,,,,,,,,,,,,,false,,,,,,,,,230450.7749999757,230448.76499997918,226764.166,226765.7949999848,226781.236,230460.919,,,,52
rating_sequence,flow.Sequence,2_4_2_1_15,2021-05-24T16:13:57.795Z,,,,,,,,,,,,,,,,,,,,,,,,,,,,,,,,,,,,,,,,,,,,,,,,,,,,,,,,,,,,,,,,,,,,,,,,,,,,,,,,,,,,,,,,,,,,,,,,,,,,,,,,,,,,,,,,,,,,4175.101999979175,,completion,,,,healthy,,raspberry.png,,,,,,,,,,,,,,,raspberry,,,,,,,,,,,,,,,,,,,,,,,,,,,,,,,,,,,,,,,,,,,,,,,,,,,,,,,,,false,,,,,,,,,230450.88999997824,230448.76499997918,226231.397,226251.26999997883,226273.663,230460.919,,,,
fixCross,canvas.Screen,2_4_2_1_16_0,2021-05-24T16:13:58.288Z,,,,,,,,,,,,,,,,,,,,,,,,,,,,,,,,,,,,,,,,,,,,,,,,,,,,,,,,,,,,,,,,,,,,,,,,,,,,,,,,,,,,,,,,,,,,,,,,,,,,,,,,,,,,,,,,,,,,499.59900000001653,,timeout,,,,unhealthy,,candy.png,,,,,,,,,,,,,,,candy,,,,,,,,,,,,,,,,,,,,,,,,,,,,,,,,,,,,,,,,,,,,,,,,,,,,,,,,,false,,,,,,,,,230944.4599999988,230944.054,230444.168,230450.9599999874,230460.919,230960.518,,,,
Rating,html.Form,2_4_2_1_16_1,2021-05-24T16:14:03.512Z,,,,,,,,,,,,,,,,,,,,,,,,,,,,,,,,,,,,,,,,,,,,,,,,,,,,,,,,,,,,,,,,,,,,,,,,,,,,,,,,,,,,,,,,,,,,,,,,,,,,,,,,,,,,,,,,,,,,5204.951999978075,,form submission,,,,unhealthy,,candy.png,,,,,,,,,,,,,,,candy,,,,,,,,,,,,,,,,,,,,,,,,,,,,,,,,,,,,,,,,,,,,,,,,,,,,,,,,,false,,,,,,,,,236168.47499998403,236165.4699999781,230944.054,230944.5499999856,230960.518,236171.639,,,,53
rating_sequence,flow.Sequence,2_4_2_1_16,2021-05-24T16:14:03.512Z,,,,,,,,,,,,,,,,,,,,,,,,,,,,,,,,,,,,,,,,,,,,,,,,,,,,,,,,,,,,,,,,,,,,,,,,,,,,,,,,,,,,,,,,,,,,,,,,,,,,,,,,,,,,,,,,,,,,5704.550999978092,,completion,,,,unhealthy,,candy.png,,,,,,,,,,,,,,,candy,,,,,,,,,,,,,,,,,,,,,,,,,,,,,,,,,,,,,,,,,,,,,,,,,,,,,,,,,false,,,,,,,,,236168.61999998218,236165.4699999781,230444.168,230450.93999998062,230460.919,236171.639,,,,
fixCross,canvas.Screen,2_4_2_1_17_0,2021-05-24T16:14:04.001Z,,,,,,,,,,,,,,,,,,,,,,,,,,,,,,,,,,,,,,,,,,,,,,,,,,,,,,,,,,,,,,,,,,,,,,,,,,,,,,,,,,,,,,,,,,,,,,,,,,,,,,,,,,,,,,,,,,,,499.9440000000177,,timeout,,,,healthy,,apple.png,,,,,,,,,,,,,,,apple,,,,,,,,,,,,,,,,,,,,,,,,,,,,,,,,,,,,,,,,,,,,,,,,,,,,,,,,,false,,,,,,,,,236656.72999998787,236654.919,236155.38,236168.6950000003,236171.639,236671.583,,,,
Rating,html.Form,2_4_2_1_17_1,2021-05-24T16:14:08.573Z,,,,,,,,,,,,,,,,,,,,,,,,,,,,,,,,,,,,,,,,,,,,,,,,,,,,,,,,,,,,,,,,,,,,,,,,,,,,,,,,,,,,,,,,,,,,,,,,,,,,,,,,,,,,,,,,,,,,4554.326999979181,,form submission,,,,healthy,,apple.png,,,,,,,,,,,,,,,apple,,,,,,,,,,,,,,,,,,,,,,,,,,,,,,,,,,,,,,,,,,,,,,,,,,,,,,,,,false,,,,,,,,,241229.11499999464,241225.9099999792,236654.919,236656.82999999262,236671.583,241233.354,,,,55
rating_sequence,flow.Sequence,2_4_2_1_17,2021-05-24T16:14:08.573Z,,,,,,,,,,,,,,,,,,,,,,,,,,,,,,,,,,,,,,,,,,,,,,,,,,,,,,,,,,,,,,,,,,,,,,,,,,,,,,,,,,,,,,,,,,,,,,,,,,,,,,,,,,,,,,,,,,,,5054.270999979199,,completion,,,,healthy,,apple.png,,,,,,,,,,,,,,,apple,,,,,,,,,,,,,,,,,,,,,,,,,,,,,,,,,,,,,,,,,,,,,,,,,,,,,,,,,false,,,,,,,,,241229.23499997705,241225.9099999792,236155.38,236168.67499999353,236171.639,241233.354,,,,
rating_loop,flow.Loop,2_4_2_1,2021-05-24T16:14:08.573Z,,,,,,,,,,,,,,,,,,,,,,,,,,,,,,,,,,,,,,,,,,,,,,,,,,,,,,,,,,,,,,,,,,,,,,,,,,,,,,,,,,,,,,,,,,,,,,,,,,,,,,,,,,,,,,,,,,,,87690.0069999792,,completion,,,,,,,,,,,,,,,,,,,,,,,,,,,,,,,,,,,,,,,,,,,,,,,,,,,,,,,,,,,,,,,,,,,,,,,,,,,,,,false,,,,,,,,,241229.32499999297,241225.9099999792,153519.742,153522.2299999732,153535.903,241233.354,,,,
data_transmission,html.Screen,2_4_2_2,2021-05-24T16:14:08.581Z,,,,,,,,,,,,,,,,,,,,,,,,,,,,,,,,,,,,,,,,,,,,,,,,,,,,,,,,,,,,,,,,,,,,,,,,,,,,,,,,,,,,,,,,,,,,,,,,,,,,,,,,,,,,,,,,,,,,NaN,,no compatible backend,,,,,,,,,,,,,,,Transferring data,,,,,,,,,,,,,,,,,,,,,,,,,,,,,,,,,,,,,,,,,,,,,,,,,,,,,,,,,,,,,,,false,,,Please wait a second…,,,,,,241236.91999999573,241236.77499999758,,241229.37499999534,,241233.354,,,,
instructions,html.Screen,2_4_2_3,2021-05-24T16:15:40.333Z,,,,,,,,,,,,,,,,,,,,,,,,,,,,,,,,,,,,,,,,,,,,,,,,,,,,,,,,,,,,,,,,,,,,,,,,,,,,,,,,,,,,,,,,,,,,,,,,,,,,,,,,,,,,,,,,,,,,91755.28099998698,,done,,,,,,,,,,,,,,,,,,,,,,,,,,,,,,,,,,,,,,,,,,,,,,,,,,,,,,,,,,,,,,,,,,,,,,,,,,,,,,false,,,,,,,,,332988.7549999985,332988.63499998697,241217.031,241237.01499999152,241233.354,332993.467,,,,
Q1,html.Screen,2_4_2_4_0,2021-05-24T16:15:48.771Z,,,,,,,,,,,,,,,,,,,,,,,,,,,,,,,,,,,,,,,,,,,,,,,,,,,,,,,,,,,,,,,,,,,,,,,,,,,,,,,,,,,,,,,,,,,,,,,,,,,,,,,,,,,,,,,,false,input_Q1==3,,,8431.017999995907,,response,,,,,,,,,,,,,,,,,,,,,,,,,Q1_i3,Q1_i4,Q1_i2,Q1_i1,3,4,2,1,correct,false,false,false,,,,,,,,,,,,,,,,,,,,,,,,,,,,,,,,,,,,,,,,,click #Q1_i3,false,,,,,,,,,341426.53999998583,341424.4849999959,332977.172,332988.8499999943,332993.467,341435.379,,,,
Q1_correct,html.Screen,2_4_2_4_1,2021-05-24T16:15:50.132Z,,,,,,,,,,,,,,,,,,,,,,,,,,,,,,,,,,,,,,,,,,,,,,,,,,,,,,,,,,,,,,,,,,,,,,,,,,,,,,,,,,,,,,,,,,,,,,,,,,,,,,,,,,,,,,,,,,,,1351.5909999864525,,response,,,,,,,,,,,,,,,,,,,,,,,,,,,,,,,,,,,,,,,,,,,,,,,,,,,,,,,,,,,,,,,,,,,,,,,,,,,,,keypress,false,,,,,,,,,342787.5199999835,342786.96999998647,341418.911,341426.679999975,341435.379,342800.496,,,,
Q2,html.Screen,2_4_2_4_2,2021-05-24T16:15:53.412Z,,,,,,,,,,,,,,,,,,,,,,,,,,,,,,,,,,,,,,,,,,,,,,,,,,,,,,,,,,,,,,,,,,,,,,,,,,,,,,,,,,,,,,,,,,,,,,,,,,,,,,,,,,,,,,,,,,,,3267.273999994213,,response,,,,,,,,,,,,,,,,,,,,,,,,,,,,,,,,,,,,,Q2_i1,Q2_i2,Q2_i3,Option 1,Option 2,Same amount,correct,opt2,same,,,,,,,,,,,,,,,,,,,,,,,,,,,,,,,,click #Q2_i1,false,,,,,,,,,346068.37499997346,346067.7699999942,342784.191,342787.5950000016,342800.496,346081.232,,,,
Q2_correct,html.Screen,2_4_2_4_3,2021-05-24T16:15:54.164Z,,,,,,,,,,,,,,,,,,,,,,,,,,,,,,,,,,,,,,,,,,,,,,,,,,,,,,,,,,,,,,,,,,,,,,,,,,,,,,,,,,,,,,,,,,,,,,,,,,,,,,,,,,,,,,,,,,,,738.1179999760934,,response,,,,,,,,,,,,,,,,,,,,,,,,,,,,,,,,,,,,,,,,,,,,,,,,,,,,,,,,,,,,,,,,,,,,,,,,,,,,,keypress,false,,,,,,,,,346819.9499999755,346819.3499999761,346064.309,346068.4649999894,346081.232,346829.905,,,,
Q4,html.Screen,2_4_2_4_4,2021-05-24T16:16:07.780Z,,,,,,,,,,,,,,,,,,,,,,,,,,,,,,,,,,,,,,,,,,,,,,,,,,,,,,,,,,,,,,,,,,,,,,,,,,,,,,,,,,,,,,,,,,,,,,,,,,,,,,,,,,,,,,,,,,,,13605.269999991404,,response,,,,,,,,,,,,,,,,,,,,,,,,,,,,,,,,,,,,,,,,,,,,,,Q4_i3,Q4_i2,Q4_i4,Q4_i1,Press the arrow key that corresponds with the snack option with more food items,Indicate the number of food items in each snack option,Press the space key,Press the arrow key that corresponds with the snack option I prefer,morefood,indicate,pressspace,correct,,,,,,,,,,,,,,,,,,,,click #Q4_i1,false,,,,,,,,,360435.84999997984,360435.17499999143,346813.354,346820.0149999757,346829.905,360449.971,,,,
Q4_correct,html.Screen,2_4_2_4_5,2021-05-24T16:16:09.007Z,,,,,,,,,,,,,,,,,,,,,,,,,,,,,,,,,,,,,,,,,,,,,,,,,,,,,,,,,,,,,,,,,,,,,,,,,,,,,,,,,,,,,,,,,,,,,,,,,,,,,,,,,,,,,,,,,,,,1212.533999985666,,response,,,,,,,,,,,,,,,,,,,,,,,,,,,,,,,,,,,,,,,,,,,,,,,,,,,,,,,,,,,,,,,,,,,,,,,,,,,,,keypress,false,,,,,,,,,361662.93999998015,361662.5049999857,360433.955,360435.9499999846,360449.971,361665.378,,,,
Q5,html.Screen,2_4_2_4_6,2021-05-24T16:17:08.633Z,,,,,,,,,,,,,,,,,,,,,,,,,,,,,,,,,,,,,,,,,,,,,,,,,,,,,,,,,,,,,,,,,,,,,,,,,,,,,,,,,,,,,,,,,,,,,,,,,,,,,,,,,,,,,,,,,,,,59623.43199999817,,response,,,,,,,,,,,,,,,,,,,,,,,,,,,,,,,,,,,,,,,,,,,,,,,,,,,,,,,,,,Q5_i3,Q5_i2,Q5_i1,Q5_i4,There are more slices of kiwi in snack Option 1,There are more pieces of chocolate in snack Option 2,Snack Option 2 has been chosen,Snack Option 1 has been chosen,morekiwi1,morechoc2,correct,chose1,,,,,,,,click #Q5_i1,false,,,,,,,,,421289.58499999135,421288.8099999982,361648.845,361663.0099999893,361665.378,421318.02,,,,
Q5_correct,html.Screen,2_4_2_4_7,2021-05-24T16:17:09.986Z,,,,,,,,,,,,,,,,,,,,,,,,,,,,,,,,,,,,,,,,,,,,,,,,,,,,,,,,,,,,,,,,,,,,,,,,,,,,,,,,,,,,,,,,,,,,,,,,,,,,,,,,,,,,,,,,,,,,1323.929999990156,,response,,,,,,,,,,,,,,,,,,,,,,,,,,,,,,,,,,,,,,,,,,,,,,,,,,,,,,,,,,,,,,,,,,,,,,,,,,,,,keypress,false,,,,,,,,,422642.4699999916,422641.9499999902,421274.054,421289.6849999961,421318.02,422656.058,,,,
practice_sequence,flow.Sequence,2_4_2_4,2021-05-24T16:17:09.986Z,,,,,,,,,,,,,,,,,,,,,,,,,,,,,,,,,,,,,,,,,,,,,,,,,,,,,,,,,,,,,,,,,,,,,,,,,,,,,,,,,,,,,,,,,,,,,,,,,,,,,,,,,,,,,,,,,,,,89648.48299999017,,completion,,,,,,,,,,,,,,,,,,,,,,,,,,,,,,,,,,,,,,,,,,,,,,,,,,,,,,,,,,,,,,,,,,,,,,,,,,,,,,false,,,,,,,,,422642.5649999874,422641.9499999902,332977.172,332988.81999999867,332993.467,422656.058,,,,
final_instru,html.Screen,2_4_2_5,2021-05-24T16:17:36.774Z,,,,,,,,,,,,,,,,,,,,,,,,,,,,,,,,,,,,,,,,,,,,,,,,,,,,,,,,,,,,,,,,,,,,,,,,,,,,,,,,,,,,,,,,,,,,,,,,,,,,,,,,,,,,,,,,,,,,26773.67699998332,,done,,,,,,,,,,,,,,,,,,,,,,,,,,,,,,,,,,,,,,,,,,,,,,,,,,,,,,,,,,,,,,,,,,,,,,,,,,,,,,false,,,,,,,,,449429.8499999859,449429.73499998334,422639.489,422642.61499998975,422656.058,449446.086,,,,
blank_screen,canvas.Screen,2_4_2_6_0,2021-05-24T16:17:38.772Z,,,,,,,,,,,,,,,,,,,,,,,,,,,,,,,,,,,,,,,,,,,,,,,,,,,,,,,,,,,,,,,,,,,,,,,,,,,,,,,,,,,,,,,,,,,,,,,,,,,,,,,,,,,,,,,,,,,,1997.9729999999981,,timeout,,,,,,,,,,,,,,,,,,,,,,,,,,,,,,,,,,,,,,,,,,,,,,,,,,,,,,,,,,,,,,,,,,,,,,,,,,,,,,false,,,,,,,,,451428.42999999993,451427.961,449429.202,449429.9449999817,449446.086,451444.059,,,,
fixCross,canvas.Screen,2_4_2_6_1_0_0_0_0_0_0,2021-05-24T16:17:39.123Z,,,blank.png,blank.png,blank.png,blank.png,blank.png,blank.png,blank.png,"[""chocolate_truffle.png""]",blank.png,blank.png,blank.png,blank.png,blank.png,,,,,,,,,,,,,,,,,,,,,,,,,,,,,"[""chocolate_truffle.png""]","[""cherry.png""]",PB18.png,,,,,,,,,,,0,6,"[""cherry.png""]","[""cherry.png""]","[""cherry.png""]","[""cherry.png""]","[""cherry.png""]","[""cherry.png""]",blank.png,PB18.png,PB01.png,"[""cherry.png""]","[""cherry.png""]","[""cherry.png""]","[""cherry.png""]","[""cherry.png""]","[""cherry.png""]",blank.png,blank.png,blank.png,blank.png,blank.png,blank.png,1,"[""chocolate_truffle.png""]",blank.png,blank.png,blank.png,0,blank.png,blank.png,blank.png,blank.png,blank.png,blank.png,PB01.png,,,,,,,,,,,1,,,,,,,,,,,,,715.9599999999627,,timeout,,,,,,,,,,,,,4,,,,,,,,,,,,,,,,,,,,,,,,,,,,,,,,,,,,,,,,,,,,,,,,,,,,,,,,,"[""cherry.png""]","[""chocolate_truffle.png""]",,,,4,,,false,,1,,,,,,,451778.90499998466,451777.57,451427.961,451454.5549999748,451444.059,452160.019,1,,,
timeout,canvas.Screen,2_4_2_6_1_0_0_0_0_0_1,2021-05-24T16:17:39.988Z,,,blank.png,blank.png,blank.png,blank.png,blank.png,blank.png,blank.png,"[""chocolate_truffle.png""]",blank.png,blank.png,blank.png,blank.png,blank.png,,,,,,,,,,,,,,,,,,,,,,,,,,,,,"[""chocolate_truffle.png""]","[""cherry.png""]",PB18.png,,,,,,,,,,,0,6,"[""cherry.png""]","[""cherry.png""]","[""cherry.png""]","[""cherry.png""]","[""cherry.png""]","[""cherry.png""]",blank.png,PB18.png,PB01.png,"[""cherry.png""]","[""cherry.png""]","[""cherry.png""]","[""cherry.png""]","[""cherry.png""]","[""cherry.png""]",blank.png,blank.png,blank.png,blank.png,blank.png,blank.png,1,"[""chocolate_truffle.png""]",blank.png,blank.png,blank.png,0,blank.png,blank.png,blank.png,blank.png,blank.png,blank.png,PB01.png,,,,,,,,,,,1,,,,,,,,,,,,,799.5750000000116,,timeout,,,,,,,,,,,,,4,,,,,,,,,,,,,,,,,,,,,,,,,,,,,,,,,,,,,,,,,,,,,,,,,,,,,,,,,"[""cherry.png""]","[""chocolate_truffle.png""]",,,,4,,,false,,1,,,,,,,452644.2199999874,452643.535,451777.57,452165.32499997993,452160.019,452959.594,,,,
choice,canvas.Screen,2_4_2_6_1_0_0_0_0_0_2,2021-05-24T16:17:41.259Z,,,blank.png,blank.png,blank.png,blank.png,blank.png,blank.png,blank.png,"[""chocolate_truffle.png""]",blank.png,blank.png,blank.png,blank.png,blank.png,,,,,,,,,,,,,,,,,,,,,,,,,,,,,"[""chocolate_truffle.png""]","[""cherry.png""]",PB18.png,,,,,,,,,,,0,6,"[""cherry.png""]","[""cherry.png""]","[""cherry.png""]","[""cherry.png""]","[""cherry.png""]","[""cherry.png""]",blank.png,PB18.png,PB01.png,"[""cherry.png""]","[""cherry.png""]","[""cherry.png""]","[""cherry.png""]","[""cherry.png""]","[""cherry.png""]",blank.png,blank.png,blank.png,blank.png,blank.png,blank.png,1,"[""chocolate_truffle.png""]",blank.png,blank.png,blank.png,0,blank.png,blank.png,blank.png,blank.png,blank.png,blank.png,PB01.png,,,,,,,,,,,1,,,,,,,,,,,,,954.5759999745642,,response,,,,,,,,,,,,,4,,,,,,,,,,,,,,,,,,,,,,,,,,,,,,,,,,,,,,,,,,,,,,,,,,,,,,,,,"[""cherry.png""]","[""chocolate_truffle.png""]",,,,4,right,keydown(ArrowRight),false,,1,,,,,,,453915.02999997465,453914.16999997455,452643.535,452962.80999999726,452959.594,454224.688,,1,,
square,canvas.Screen,2_4_2_6_1_0_0_0_0_0_3,2021-05-24T16:17:42.552Z,,,blank.png,blank.png,blank.png,blank.png,blank.png,blank.png,blank.png,"[""chocolate_truffle.png""]",blank.png,blank.png,blank.png,blank.png,blank.png,,,,,,,,,,,,,,,,,,,,,,,,,,,,,"[""chocolate_truffle.png""]","[""cherry.png""]",PB18.png,,,,,,,,,,,0,6,"[""cherry.png""]","[""cherry.png""]","[""cherry.png""]","[""cherry.png""]","[""cherry.png""]","[""cherry.png""]",blank.png,PB18.png,PB01.png,"[""cherry.png""]","[""cherry.png""]","[""cherry.png""]","[""cherry.png""]","[""cherry.png""]","[""cherry.png""]",blank.png,blank.png,blank.png,blank.png,blank.png,blank.png,1,"[""chocolate_truffle.png""]",blank.png,blank.png,blank.png,0,blank.png,blank.png,blank.png,blank.png,blank.png,blank.png,PB01.png,,,,,,,,,,,1,,,#808080,#33ff3f,,,,,,,,,999.0929999999935,,timeout,,,,,,,,,,,,,4,,,,,,,,,,,,,,,,,,,,,,,,,,,,,,,,,,,,,,,,,,,,,,,,,,,,,,,,,"[""cherry.png""]","[""chocolate_truffle.png""]",,,,4,,,false,,1,,,,,white,black,455208.66499998374,455207.057,454208.607,454213.0349999934,454224.688,455223.781,,,,
ITI_late,canvas.Screen,2_4_2_6_1_0_0_0_0_0_4,2021-05-24T16:17:43.800Z,,,blank.png,blank.png,blank.png,blank.png,blank.png,blank.png,blank.png,"[""chocolate_truffle.png""]",blank.png,blank.png,blank.png,blank.png,blank.png,,,,,,,,,,,,,,,,,,,,,,,,,,,,,"[""chocolate_truffle.png""]","[""cherry.png""]",PB18.png,,,,,,,,,,,0,6,"[""cherry.png""]","[""cherry.png""]","[""cherry.png""]","[""cherry.png""]","[""cherry.png""]","[""cherry.png""]",blank.png,PB18.png,PB01.png,"[""cherry.png""]","[""cherry.png""]","[""cherry.png""]","[""cherry.png""]","[""cherry.png""]","[""cherry.png""]",blank.png,blank.png,blank.png,blank.png,blank.png,blank.png,1,"[""chocolate_truffle.png""]",blank.png,blank.png,blank.png,0,blank.png,blank.png,blank.png,blank.png,blank.png,blank.png,PB01.png,,,,,,,,,,,1,,,,,,,,,,,,,1248.8709999999846,,timeout,,,,,,,,,,,,white,4,,,,,,,,,,,,,,,,,,,,,,,,,,,,,,,,,,,,,,,,,,,,,,,,,,,,,,,,,"[""cherry.png""]","[""chocolate_truffle.png""]",,,,4,,,false,,1,,,,,,,456456.8099999742,456456.223,455207.057,455209.92499997374,455223.781,456472.652,,,,
choice_sequence,flow.Sequence,2_4_2_6_1_0_0_0_0_0,2021-05-24T16:17:43.801Z,,,blank.png,blank.png,blank.png,blank.png,blank.png,blank.png,blank.png,"[""chocolate_truffle.png""]",blank.png,blank.png,blank.png,blank.png,blank.png,,,,,,,,,,,,,,,,,,,,,,,,,,,,,"[""chocolate_truffle.png""]","[""cherry.png""]",PB18.png,,,,,,,,,,,0,6,"[""cherry.png""]","[""cherry.png""]","[""cherry.png""]","[""cherry.png""]","[""cherry.png""]","[""cherry.png""]",blank.png,PB18.png,PB01.png,"[""cherry.png""]","[""cherry.png""]","[""cherry.png""]","[""cherry.png""]","[""cherry.png""]","[""cherry.png""]",blank.png,blank.png,blank.png,blank.png,blank.png,blank.png,1,"[""chocolate_truffle.png""]",blank.png,blank.png,blank.png,0,blank.png,blank.png,blank.png,blank.png,blank.png,blank.png,PB01.png,,,,,,,,,,,1,,,,,,,,,,,,,5012.16399999999,,completion,,,,,,,,,,,,,4,,,,,,,,,,,,,,,,,,,,,,,,,,,,,,,,,,,,,,,,,,,,,,,,,,,,,,,,,"[""cherry.png""]","[""chocolate_truffle.png""]",,,,4,,,false,,1,,,,,,,456457.15999999084,456456.223,451427.961,451453.5349999787,451444.059,456472.652,,,,
fixCross,canvas.Screen,2_4_2_6_1_0_0_0_0_1_0,2021-05-24T16:17:44.102Z,,,blank.png,"[""chocolate_truffle.png""]",blank.png,blank.png,blank.png,blank.png,blank.png,blank.png,blank.png,blank.png,blank.png,blank.png,blank.png,,,,,,,,,,,,,,,,,,,,,,,,,,,,,"[""chocolate_truffle.png""]","[""cherry.png""]",PB07.png,,,,,,,,,,,0,6,"[""cherry.png""]","[""cherry.png""]","[""cherry.png""]","[""cherry.png""]","[""cherry.png""]","[""cherry.png""]",blank.png,PB18.png,PB18.png,"[""cherry.png""]",blank.png,blank.png,blank.png,blank.png,blank.png,"[""cherry.png""]","[""cherry.png""]","[""cherry.png""]","[""cherry.png""]","[""cherry.png""]","[""cherry.png""]",1,"[""chocolate_truffle.png""]",blank.png,blank.png,blank.png,1,"[""cherry.png""]",blank.png,blank.png,blank.png,blank.png,blank.png,PB07.png,,,,,,,,,,,1,,,,,,,,,,,,,599.2199999999721,,timeout,,,,,,,,,,,,,3,,,,,,,,,,,,,,,,,,,,,,,,,,,,,,,,,,,,,,,,,,,,,,,,,,,,,,,,,"[""cherry.png""]","[""chocolate_truffle.png""]",,,,4,,,false,,1,,,,,,,456758.23999999557,456755.965,456456.223,456462.3250000004,456472.652,457071.872,2,,,
timeout,canvas.Screen,2_4_2_6_1_0_0_0_0_1_1,2021-05-24T16:17:44.900Z,,,blank.png,"[""chocolate_truffle.png""]",blank.png,blank.png,blank.png,blank.png,blank.png,blank.png,blank.png,blank.png,blank.png,blank.png,blank.png,,,,,,,,,,,,,,,,,,,,,,,,,,,,,"[""chocolate_truffle.png""]","[""cherry.png""]",PB07.png,,,,,,,,,,,0,6,"[""cherry.png""]","[""cherry.png""]","[""cherry.png""]","[""cherry.png""]","[""cherry.png""]","[""cherry.png""]",blank.png,PB18.png,PB18.png,"[""cherry.png""]",blank.png,blank.png,blank.png,blank.png,blank.png,"[""cherry.png""]","[""cherry.png""]","[""cherry.png""]","[""cherry.png""]","[""cherry.png""]","[""cherry.png""]",1,"[""chocolate_truffle.png""]",blank.png,blank.png,blank.png,1,"[""cherry.png""]",blank.png,blank.png,blank.png,blank.png,blank.png,PB07.png,,,,,,,,,,,1,,,,,,,,,,,,,799.2250000000349,,timeout,,,,,,,,,,,,,3,,,,,,,,,,,,,,,,,,,,,,,,,,,,,,,,,,,,,,,,,,,,,,,,,,,,,,,,,"[""cherry.png""]","[""chocolate_truffle.png""]",,,,4,,,false,,1,,,,,,,457556.66999999085,457554.893,456755.965,457075.8949999872,457071.872,457871.097,,,,
choice,canvas.Screen,2_4_2_6_1_0_0_0_0_1_2,2021-05-24T16:17:46.508Z,,,blank.png,"[""chocolate_truffle.png""]",blank.png,blank.png,blank.png,blank.png,blank.png,blank.png,blank.png,blank.png,blank.png,blank.png,blank.png,,,,,,,,,,,,,,,,,,,,,,,,,,,,,"[""chocolate_truffle.png""]","[""cherry.png""]",PB07.png,,,,,,,,,,,0,6,"[""cherry.png""]","[""cherry.png""]","[""cherry.png""]","[""cherry.png""]","[""cherry.png""]","[""cherry.png""]",blank.png,PB18.png,PB18.png,"[""cherry.png""]",blank.png,blank.png,blank.png,blank.png,blank.png,"[""cherry.png""]","[""cherry.png""]","[""cherry.png""]","[""cherry.png""]","[""cherry.png""]","[""cherry.png""]",1,"[""chocolate_truffle.png""]",blank.png,blank.png,blank.png,1,"[""cherry.png""]",blank.png,blank.png,blank.png,blank.png,blank.png,PB07.png,,,,,,,,,,,1,,,,,,,,,,,,,1292.5079999797163,,response,,,,,,,,,,,,,3,,,,,,,,,,,,,,,,,,,,,,,,,,,,,,,,,,,,,,,,,,,,,,,,,,,,,,,,,"[""cherry.png""]","[""chocolate_truffle.png""]",,,,4,left,keydown(ArrowLeft),false,,1,,,,,,,459164.4849999866,459163.6049999797,457554.893,457864.8449999746,457871.097,459469.524,,2,,
square,canvas.Screen,2_4_2_6_1_0_0_0_0_1_3,2021-05-24T16:17:47.797Z,,,blank.png,"[""chocolate_truffle.png""]",blank.png,blank.png,blank.png,blank.png,blank.png,blank.png,blank.png,blank.png,blank.png,blank.png,blank.png,,,,,,,,,,,,,,,,,,,,,,,,,,,,,"[""chocolate_truffle.png""]","[""cherry.png""]",PB07.png,,,,,,,,,,,0,6,"[""cherry.png""]","[""cherry.png""]","[""cherry.png""]","[""cherry.png""]","[""cherry.png""]","[""cherry.png""]",blank.png,PB18.png,PB18.png,"[""cherry.png""]",blank.png,blank.png,blank.png,blank.png,blank.png,"[""cherry.png""]","[""cherry.png""]","[""cherry.png""]","[""cherry.png""]","[""cherry.png""]","[""cherry.png""]",1,"[""chocolate_truffle.png""]",blank.png,blank.png,blank.png,1,"[""cherry.png""]",blank.png,blank.png,blank.png,blank.png,blank.png,PB07.png,,,,,,,,,,,1,,,#33ff3f,#808080,,,,,,,,,999.6460000000079,,timeout,,,,,,,,,,,,,3,,,,,,,,,,,,,,,,,,,,,,,,,,,,,,,,,,,,,,,,,,,,,,,,,,,,,,,,,"[""cherry.png""]","[""chocolate_truffle.png""]",,,,4,,,false,,1,,,,,black,white,460453.2599999802,460452.566,459453.051,459468.0549999757,459469.524,460469.17,,,,
ITI_late,canvas.Screen,2_4_2_6_1_0_0_0_0_1_4,2021-05-24T16:17:48.297Z,,,blank.png,"[""chocolate_truffle.png""]",blank.png,blank.png,blank.png,blank.png,blank.png,blank.png,blank.png,blank.png,blank.png,blank.png,blank.png,,,,,,,,,,,,,,,,,,,,,,,,,,,,,"[""chocolate_truffle.png""]","[""cherry.png""]",PB07.png,,,,,,,,,,,0,6,"[""cherry.png""]","[""cherry.png""]","[""cherry.png""]","[""cherry.png""]","[""cherry.png""]","[""cherry.png""]",blank.png,PB18.png,PB18.png,"[""cherry.png""]",blank.png,blank.png,blank.png,blank.png,blank.png,"[""cherry.png""]","[""cherry.png""]","[""cherry.png""]","[""cherry.png""]","[""cherry.png""]","[""cherry.png""]",1,"[""chocolate_truffle.png""]",blank.png,blank.png,blank.png,1,"[""cherry.png""]",blank.png,blank.png,blank.png,blank.png,blank.png,PB07.png,,,,,,,,,,,1,,,,,,,,,,,,,499.4220000000205,,timeout,,,,,,,,,,,,white,3,,,,,,,,,,,,,,,,,,,,,,,,,,,,,,,,,,,,,,,,,,,,,,,,,,,,,,,,,"[""cherry.png""]","[""chocolate_truffle.png""]",,,,4,,,false,,1,,,,,,,460952.52999998047,460952.029,460452.566,460454.4799999858,460469.17,460968.592,,,,
choice_sequence,flow.Sequence,2_4_2_6_1_0_0_0_0_1,2021-05-24T16:17:48.297Z,,,blank.png,"[""chocolate_truffle.png""]",blank.png,blank.png,blank.png,blank.png,blank.png,blank.png,blank.png,blank.png,blank.png,blank.png,blank.png,,,,,,,,,,,,,,,,,,,,,,,,,,,,,"[""chocolate_truffle.png""]","[""cherry.png""]",PB07.png,,,,,,,,,,,0,6,"[""cherry.png""]","[""cherry.png""]","[""cherry.png""]","[""cherry.png""]","[""cherry.png""]","[""cherry.png""]",blank.png,PB18.png,PB18.png,"[""cherry.png""]",blank.png,blank.png,blank.png,blank.png,blank.png,"[""cherry.png""]","[""cherry.png""]","[""cherry.png""]","[""cherry.png""]","[""cherry.png""]","[""cherry.png""]",1,"[""chocolate_truffle.png""]",blank.png,blank.png,blank.png,1,"[""cherry.png""]",blank.png,blank.png,blank.png,blank.png,blank.png,PB07.png,,,,,,,,,,,1,,,,,,,,,,,,,4479.376999999979,,completion,,,,,,,,,,,,,3,,,,,,,,,,,,,,,,,,,,,,,,,,,,,,,,,,,,,,,,,,,,,,,,,,,,,,,,,"[""cherry.png""]","[""chocolate_truffle.png""]",,,,4,,,false,,1,,,,,,,460952.88499997696,460952.029,456456.223,456461.0049999901,456472.652,460968.592,,,,
fixCross,canvas.Screen,2_4_2_6_1_0_0_0_0_2_0,2021-05-24T16:17:48.796Z,,,blank.png,"[""chocolate_truffle.png""]",blank.png,blank.png,blank.png,blank.png,blank.png,blank.png,blank.png,blank.png,blank.png,blank.png,blank.png,,,,,,,,,,,,,,,,,,,,,,,,,,,,,"[""chocolate_truffle.png""]","[""cherry.png""]",PB12.png,,,,,,,,,,,0,6,"[""cherry.png""]","[""cherry.png""]","[""cherry.png""]","[""cherry.png""]","[""cherry.png""]","[""cherry.png""]",blank.png,PB18.png,PB18.png,"[""cherry.png""]","[""cherry.png""]",blank.png,blank.png,blank.png,blank.png,"[""cherry.png""]","[""cherry.png""]","[""cherry.png""]","[""cherry.png""]","[""cherry.png""]","[""cherry.png""]",1,"[""chocolate_truffle.png""]",blank.png,blank.png,blank.png,2,"[""cherry.png""]","[""cherry.png""]",blank.png,blank.png,blank.png,blank.png,PB12.png,,,,,,,,,,,1,,,,,,,,,,,,,815.3620000000228,,timeout,,,,,,,,,,,,,3,,,,,,,,,,,,,,,,,,,,,,,,,,,,,,,,,,,,,,,,,,,,,,,,,,,,,,,,,"[""cherry.png""]","[""chocolate_truffle.png""]",,,,4,,,false,,1,,,,,,,461452.1299999906,461451.592,460952.029,460955.8299999917,460968.592,461783.954,3,,,
timeout,canvas.Screen,2_4_2_6_1_0_0_0_0_2_1,2021-05-24T16:17:49.612Z,,,blank.png,"[""chocolate_truffle.png""]",blank.png,blank.png,blank.png,blank.png,blank.png,blank.png,blank.png,blank.png,blank.png,blank.png,blank.png,,,,,,,,,,,,,,,,,,,,,,,,,,,,,"[""chocolate_truffle.png""]","[""cherry.png""]",PB12.png,,,,,,,,,,,0,6,"[""cherry.png""]","[""cherry.png""]","[""cherry.png""]","[""cherry.png""]","[""cherry.png""]","[""cherry.png""]",blank.png,PB18.png,PB18.png,"[""cherry.png""]","[""cherry.png""]",blank.png,blank.png,blank.png,blank.png,"[""cherry.png""]","[""cherry.png""]","[""cherry.png""]","[""cherry.png""]","[""cherry.png""]","[""cherry.png""]",1,"[""chocolate_truffle.png""]",blank.png,blank.png,blank.png,2,"[""cherry.png""]","[""cherry.png""]",blank.png,blank.png,blank.png,blank.png,PB12.png,,,,,,,,,,,1,,,,,,,,,,,,,815.8439999999828,,timeout,,,,,,,,,,,,,3,,,,,,,,,,,,,,,,,,,,,,,,,,,,,,,,,,,,,,,,,,,,,,,,,,,,,,,,,"[""cherry.png""]","[""chocolate_truffle.png""]",,,,4,,,false,,1,,,,,,,462267.8949999972,462267.307,461451.592,461788.21499997866,461783.954,462599.798,,,,
choice,canvas.Screen,2_4_2_6_1_0_0_0_0_2_2,2021-05-24T16:17:51.007Z,,,blank.png,"[""chocolate_truffle.png""]",blank.png,blank.png,blank.png,blank.png,blank.png,blank.png,blank.png,blank.png,blank.png,blank.png,blank.png,,,,,,,,,,,,,,,,,,,,,,,,,,,,,"[""chocolate_truffle.png""]","[""cherry.png""]",PB12.png,,,,,,,,,,,0,6,"[""cherry.png""]","[""cherry.png""]","[""cherry.png""]","[""cherry.png""]","[""cherry.png""]","[""cherry.png""]",blank.png,PB18.png,PB18.png,"[""cherry.png""]","[""cherry.png""]",blank.png,blank.png,blank.png,blank.png,"[""cherry.png""]","[""cherry.png""]","[""cherry.png""]","[""cherry.png""]","[""cherry.png""]","[""cherry.png""]",1,"[""chocolate_truffle.png""]",blank.png,blank.png,blank.png,2,"[""cherry.png""]","[""cherry.png""]",blank.png,blank.png,blank.png,blank.png,PB12.png,,,,,,,,,,,1,,,,,,,,,,,,,1061.6219999894383,,response,,,,,,,,,,,,,3,,,,,,,,,,,,,,,,,,,,,,,,,,,,,,,,,,,,,,,,,,,,,,,,,,,,,,,,,"[""cherry.png""]","[""chocolate_truffle.png""]",,,,4,left,keydown(ArrowLeft),false,,1,,,,,,,463662.33999998076,463661.41999998945,462267.307,462593.9949999738,462599.798,463981.78,,3,,
square,canvas.Screen,2_4_2_6_1_0_0_0_0_2_3,2021-05-24T16:17:52.310Z,,,blank.png,"[""chocolate_truffle.png""]",blank.png,blank.png,blank.png,blank.png,blank.png,blank.png,blank.png,blank.png,blank.png,blank.png,blank.png,,,,,,,,,,,,,,,,,,,,,,,,,,,,,"[""chocolate_truffle.png""]","[""cherry.png""]",PB12.png,,,,,,,,,,,0,6,"[""cherry.png""]","[""cherry.png""]","[""cherry.png""]","[""cherry.png""]","[""cherry.png""]","[""cherry.png""]",blank.png,PB18.png,PB18.png,"[""cherry.png""]","[""cherry.png""]",blank.png,blank.png,blank.png,blank.png,"[""cherry.png""]","[""cherry.png""]","[""cherry.png""]","[""cherry.png""]","[""cherry.png""]","[""cherry.png""]",1,"[""chocolate_truffle.png""]",blank.png,blank.png,blank.png,2,"[""cherry.png""]","[""cherry.png""]",blank.png,blank.png,blank.png,blank.png,PB12.png,,,,,,,,,,,1,,,#33ff3f,#808080,,,,,,,,,999.6819999999716,,timeout,,,,,,,,,,,,,3,,,,,,,,,,,,,,,,,,,,,,,,,,,,,,,,,,,,,,,,,,,,,,,,,,,,,,,,,"[""cherry.png""]","[""chocolate_truffle.png""]",,,,4,,,false,,1,,,,,black,white,464965.26999998605,464964.58,463965.363,463976.6799999925,463981.78,464981.462,,,,
ITI_late,canvas.Screen,2_4_2_6_1_0_0_0_0_2_4,2021-05-24T16:17:53.059Z,,,blank.png,"[""chocolate_truffle.png""]",blank.png,blank.png,blank.png,blank.png,blank.png,blank.png,blank.png,blank.png,blank.png,blank.png,blank.png,,,,,,,,,,,,,,,,,,,,,,,,,,,,,"[""chocolate_truffle.png""]","[""cherry.png""]",PB12.png,,,,,,,,,,,0,6,"[""cherry.png""]","[""cherry.png""]","[""cherry.png""]","[""cherry.png""]","[""cherry.png""]","[""cherry.png""]",blank.png,PB18.png,PB18.png,"[""cherry.png""]","[""cherry.png""]",blank.png,blank.png,blank.png,blank.png,"[""cherry.png""]","[""cherry.png""]","[""cherry.png""]","[""cherry.png""]","[""cherry.png""]","[""cherry.png""]",1,"[""chocolate_truffle.png""]",blank.png,blank.png,blank.png,2,"[""cherry.png""]","[""cherry.png""]",blank.png,blank.png,blank.png,blank.png,PB12.png,,,,,,,,,,,1,,,,,,,,,,,,,748.6689999999944,,timeout,,,,,,,,,,,,white,3,,,,,,,,,,,,,,,,,,,,,,,,,,,,,,,,,,,,,,,,,,,,,,,,,,,,,,,,,"[""cherry.png""]","[""chocolate_truffle.png""]",,,,4,,,false,,1,,,,,,,465714.63999999105,465714.087,464964.58,464966.4950000006,464981.462,465730.131,,,,
choice_sequence,flow.Sequence,2_4_2_6_1_0_0_0_0_2,2021-05-24T16:17:53.059Z,,,blank.png,"[""chocolate_truffle.png""]",blank.png,blank.png,blank.png,blank.png,blank.png,blank.png,blank.png,blank.png,blank.png,blank.png,blank.png,,,,,,,,,,,,,,,,,,,,,,,,,,,,,"[""chocolate_truffle.png""]","[""cherry.png""]",PB12.png,,,,,,,,,,,0,6,"[""cherry.png""]","[""cherry.png""]","[""cherry.png""]","[""cherry.png""]","[""cherry.png""]","[""cherry.png""]",blank.png,PB18.png,PB18.png,"[""cherry.png""]","[""cherry.png""]",blank.png,blank.png,blank.png,blank.png,"[""cherry.png""]","[""cherry.png""]","[""cherry.png""]","[""cherry.png""]","[""cherry.png""]","[""cherry.png""]",1,"[""chocolate_truffle.png""]",blank.png,blank.png,blank.png,2,"[""cherry.png""]","[""cherry.png""]",blank.png,blank.png,blank.png,blank.png,PB12.png,,,,,,,,,,,1,,,,,,,,,,,,,4745.494999999995,,completion,,,,,,,,,,,,,3,,,,,,,,,,,,,,,,,,,,,,,,,,,,,,,,,,,,,,,,,,,,,,,,,,,,,,,,,"[""cherry.png""]","[""chocolate_truffle.png""]",,,,4,,,false,,1,,,,,,,465714.99499998754,465714.087,460952.029,460955.2449999901,460968.592,465730.131,,,,
fixCross,canvas.Screen,2_4_2_6_1_0_0_0_0_3_0,2021-05-24T16:17:53.508Z,,,blank.png,"[""chocolate_truffle.png""]",blank.png,blank.png,blank.png,blank.png,blank.png,blank.png,blank.png,blank.png,blank.png,blank.png,blank.png,,,,,,,,,,,,,,,,,,,,,,,,,,,,,"[""chocolate_truffle.png""]","[""cherry.png""]",PB16.png,,,,,,,,,,,0,6,"[""cherry.png""]","[""cherry.png""]","[""cherry.png""]","[""cherry.png""]","[""cherry.png""]","[""cherry.png""]",blank.png,PB18.png,PB18.png,"[""cherry.png""]","[""cherry.png""]","[""cherry.png""]","[""cherry.png""]","[""cherry.png""]",blank.png,"[""cherry.png""]","[""cherry.png""]","[""cherry.png""]","[""cherry.png""]","[""cherry.png""]","[""cherry.png""]",1,"[""chocolate_truffle.png""]",blank.png,blank.png,blank.png,5,"[""cherry.png""]","[""cherry.png""]","[""cherry.png""]","[""cherry.png""]","[""cherry.png""]",blank.png,PB16.png,,,,,,,,,,,1,,,,,,,,,,,,,799.140000000014,,timeout,,,,,,,,,,,,,3,,,,,,,,,,,,,,,,,,,,,,,,,,,,,,,,,,,,,,,,,,,,,,,,,,,,,,,,,"[""cherry.png""]","[""chocolate_truffle.png""]",,,,4,,,false,,1,,,,,,,466164.1649999947,466163.685,465714.087,465718.67999999085,465730.131,466529.271,4,,,
timeout,canvas.Screen,2_4_2_6_1_0_0_0_0_3_1,2021-05-24T16:17:54.358Z,,,blank.png,"[""chocolate_truffle.png""]",blank.png,blank.png,blank.png,blank.png,blank.png,blank.png,blank.png,blank.png,blank.png,blank.png,blank.png,,,,,,,,,,,,,,,,,,,,,,,,,,,,,"[""chocolate_truffle.png""]","[""cherry.png""]",PB16.png,,,,,,,,,,,0,6,"[""cherry.png""]","[""cherry.png""]","[""cherry.png""]","[""cherry.png""]","[""cherry.png""]","[""cherry.png""]",blank.png,PB18.png,PB18.png,"[""cherry.png""]","[""cherry.png""]","[""cherry.png""]","[""cherry.png""]","[""cherry.png""]",blank.png,"[""cherry.png""]","[""cherry.png""]","[""cherry.png""]","[""cherry.png""]","[""cherry.png""]","[""cherry.png""]",1,"[""chocolate_truffle.png""]",blank.png,blank.png,blank.png,5,"[""cherry.png""]","[""cherry.png""]","[""cherry.png""]","[""cherry.png""]","[""cherry.png""]",blank.png,PB16.png,,,,,,,,,,,1,,,,,,,,,,,,,865.875,,timeout,,,,,,,,,,,,,3,,,,,,,,,,,,,,,,,,,,,,,,,,,,,,,,,,,,,,,,,,,,,,,,,,,,,,,,,"[""cherry.png""]","[""chocolate_truffle.png""]",,,,4,,,false,,1,,,,,,,467013.2749999757,467012.767,466163.685,466533.4900000016,466529.271,467395.146,,,,
choice,canvas.Screen,2_4_2_6_1_0_0_0_0_3_2,2021-05-24T16:17:55.210Z,,,blank.png,"[""chocolate_truffle.png""]",blank.png,blank.png,blank.png,blank.png,blank.png,blank.png,blank.png,blank.png,blank.png,blank.png,blank.png,,,,,,,,,,,,,,,,,,,,,,,,,,,,,"[""chocolate_truffle.png""]","[""cherry.png""]",PB16.png,,,,,,,,,,,0,6,"[""cherry.png""]","[""cherry.png""]","[""cherry.png""]","[""cherry.png""]","[""cherry.png""]","[""cherry.png""]",blank.png,PB18.png,PB18.png,"[""cherry.png""]","[""cherry.png""]","[""cherry.png""]","[""cherry.png""]","[""cherry.png""]",blank.png,"[""cherry.png""]","[""cherry.png""]","[""cherry.png""]","[""cherry.png""]","[""cherry.png""]","[""cherry.png""]",1,"[""chocolate_truffle.png""]",blank.png,blank.png,blank.png,5,"[""cherry.png""]","[""cherry.png""]","[""cherry.png""]","[""cherry.png""]","[""cherry.png""]",blank.png,PB16.png,,,,,,,,,,,1,,,,,,,,,,,,,469.5689999742317,,response,,,,,,,,,,,,,3,,,,,,,,,,,,,,,,,,,,,,,,,,,,,,,,,,,,,,,,,,,,,,,,,,,,,,,,,"[""cherry.png""]","[""chocolate_truffle.png""]",,,,4,left,keydown(ArrowLeft),false,,1,,,,,,,467865.5699999945,467864.71499997424,467012.767,467380.21499998285,467395.146,468244.267,,4,,
square,canvas.Screen,2_4_2_6_1_0_0_0_0_3_3,2021-05-24T16:17:56.572Z,,,blank.png,"[""chocolate_truffle.png""]",blank.png,blank.png,blank.png,blank.png,blank.png,blank.png,blank.png,blank.png,blank.png,blank.png,blank.png,,,,,,,,,,,,,,,,,,,,,,,,,,,,,"[""chocolate_truffle.png""]","[""cherry.png""]",PB16.png,,,,,,,,,,,0,6,"[""cherry.png""]","[""cherry.png""]","[""cherry.png""]","[""cherry.png""]","[""cherry.png""]","[""cherry.png""]",blank.png,PB18.png,PB18.png,"[""cherry.png""]","[""cherry.png""]","[""cherry.png""]","[""cherry.png""]","[""cherry.png""]",blank.png,"[""cherry.png""]","[""cherry.png""]","[""cherry.png""]","[""cherry.png""]","[""cherry.png""]","[""cherry.png""]",1,"[""chocolate_truffle.png""]",blank.png,blank.png,blank.png,5,"[""cherry.png""]","[""cherry.png""]","[""cherry.png""]","[""cherry.png""]","[""cherry.png""]",blank.png,PB16.png,,,,,,,,,,,1,,,#33ff3f,#808080,,,,,,,,,999.6739999999991,,timeout,,,,,,,,,,,,,3,,,,,,,,,,,,,,,,,,,,,,,,,,,,,,,,,,,,,,,,,,,,,,,,,,,,,,,,,"[""cherry.png""]","[""chocolate_truffle.png""]",,,,4,,,false,,1,,,,,black,white,469227.85499997553,469227.145,468227.811,468232.1749999828,468244.267,469243.941,,,,
ITI_late,canvas.Screen,2_4_2_6_1_0_0_0_0_3_4,2021-05-24T16:17:57.822Z,,,blank.png,"[""chocolate_truffle.png""]",blank.png,blank.png,blank.png,blank.png,blank.png,blank.png,blank.png,blank.png,blank.png,blank.png,blank.png,,,,,,,,,,,,,,,,,,,,,,,,,,,,,"[""chocolate_truffle.png""]","[""cherry.png""]",PB16.png,,,,,,,,,,,0,6,"[""cherry.png""]","[""cherry.png""]","[""cherry.png""]","[""cherry.png""]","[""cherry.png""]","[""cherry.png""]",blank.png,PB18.png,PB18.png,"[""cherry.png""]","[""cherry.png""]","[""cherry.png""]","[""cherry.png""]","[""cherry.png""]",blank.png,"[""cherry.png""]","[""cherry.png""]","[""cherry.png""]","[""cherry.png""]","[""cherry.png""]","[""cherry.png""]",1,"[""chocolate_truffle.png""]",blank.png,blank.png,blank.png,5,"[""cherry.png""]","[""cherry.png""]","[""cherry.png""]","[""cherry.png""]","[""cherry.png""]",blank.png,PB16.png,,,,,,,,,,,1,,,,,,,,,,,,,1248.7980000000098,,timeout,,,,,,,,,,,,white,3,,,,,,,,,,,,,,,,,,,,,,,,,,,,,,,,,,,,,,,,,,,,,,,,,,,,,,,,,"[""cherry.png""]","[""chocolate_truffle.png""]",,,,4,,,false,,1,,,,,,,470477.57499999716,470475.797,469227.145,469229.07000000123,469243.941,470492.739,,,,
choice_sequence,flow.Sequence,2_4_2_6_1_0_0_0_0_3,2021-05-24T16:17:57.822Z,,,blank.png,"[""chocolate_truffle.png""]",blank.png,blank.png,blank.png,blank.png,blank.png,blank.png,blank.png,blank.png,blank.png,blank.png,blank.png,,,,,,,,,,,,,,,,,,,,,,,,,,,,,"[""chocolate_truffle.png""]","[""cherry.png""]",PB16.png,,,,,,,,,,,0,6,"[""cherry.png""]","[""cherry.png""]","[""cherry.png""]","[""cherry.png""]","[""cherry.png""]","[""cherry.png""]",blank.png,PB18.png,PB18.png,"[""cherry.png""]","[""cherry.png""]","[""cherry.png""]","[""cherry.png""]","[""cherry.png""]",blank.png,"[""cherry.png""]","[""cherry.png""]","[""cherry.png""]","[""cherry.png""]","[""cherry.png""]","[""cherry.png""]",1,"[""chocolate_truffle.png""]",blank.png,blank.png,blank.png,5,"[""cherry.png""]","[""cherry.png""]","[""cherry.png""]","[""cherry.png""]","[""cherry.png""]",blank.png,PB16.png,,,,,,,,,,,1,,,,,,,,,,,,,4745.6660000000265,,completion,,,,,,,,,,,,,3,,,,,,,,,,,,,,,,,,,,,,,,,,,,,,,,,,,,,,,,,,,,,,,,,,,,,,,,,"[""cherry.png""]","[""chocolate_truffle.png""]",,,,4,,,false,,1,,,,,,,470477.9399999825,470475.797,465714.087,465717.4249999807,465730.131,470492.739,,,,
fixCross,canvas.Screen,2_4_2_6_1_0_0_0_0_4_0,2021-05-24T16:17:58.270Z,,,blank.png,blank.png,blank.png,blank.png,blank.png,blank.png,blank.png,"[""chocolate_truffle.png""]",blank.png,blank.png,blank.png,blank.png,blank.png,,,,,,,,,,,,,,,,,,,,,,,,,,,,,"[""chocolate_truffle.png""]","[""cherry.png""]",PB18.png,,,,,,,,,,,0,6,"[""cherry.png""]","[""cherry.png""]","[""cherry.png""]","[""cherry.png""]","[""cherry.png""]","[""cherry.png""]",blank.png,PB18.png,PB17.png,"[""cherry.png""]","[""cherry.png""]","[""cherry.png""]","[""cherry.png""]","[""cherry.png""]","[""cherry.png""]","[""cherry.png""]","[""cherry.png""]","[""cherry.png""]","[""cherry.png""]","[""cherry.png""]","[""cherry.png""]",1,"[""chocolate_truffle.png""]",blank.png,blank.png,blank.png,6,"[""cherry.png""]","[""cherry.png""]","[""cherry.png""]","[""cherry.png""]","[""cherry.png""]","[""cherry.png""]",PB17.png,,,,,,,,,,,1,,,,,,,,,,,,,815.1880000000237,,timeout,,,,,,,,,,,,,4,,,,,,,,,,,,,,,,,,,,,,,,,,,,,,,,,,,,,,,,,,,,,,,,,,,,,,,,,"[""cherry.png""]","[""chocolate_truffle.png""]",,,,4,,,false,,1,,,,,,,470925.7149999903,470925.088,470475.797,470480.9149999928,470492.739,471307.927,5,,,
timeout,canvas.Screen,2_4_2_6_1_0_0_0_0_4_1,2021-05-24T16:17:59.136Z,,,blank.png,blank.png,blank.png,blank.png,blank.png,blank.png,blank.png,"[""chocolate_truffle.png""]",blank.png,blank.png,blank.png,blank.png,blank.png,,,,,,,,,,,,,,,,,,,,,,,,,,,,,"[""chocolate_truffle.png""]","[""cherry.png""]",PB18.png,,,,,,,,,,,0,6,"[""cherry.png""]","[""cherry.png""]","[""cherry.png""]","[""cherry.png""]","[""cherry.png""]","[""cherry.png""]",blank.png,PB18.png,PB17.png,"[""cherry.png""]","[""cherry.png""]","[""cherry.png""]","[""cherry.png""]","[""cherry.png""]","[""cherry.png""]","[""cherry.png""]","[""cherry.png""]","[""cherry.png""]","[""cherry.png""]","[""cherry.png""]","[""cherry.png""]",1,"[""chocolate_truffle.png""]",blank.png,blank.png,blank.png,6,"[""cherry.png""]","[""cherry.png""]","[""cherry.png""]","[""cherry.png""]","[""cherry.png""]","[""cherry.png""]",PB17.png,,,,,,,,,,,1,,,,,,,,,,,,,882.5639999999548,,timeout,,,,,,,,,,,,,4,,,,,,,,,,,,,,,,,,,,,,,,,,,,,,,,,,,,,,,,,,,,,,,,,,,,,,,,,"[""cherry.png""]","[""chocolate_truffle.png""]",,,,4,,,false,,1,,,,,,,471791.83999999077,471791.251,470925.088,471313.0349999992,471307.927,472190.491,,,,
choice,canvas.Screen,2_4_2_6_1_0_0_0_0_4_2,2021-05-24T16:17:59.895Z,,,blank.png,blank.png,blank.png,blank.png,blank.png,blank.png,blank.png,"[""chocolate_truffle.png""]",blank.png,blank.png,blank.png,blank.png,blank.png,,,,,,,,,,,,,,,,,,,,,,,,,,,,,"[""chocolate_truffle.png""]","[""cherry.png""]",PB18.png,,,,,,,,,,,0,6,"[""cherry.png""]","[""cherry.png""]","[""cherry.png""]","[""cherry.png""]","[""cherry.png""]","[""cherry.png""]",blank.png,PB18.png,PB17.png,"[""cherry.png""]","[""cherry.png""]","[""cherry.png""]","[""cherry.png""]","[""cherry.png""]","[""cherry.png""]","[""cherry.png""]","[""cherry.png""]","[""cherry.png""]","[""cherry.png""]","[""cherry.png""]","[""cherry.png""]",1,"[""chocolate_truffle.png""]",blank.png,blank.png,blank.png,6,"[""cherry.png""]","[""cherry.png""]","[""cherry.png""]","[""cherry.png""]","[""cherry.png""]","[""cherry.png""]",PB17.png,,,,,,,,,,,1,,,,,,,,,,,,,359.34899999242043,,response,,,,,,,,,,,,,4,,,,,,,,,,,,,,,,,,,,,,,,,,,,,,,,,,,,,,,,,,,,,,,,,,,,,,,,,"[""cherry.png""]","[""chocolate_truffle.png""]",,,,4,right,keydown(ArrowRight),false,,1,,,,,,,472550.6499999901,472549.8399999924,471791.251,472174.3799999822,472190.491,472939.668,,5,,
square,canvas.Screen,2_4_2_6_1_0_0_0_0_4_3,2021-05-24T16:18:01.268Z,,,blank.png,blank.png,blank.png,blank.png,blank.png,blank.png,blank.png,"[""chocolate_truffle.png""]",blank.png,blank.png,blank.png,blank.png,blank.png,,,,,,,,,,,,,,,,,,,,,,,,,,,,,"[""chocolate_truffle.png""]","[""cherry.png""]",PB18.png,,,,,,,,,,,0,6,"[""cherry.png""]","[""cherry.png""]","[""cherry.png""]","[""cherry.png""]","[""cherry.png""]","[""cherry.png""]",blank.png,PB18.png,PB17.png,"[""cherry.png""]","[""cherry.png""]","[""cherry.png""]","[""cherry.png""]","[""cherry.png""]","[""cherry.png""]","[""cherry.png""]","[""cherry.png""]","[""cherry.png""]","[""cherry.png""]","[""cherry.png""]","[""cherry.png""]",1,"[""chocolate_truffle.png""]",blank.png,blank.png,blank.png,6,"[""cherry.png""]","[""cherry.png""]","[""cherry.png""]","[""cherry.png""]","[""cherry.png""]","[""cherry.png""]",PB17.png,,,,,,,,,,,1,,,#808080,#33ff3f,,,,,,,,,999.6479999999865,,timeout,,,,,,,,,,,,,4,,,,,,,,,,,,,,,,,,,,,,,,,,,,,,,,,,,,,,,,,,,,,,,,,,,,,,,,,"[""cherry.png""]","[""chocolate_truffle.png""]",,,,4,,,false,,1,,,,,white,black,473923.4399999841,473922.686,472923.294,472935.1649999735,472939.668,473939.316,,,,
ITI_late,canvas.Screen,2_4_2_6_1_0_0_0_0_4_4,2021-05-24T16:18:02.267Z,,,blank.png,blank.png,blank.png,blank.png,blank.png,blank.png,blank.png,"[""chocolate_truffle.png""]",blank.png,blank.png,blank.png,blank.png,blank.png,,,,,,,,,,,,,,,,,,,,,,,,,,,,,"[""chocolate_truffle.png""]","[""cherry.png""]",PB18.png,,,,,,,,,,,0,6,"[""cherry.png""]","[""cherry.png""]","[""cherry.png""]","[""cherry.png""]","[""cherry.png""]","[""cherry.png""]",blank.png,PB18.png,PB17.png,"[""cherry.png""]","[""cherry.png""]","[""cherry.png""]","[""cherry.png""]","[""cherry.png""]","[""cherry.png""]","[""cherry.png""]","[""cherry.png""]","[""cherry.png""]","[""cherry.png""]","[""cherry.png""]","[""cherry.png""]",1,"[""chocolate_truffle.png""]",blank.png,blank.png,blank.png,6,"[""cherry.png""]","[""cherry.png""]","[""cherry.png""]","[""cherry.png""]","[""cherry.png""]","[""cherry.png""]",PB17.png,,,,,,,,,,,1,,,,,,,,,,,,,998.9760000000242,,timeout,,,,,,,,,,,,white,4,,,,,,,,,,,,,,,,,,,,,,,,,,,,,,,,,,,,,,,,,,,,,,,,,,,,,,,,,"[""cherry.png""]","[""chocolate_truffle.png""]",,,,4,,,false,,1,,,,,,,474922.31499997433,474921.725,473922.686,473924.6049999783,473939.316,474938.292,,,,
choice_sequence,flow.Sequence,2_4_2_6_1_0_0_0_0_4,2021-05-24T16:18:02.267Z,,,blank.png,blank.png,blank.png,blank.png,blank.png,blank.png,blank.png,"[""chocolate_truffle.png""]",blank.png,blank.png,blank.png,blank.png,blank.png,,,,,,,,,,,,,,,,,,,,,,,,,,,,,"[""chocolate_truffle.png""]","[""cherry.png""]",PB18.png,,,,,,,,,,,0,6,"[""cherry.png""]","[""cherry.png""]","[""cherry.png""]","[""cherry.png""]","[""cherry.png""]","[""cherry.png""]",blank.png,PB18.png,PB17.png,"[""cherry.png""]","[""cherry.png""]","[""cherry.png""]","[""cherry.png""]","[""cherry.png""]","[""cherry.png""]","[""cherry.png""]","[""cherry.png""]","[""cherry.png""]","[""cherry.png""]","[""cherry.png""]","[""cherry.png""]",1,"[""chocolate_truffle.png""]",blank.png,blank.png,blank.png,6,"[""cherry.png""]","[""cherry.png""]","[""cherry.png""]","[""cherry.png""]","[""cherry.png""]","[""cherry.png""]",PB17.png,,,,,,,,,,,1,,,,,,,,,,,,,4428.985999999975,,completion,,,,,,,,,,,,,4,,,,,,,,,,,,,,,,,,,,,,,,,,,,,,,,,,,,,,,,,,,,,,,,,,,,,,,,,"[""cherry.png""]","[""chocolate_truffle.png""]",,,,4,,,false,,1,,,,,,,474922.66499999096,474921.725,470475.797,470480.33999998006,470492.739,474938.292,,,,
fixCross,canvas.Screen,2_4_2_6_1_0_0_0_0_5_0,2021-05-24T16:18:02.616Z,,,blank.png,"[""chocolate_truffle.png""]",blank.png,blank.png,blank.png,blank.png,blank.png,blank.png,blank.png,blank.png,blank.png,blank.png,blank.png,,,,,,,,,,,,,,,,,,,,,,,,,,,,,"[""chocolate_truffle.png""]","[""cherry.png""]",PB14.png,,,,,,,,,,,0,6,"[""cherry.png""]","[""cherry.png""]","[""cherry.png""]","[""cherry.png""]","[""cherry.png""]","[""cherry.png""]",blank.png,PB18.png,PB18.png,"[""cherry.png""]","[""cherry.png""]","[""cherry.png""]",blank.png,blank.png,blank.png,"[""cherry.png""]","[""cherry.png""]","[""cherry.png""]","[""cherry.png""]","[""cherry.png""]","[""cherry.png""]",1,"[""chocolate_truffle.png""]",blank.png,blank.png,blank.png,3,"[""cherry.png""]","[""cherry.png""]","[""cherry.png""]",blank.png,blank.png,blank.png,PB14.png,,,,,,,,,,,1,,,,,,,,,,,,,682.1059999999707,,timeout,,,,,,,,,,,,,3,,,,,,,,,,,,,,,,,,,,,,,,,,,,,,,,,,,,,,,,,,,,,,,,,,,,,,,,,"[""cherry.png""]","[""chocolate_truffle.png""]",,,,4,,,false,,1,,,,,,,475271.7849999899,475271.19,474921.725,474925.6999999925,474938.292,475620.398,6,,,
timeout,canvas.Screen,2_4_2_6_1_0_0_0_0_5_1,2021-05-24T16:18:03.449Z,,,blank.png,"[""chocolate_truffle.png""]",blank.png,blank.png,blank.png,blank.png,blank.png,blank.png,blank.png,blank.png,blank.png,blank.png,blank.png,,,,,,,,,,,,,,,,,,,,,,,,,,,,,"[""chocolate_truffle.png""]","[""cherry.png""]",PB14.png,,,,,,,,,,,0,6,"[""cherry.png""]","[""cherry.png""]","[""cherry.png""]","[""cherry.png""]","[""cherry.png""]","[""cherry.png""]",blank.png,PB18.png,PB18.png,"[""cherry.png""]","[""cherry.png""]","[""cherry.png""]",blank.png,blank.png,blank.png,"[""cherry.png""]","[""cherry.png""]","[""cherry.png""]","[""cherry.png""]","[""cherry.png""]","[""cherry.png""]",1,"[""chocolate_truffle.png""]",blank.png,blank.png,blank.png,3,"[""cherry.png""]","[""cherry.png""]","[""cherry.png""]",blank.png,blank.png,blank.png,PB14.png,,,,,,,,,,,1,,,,,,,,,,,,,832.5009999999893,,timeout,,,,,,,,,,,,,3,,,,,,,,,,,,,,,,,,,,,,,,,,,,,,,,,,,,,,,,,,,,,,,,,,,,,,,,,"[""cherry.png""]","[""chocolate_truffle.png""]",,,,4,,,false,,1,,,,,,,476104.3799999752,476103.911,475271.19,475627.1849999903,475620.398,476452.899,,,,
choice,canvas.Screen,2_4_2_6_1_0_0_0_0_5_2,2021-05-24T16:18:03.812Z,,,blank.png,"[""chocolate_truffle.png""]",blank.png,blank.png,blank.png,blank.png,blank.png,blank.png,blank.png,blank.png,blank.png,blank.png,blank.png,,,,,,,,,,,,,,,,,,,,,,,,,,,,,"[""chocolate_truffle.png""]","[""cherry.png""]",PB14.png,,,,,,,,,,,0,6,"[""cherry.png""]","[""cherry.png""]","[""cherry.png""]","[""cherry.png""]","[""cherry.png""]","[""cherry.png""]",blank.png,PB18.png,PB18.png,"[""cherry.png""]","[""cherry.png""]","[""cherry.png""]",blank.png,blank.png,blank.png,"[""cherry.png""]","[""cherry.png""]","[""cherry.png""]","[""cherry.png""]","[""cherry.png""]","[""cherry.png""]",1,"[""chocolate_truffle.png""]",blank.png,blank.png,blank.png,3,"[""cherry.png""]","[""cherry.png""]","[""cherry.png""]",blank.png,blank.png,blank.png,PB14.png,,,,,,,,,,,1,,,,,,,,,,,,,339.3639999977895,,response,,,,,,,,,,,,,3,,,,,,,,,,,,,,,,,,,,,,,,,,,,,,,,,,,,,,,,,,,,,,,,,,,,,,,,,"[""cherry.png""]","[""chocolate_truffle.png""]",,,,4,left,keydown(ArrowLeft),false,,1,,,,,,,476467.49499998987,476443.2749999978,476103.911,476448.4699999739,,476819.206,,6,,
square,canvas.Screen,2_4_2_6_1_0_0_0_0_5_3,2021-05-24T16:18:05.147Z,,,blank.png,"[""chocolate_truffle.png""]",blank.png,blank.png,blank.png,blank.png,blank.png,blank.png,blank.png,blank.png,blank.png,blank.png,blank.png,,,,,,,,,,,,,,,,,,,,,,,,,,,,,"[""chocolate_truffle.png""]","[""cherry.png""]",PB14.png,,,,,,,,,,,0,6,"[""cherry.png""]","[""cherry.png""]","[""cherry.png""]","[""cherry.png""]","[""cherry.png""]","[""cherry.png""]",blank.png,PB18.png,PB18.png,"[""cherry.png""]","[""cherry.png""]","[""cherry.png""]",blank.png,blank.png,blank.png,"[""cherry.png""]","[""cherry.png""]","[""cherry.png""]","[""cherry.png""]","[""cherry.png""]","[""cherry.png""]",1,"[""chocolate_truffle.png""]",blank.png,blank.png,blank.png,3,"[""cherry.png""]","[""cherry.png""]","[""cherry.png""]",blank.png,blank.png,blank.png,PB14.png,,,,,,,,,,,1,,,#33ff3f,#808080,,,,,,,,,999.0740000000224,,timeout,,,,,,,,,,,,,3,,,,,,,,,,,,,,,,,,,,,,,,,,,,,,,,,,,,,,,,,,,,,,,,,,,,,,,,,"[""cherry.png""]","[""chocolate_truffle.png""]",,,,4,,,false,,1,,,,,black,white,477802.94999998296,477802.226,476452.899,476810.8099999954,476819.206,477818.28,,,,
ITI_late,canvas.Screen,2_4_2_6_1_0_0_0_0_5_4,2021-05-24T16:18:05.647Z,,,blank.png,"[""chocolate_truffle.png""]",blank.png,blank.png,blank.png,blank.png,blank.png,blank.png,blank.png,blank.png,blank.png,blank.png,blank.png,,,,,,,,,,,,,,,,,,,,,,,,,,,,,"[""chocolate_truffle.png""]","[""cherry.png""]",PB14.png,,,,,,,,,,,0,6,"[""cherry.png""]","[""cherry.png""]","[""cherry.png""]","[""cherry.png""]","[""cherry.png""]","[""cherry.png""]",blank.png,PB18.png,PB18.png,"[""cherry.png""]","[""cherry.png""]","[""cherry.png""]",blank.png,blank.png,blank.png,"[""cherry.png""]","[""cherry.png""]","[""cherry.png""]","[""cherry.png""]","[""cherry.png""]","[""cherry.png""]",1,"[""chocolate_truffle.png""]",blank.png,blank.png,blank.png,3,"[""cherry.png""]","[""cherry.png""]","[""cherry.png""]",blank.png,blank.png,blank.png,PB14.png,,,,,,,,,,,1,,,,,,,,,,,,,499.74599999998463,,timeout,,,,,,,,,,,,white,3,,,,,,,,,,,,,,,,,,,,,,,,,,,,,,,,,,,,,,,,,,,,,,,,,,,,,,,,,"[""cherry.png""]","[""chocolate_truffle.png""]",,,,4,,,false,,1,,,,,,,478302.3600000015,478301.74,477802.226,477804.0949999995,477818.28,478318.026,,,,
choice_sequence,flow.Sequence,2_4_2_6_1_0_0_0_0_5,2021-05-24T16:18:05.647Z,,,blank.png,"[""chocolate_truffle.png""]",blank.png,blank.png,blank.png,blank.png,blank.png,blank.png,blank.png,blank.png,blank.png,blank.png,blank.png,,,,,,,,,,,,,,,,,,,,,,,,,,,,,"[""chocolate_truffle.png""]","[""cherry.png""]",PB14.png,,,,,,,,,,,0,6,"[""cherry.png""]","[""cherry.png""]","[""cherry.png""]","[""cherry.png""]","[""cherry.png""]","[""cherry.png""]",blank.png,PB18.png,PB18.png,"[""cherry.png""]","[""cherry.png""]","[""cherry.png""]",blank.png,blank.png,blank.png,"[""cherry.png""]","[""cherry.png""]","[""cherry.png""]","[""cherry.png""]","[""cherry.png""]","[""cherry.png""]",1,"[""chocolate_truffle.png""]",blank.png,blank.png,blank.png,3,"[""cherry.png""]","[""cherry.png""]","[""cherry.png""]",blank.png,blank.png,blank.png,PB14.png,,,,,,,,,,,1,,,,,,,,,,,,,3363.447999999975,,completion,,,,,,,,,,,,,3,,,,,,,,,,,,,,,,,,,,,,,,,,,,,,,,,,,,,,,,,,,,,,,,,,,,,,,,,"[""cherry.png""]","[""chocolate_truffle.png""]",,,,4,,,false,,1,,,,,,,478302.67499998445,478301.74,474921.725,474925.12499997974,474938.292,478318.026,,,,
fixCross,canvas.Screen,2_4_2_6_1_0_0_0_0_6_0,2021-05-24T16:18:05.996Z,,,blank.png,blank.png,blank.png,blank.png,blank.png,blank.png,blank.png,"[""chocolate_truffle.png""]",blank.png,blank.png,blank.png,blank.png,blank.png,,,,,,,,,,,,,,,,,,,,,,,,,,,,,"[""chocolate_truffle.png""]","[""cherry.png""]",PB18.png,,,,,,,,,,,0,6,"[""cherry.png""]","[""cherry.png""]","[""cherry.png""]","[""cherry.png""]","[""cherry.png""]","[""cherry.png""]",blank.png,PB18.png,PB15.png,"[""cherry.png""]","[""cherry.png""]","[""cherry.png""]","[""cherry.png""]","[""cherry.png""]","[""cherry.png""]","[""cherry.png""]","[""cherry.png""]","[""cherry.png""]","[""cherry.png""]",blank.png,blank.png,1,"[""chocolate_truffle.png""]",blank.png,blank.png,blank.png,4,"[""cherry.png""]","[""cherry.png""]","[""cherry.png""]","[""cherry.png""]",blank.png,blank.png,PB15.png,,,,,,,,,,,1,,,,,,,,,,,,,699.0860000000102,,timeout,,,,,,,,,,,,,4,,,,,,,,,,,,,,,,,,,,,,,,,,,,,,,,,,,,,,,,,,,,,,,,,,,,,,,,,"[""cherry.png""]","[""chocolate_truffle.png""]",,,,4,,,false,,1,,,,,,,478651.5749999962,478651.134,478301.74,478305.77499998617,478318.026,479017.112,7,,,
timeout,canvas.Screen,2_4_2_6_1_0_0_0_0_6_1,2021-05-24T16:18:06.845Z,,,blank.png,blank.png,blank.png,blank.png,blank.png,blank.png,blank.png,"[""chocolate_truffle.png""]",blank.png,blank.png,blank.png,blank.png,blank.png,,,,,,,,,,,,,,,,,,,,,,,,,,,,,"[""chocolate_truffle.png""]","[""cherry.png""]",PB18.png,,,,,,,,,,,0,6,"[""cherry.png""]","[""cherry.png""]","[""cherry.png""]","[""cherry.png""]","[""cherry.png""]","[""cherry.png""]",blank.png,PB18.png,PB15.png,"[""cherry.png""]","[""cherry.png""]","[""cherry.png""]","[""cherry.png""]","[""cherry.png""]","[""cherry.png""]","[""cherry.png""]","[""cherry.png""]","[""cherry.png""]","[""cherry.png""]",blank.png,blank.png,1,"[""chocolate_truffle.png""]",blank.png,blank.png,blank.png,4,"[""cherry.png""]","[""cherry.png""]","[""cherry.png""]","[""cherry.png""]",blank.png,blank.png,PB15.png,,,,,,,,,,,1,,,,,,,,,,,,,849.1449999999604,,timeout,,,,,,,,,,,,,4,,,,,,,,,,,,,,,,,,,,,,,,,,,,,,,,,,,,,,,,,,,,,,,,,,,,,,,,,"[""cherry.png""]","[""chocolate_truffle.png""]",,,,4,,,false,,1,,,,,,,479501.1099999829,479500.55,478651.134,479025.78499997617,479017.112,479866.257,,,,
choice,canvas.Screen,2_4_2_6_1_0_0_0_0_6_2,2021-05-24T16:18:07.689Z,,,blank.png,blank.png,blank.png,blank.png,blank.png,blank.png,blank.png,"[""chocolate_truffle.png""]",blank.png,blank.png,blank.png,blank.png,blank.png,,,,,,,,,,,,,,,,,,,,,,,,,,,,,"[""chocolate_truffle.png""]","[""cherry.png""]",PB18.png,,,,,,,,,,,0,6,"[""cherry.png""]","[""cherry.png""]","[""cherry.png""]","[""cherry.png""]","[""cherry.png""]","[""cherry.png""]",blank.png,PB18.png,PB15.png,"[""cherry.png""]","[""cherry.png""]","[""cherry.png""]","[""cherry.png""]","[""cherry.png""]","[""cherry.png""]","[""cherry.png""]","[""cherry.png""]","[""cherry.png""]","[""cherry.png""]",blank.png,blank.png,1,"[""chocolate_truffle.png""]",blank.png,blank.png,blank.png,4,"[""cherry.png""]","[""cherry.png""]","[""cherry.png""]","[""cherry.png""]",blank.png,blank.png,PB15.png,,,,,,,,,,,1,,,,,,,,,,,,,477.8479999965057,,response,,,,,,,,,,,,,4,,,,,,,,,,,,,,,,,,,,,,,,,,,,,,,,,,,,,,,,,,,,,,,,,,,,,,,,,"[""cherry.png""]","[""chocolate_truffle.png""]",,,,4,right,keydown(ArrowRight),false,,1,,,,,,,480345.00999999,480344.1049999965,479500.55,479856.534999999,479866.257,480715.472,,7,,
square,canvas.Screen,2_4_2_6_1_0_0_0_0_6_3,2021-05-24T16:18:09.044Z,,,blank.png,blank.png,blank.png,blank.png,blank.png,blank.png,blank.png,"[""chocolate_truffle.png""]",blank.png,blank.png,blank.png,blank.png,blank.png,,,,,,,,,,,,,,,,,,,,,,,,,,,,,"[""chocolate_truffle.png""]","[""cherry.png""]",PB18.png,,,,,,,,,,,0,6,"[""cherry.png""]","[""cherry.png""]","[""cherry.png""]","[""cherry.png""]","[""cherry.png""]","[""cherry.png""]",blank.png,PB18.png,PB15.png,"[""cherry.png""]","[""cherry.png""]","[""cherry.png""]","[""cherry.png""]","[""cherry.png""]","[""cherry.png""]","[""cherry.png""]","[""cherry.png""]","[""cherry.png""]","[""cherry.png""]",blank.png,blank.png,1,"[""chocolate_truffle.png""]",blank.png,blank.png,blank.png,4,"[""cherry.png""]","[""cherry.png""]","[""cherry.png""]","[""cherry.png""]",blank.png,blank.png,PB15.png,,,,,,,,,,,1,,,#808080,#33ff3f,,,,,,,,,999.1879999999655,,timeout,,,,,,,,,,,,,4,,,,,,,,,,,,,,,,,,,,,,,,,,,,,,,,,,,,,,,,,,,,,,,,,,,,,,,,,"[""cherry.png""]","[""chocolate_truffle.png""]",,,,4,,,false,,1,,,,,white,black,481699.61499999044,481697.804,480698.733,480699.094999989,480715.472,481714.66,,,,
ITI_late,canvas.Screen,2_4_2_6_1_0_0_0_0_6_4,2021-05-24T16:18:09.792Z,,,blank.png,blank.png,blank.png,blank.png,blank.png,blank.png,blank.png,"[""chocolate_truffle.png""]",blank.png,blank.png,blank.png,blank.png,blank.png,,,,,,,,,,,,,,,,,,,,,,,,,,,,,"[""chocolate_truffle.png""]","[""cherry.png""]",PB18.png,,,,,,,,,,,0,6,"[""cherry.png""]","[""cherry.png""]","[""cherry.png""]","[""cherry.png""]","[""cherry.png""]","[""cherry.png""]",blank.png,PB18.png,PB15.png,"[""cherry.png""]","[""cherry.png""]","[""cherry.png""]","[""cherry.png""]","[""cherry.png""]","[""cherry.png""]","[""cherry.png""]","[""cherry.png""]","[""cherry.png""]","[""cherry.png""]",blank.png,blank.png,1,"[""chocolate_truffle.png""]",blank.png,blank.png,blank.png,4,"[""cherry.png""]","[""cherry.png""]","[""cherry.png""]","[""cherry.png""]",blank.png,blank.png,PB15.png,,,,,,,,,,,1,,,,,,,,,,,,,749.0030000000261,,timeout,,,,,,,,,,,,white,4,,,,,,,,,,,,,,,,,,,,,,,,,,,,,,,,,,,,,,,,,,,,,,,,,,,,,,,,,"[""cherry.png""]","[""chocolate_truffle.png""]",,,,4,,,false,,1,,,,,,,482448.0849999818,482447.527,481697.804,481700.7899999735,481714.66,482463.663,,,,
choice_sequence,flow.Sequence,2_4_2_6_1_0_0_0_0_6,2021-05-24T16:18:09.793Z,,,blank.png,blank.png,blank.png,blank.png,blank.png,blank.png,blank.png,"[""chocolate_truffle.png""]",blank.png,blank.png,blank.png,blank.png,blank.png,,,,,,,,,,,,,,,,,,,,,,,,,,,,,"[""chocolate_truffle.png""]","[""cherry.png""]",PB18.png,,,,,,,,,,,0,6,"[""cherry.png""]","[""cherry.png""]","[""cherry.png""]","[""cherry.png""]","[""cherry.png""]","[""cherry.png""]",blank.png,PB18.png,PB15.png,"[""cherry.png""]","[""cherry.png""]","[""cherry.png""]","[""cherry.png""]","[""cherry.png""]","[""cherry.png""]","[""cherry.png""]","[""cherry.png""]","[""cherry.png""]","[""cherry.png""]",blank.png,blank.png,1,"[""chocolate_truffle.png""]",blank.png,blank.png,blank.png,4,"[""cherry.png""]","[""cherry.png""]","[""cherry.png""]","[""cherry.png""]",blank.png,blank.png,PB15.png,,,,,,,,,,,1,,,,,,,,,,,,,4129.500999999989,,completion,,,,,,,,,,,,,4,,,,,,,,,,,,,,,,,,,,,,,,,,,,,,,,,,,,,,,,,,,,,,,,,,,,,,,,,"[""cherry.png""]","[""chocolate_truffle.png""]",,,,4,,,false,,1,,,,,,,482448.42999998946,482447.527,478301.74,478305.19499999355,478318.026,482463.663,,,,
choice_loop,flow.Loop,2_4_2_6_1_0_0_0_0,2021-05-24T16:18:09.793Z,,,,,,,,,,,,,,,,,,,,,,,,,,,,,,,,,,,,,,,,,,,,"[""chocolate_truffle.png""]","[""cherry.png""]",,,,,,,,,,,,,,,,,,,,,,,,,,,,,,,,,,,,,,,,,,,,,,,,,,,,,,,,,,,,,,,,,,,,,,,31003.467999999993,,completion,,,,,,,,,,,,,,,,,,,,,,,,,,,,,,,,,,,,,,,,,,,,,,,,,,,,,,,,,,,,,,,,,,,,,,"[""cherry.png""]","[""chocolate_truffle.png""]",,,,4,,,false,,,,,,,,,482448.6399999878,482447.527,451427.961,451450.67500000005,451444.059,482463.663,,,,
choice_frame,html.Frame,2_4_2_6_1_0_0_0,2021-05-24T16:18:09.793Z,,,,,,,,,,,,,,,,,,,,,,,,,,,,,,,,,,,,,,,,,,,,,,,,,,,,,,,,,,,,,,,,,,,,,,,,,,,,,,,,,,,,,,,,,,,,,,,,,,,,,,,,,,,,,,,,,,,,31004.635999999125,,,,,,,,,,,,,,,,,,,,,,,,,,,,,,,,,,,,,,,,,,,,,,,,,,,,,,,,,,,,,,,,,,,,,,,,,,,,,4,,,false,,,,,,,,,482448.7749999971,482448.69499999913,451427.961,451428.5899999959,451444.059,482480.375,,,,
sublock_1,flow.Sequence,2_4_2_6_1_0_0,2021-05-24T16:18:09.793Z,,,,,,,,,,,,,,,,,,,,,,,,,,,,,,,,,,,,,,,,,,,,,,,,,,,,,,,,,,,,,,,,,,,,,,,,,,,,,,,,,,,,,,,,,,,,,,,,,,,,,,,,,,,,,,,,,,,,31004.635999999125,,completion,,,,,,,,,,,,,,,,,,,,,,,,,,,,,,,,,,,,,,,,,,,,,,,,,,,,,,,,,,,,,,,,,,,,,,,,,,,4,,,false,,,,,,,,,482448.84499997715,482448.69499999913,451427.961,451428.5600000003,451444.059,482480.375,,,,
fixCross,canvas.Screen,2_4_2_6_1_0_1_0_0_0_0,2021-05-24T16:18:10.309Z,,,blank.png,blank.png,blank.png,blank.png,blank.png,blank.png,blank.png,"[""chocolate_truffle.png""]",blank.png,blank.png,blank.png,blank.png,blank.png,,,,,,,,,,,,,,,,,,,,,,,,,,,,,"[""chocolate_truffle.png""]","[""cherry.png""]",PB18.png,,,,,,,,,,,0,6,"[""cherry.png""]","[""cherry.png""]","[""cherry.png""]","[""cherry.png""]","[""cherry.png""]","[""cherry.png""]",blank.png,PB18.png,PB01.png,"[""cherry.png""]","[""cherry.png""]","[""cherry.png""]","[""cherry.png""]","[""cherry.png""]","[""cherry.png""]",blank.png,blank.png,blank.png,blank.png,blank.png,blank.png,1,"[""chocolate_truffle.png""]",blank.png,blank.png,blank.png,0,blank.png,blank.png,blank.png,blank.png,blank.png,blank.png,PB01.png,,,,,,,,,,,1,,,,,,,,,,,,,782.5410000000265,,timeout,,,,,,,,,,,,,4,,,,,,,,,,,,,,,,,,,,,,,,,,,,,,,,,,,,,,,,,,,,,,,,,,,,,,,,,"[""cherry.png""]","[""chocolate_truffle.png""]",,,,2,,,false,,1,,,,,,,482964.4799999951,482963.864,482463.663,482473.4499999904,482480.375,483262.916,8,,,
timeout,canvas.Screen,2_4_2_6_1_0_1_0_0_0_1,2021-05-24T16:18:11.091Z,,,blank.png,blank.png,blank.png,blank.png,blank.png,blank.png,blank.png,"[""chocolate_truffle.png""]",blank.png,blank.png,blank.png,blank.png,blank.png,,,,,,,,,,,,,,,,,,,,,,,,,,,,,"[""chocolate_truffle.png""]","[""cherry.png""]",PB18.png,,,,,,,,,,,0,6,"[""cherry.png""]","[""cherry.png""]","[""cherry.png""]","[""cherry.png""]","[""cherry.png""]","[""cherry.png""]",blank.png,PB18.png,PB01.png,"[""cherry.png""]","[""cherry.png""]","[""cherry.png""]","[""cherry.png""]","[""cherry.png""]","[""cherry.png""]",blank.png,blank.png,blank.png,blank.png,blank.png,blank.png,1,"[""chocolate_truffle.png""]",blank.png,blank.png,blank.png,0,blank.png,blank.png,blank.png,blank.png,blank.png,blank.png,PB01.png,,,,,,,,,,,1,,,,,,,,,,,,,782.5689999999595,,timeout,,,,,,,,,,,,,4,,,,,,,,,,,,,,,,,,,,,,,,,,,,,,,,,,,,,,,,,,,,,,,,,,,,,,,,,"[""cherry.png""]","[""chocolate_truffle.png""]",,,,2,,,false,,1,,,,,,,483746.5699999884,483745.986,482963.864,483253.59999999637,483262.916,484045.485,,,,
choice,canvas.Screen,2_4_2_6_1_0_1_0_0_0_2,2021-05-24T16:18:12.050Z,,,blank.png,blank.png,blank.png,blank.png,blank.png,blank.png,blank.png,"[""chocolate_truffle.png""]",blank.png,blank.png,blank.png,blank.png,blank.png,,,,,,,,,,,,,,,,,,,,,,,,,,,,,"[""chocolate_truffle.png""]","[""cherry.png""]",PB18.png,,,,,,,,,,,0,6,"[""cherry.png""]","[""cherry.png""]","[""cherry.png""]","[""cherry.png""]","[""cherry.png""]","[""cherry.png""]",blank.png,PB18.png,PB01.png,"[""cherry.png""]","[""cherry.png""]","[""cherry.png""]","[""cherry.png""]","[""cherry.png""]","[""cherry.png""]",blank.png,blank.png,blank.png,blank.png,blank.png,blank.png,1,"[""chocolate_truffle.png""]",blank.png,blank.png,blank.png,0,blank.png,blank.png,blank.png,blank.png,blank.png,blank.png,PB01.png,,,,,,,,,,,1,,,,,,,,,,,,,659.1799999974901,,response,,,,,,,,,,,,,4,,,,,,,,,,,,,,,,,,,,,,,,,,,,,,,,,,,,,,,,,,,,,,,,,,,,,,,,,"[""cherry.png""]","[""chocolate_truffle.png""]",,,,2,right,keydown(ArrowRight),false,,1,,,,,,,484705.38999998826,484704.6649999975,483745.986,484034.5399999933,484045.485,485011.192,,8,,
square,canvas.Screen,2_4_2_6_1_0_1_0_0_0_3,2021-05-24T16:18:13.340Z,,,blank.png,blank.png,blank.png,blank.png,blank.png,blank.png,blank.png,"[""chocolate_truffle.png""]",blank.png,blank.png,blank.png,blank.png,blank.png,,,,,,,,,,,,,,,,,,,,,,,,,,,,,"[""chocolate_truffle.png""]","[""cherry.png""]",PB18.png,,,,,,,,,,,0,6,"[""cherry.png""]","[""cherry.png""]","[""cherry.png""]","[""cherry.png""]","[""cherry.png""]","[""cherry.png""]",blank.png,PB18.png,PB01.png,"[""cherry.png""]","[""cherry.png""]","[""cherry.png""]","[""cherry.png""]","[""cherry.png""]","[""cherry.png""]",blank.png,blank.png,blank.png,blank.png,blank.png,blank.png,1,"[""chocolate_truffle.png""]",blank.png,blank.png,blank.png,0,blank.png,blank.png,blank.png,blank.png,blank.png,blank.png,PB01.png,,,,,,,,,,,1,,,#808080,#33ff3f,,,,,,,,,999.0560000000405,,timeout,,,,,,,,,,,,,4,,,,,,,,,,,,,,,,,,,,,,,,,,,,,,,,,,,,,,,,,,,,,,,,,,,,,,,,,"[""cherry.png""]","[""chocolate_truffle.png""]",,,,2,,,false,,1,,,,,white,black,485995.7249999861,485993.992,484995.08,484998.6749999807,485011.192,486010.248,,,,
ITI_late,canvas.Screen,2_4_2_6_1_0_1_0_0_0_4,2021-05-24T16:18:14.088Z,,,blank.png,blank.png,blank.png,blank.png,blank.png,blank.png,blank.png,"[""chocolate_truffle.png""]",blank.png,blank.png,blank.png,blank.png,blank.png,,,,,,,,,,,,,,,,,,,,,,,,,,,,,"[""chocolate_truffle.png""]","[""cherry.png""]",PB18.png,,,,,,,,,,,0,6,"[""cherry.png""]","[""cherry.png""]","[""cherry.png""]","[""cherry.png""]","[""cherry.png""]","[""cherry.png""]",blank.png,PB18.png,PB01.png,"[""cherry.png""]","[""cherry.png""]","[""cherry.png""]","[""cherry.png""]","[""cherry.png""]","[""cherry.png""]",blank.png,blank.png,blank.png,blank.png,blank.png,blank.png,1,"[""chocolate_truffle.png""]",blank.png,blank.png,blank.png,0,blank.png,blank.png,blank.png,blank.png,blank.png,blank.png,PB01.png,,,,,,,,,,,1,,,,,,,,,,,,,749.2529999999679,,timeout,,,,,,,,,,,,white,4,,,,,,,,,,,,,,,,,,,,,,,,,,,,,,,,,,,,,,,,,,,,,,,,,,,,,,,,,"[""cherry.png""]","[""chocolate_truffle.png""]",,,,2,,,false,,1,,,,,,,486743.95499998354,486743.482,485993.992,485996.9549999805,486010.248,486759.501,,,,
choice_sequence,flow.Sequence,2_4_2_6_1_0_1_0_0_0,2021-05-24T16:18:14.089Z,,,blank.png,blank.png,blank.png,blank.png,blank.png,blank.png,blank.png,"[""chocolate_truffle.png""]",blank.png,blank.png,blank.png,blank.png,blank.png,,,,,,,,,,,,,,,,,,,,,,,,,,,,,"[""chocolate_truffle.png""]","[""cherry.png""]",PB18.png,,,,,,,,,,,0,6,"[""cherry.png""]","[""cherry.png""]","[""cherry.png""]","[""cherry.png""]","[""cherry.png""]","[""cherry.png""]",blank.png,PB18.png,PB01.png,"[""cherry.png""]","[""cherry.png""]","[""cherry.png""]","[""cherry.png""]","[""cherry.png""]","[""cherry.png""]",blank.png,blank.png,blank.png,blank.png,blank.png,blank.png,1,"[""chocolate_truffle.png""]",blank.png,blank.png,blank.png,0,blank.png,blank.png,blank.png,blank.png,blank.png,blank.png,PB01.png,,,,,,,,,,,1,,,,,,,,,,,,,4263.107000000018,,completion,,,,,,,,,,,,,4,,,,,,,,,,,,,,,,,,,,,,,,,,,,,,,,,,,,,,,,,,,,,,,,,,,,,,,,,"[""cherry.png""]","[""chocolate_truffle.png""]",,,,2,,,false,,1,,,,,,,486744.2849999934,486743.482,482463.663,482472.8099999775,482480.375,486759.501,,,,
fixCross,canvas.Screen,2_4_2_6_1_0_1_0_0_1_0,2021-05-24T16:18:14.688Z,,,blank.png,"[""chocolate_truffle.png""]",blank.png,blank.png,blank.png,blank.png,blank.png,blank.png,blank.png,blank.png,blank.png,blank.png,blank.png,,,,,,,,,,,,,,,,,,,,,,,,,,,,,"[""chocolate_truffle.png""]","[""cherry.png""]",PB12.png,,,,,,,,,,,0,6,"[""cherry.png""]","[""cherry.png""]","[""cherry.png""]","[""cherry.png""]","[""cherry.png""]","[""cherry.png""]",blank.png,PB18.png,PB18.png,"[""cherry.png""]","[""cherry.png""]",blank.png,blank.png,blank.png,blank.png,"[""cherry.png""]","[""cherry.png""]","[""cherry.png""]","[""cherry.png""]","[""cherry.png""]","[""cherry.png""]",1,"[""chocolate_truffle.png""]",blank.png,blank.png,blank.png,2,"[""cherry.png""]","[""cherry.png""]",blank.png,blank.png,blank.png,blank.png,PB12.png,,,,,,,,,,,1,,,,,,,,,,,,,915.7310000000289,,timeout,,,,,,,,,,,,,3,,,,,,,,,,,,,,,,,,,,,,,,,,,,,,,,,,,,,,,,,,,,,,,,,,,,,,,,,"[""cherry.png""]","[""chocolate_truffle.png""]",,,,2,,,false,,1,,,,,,,487343.54000000167,487342.889,486743.482,486747.2449999768,486759.501,487675.232,9,,,
timeout,canvas.Screen,2_4_2_6_1_0_1_0_0_1_1,2021-05-24T16:18:15.504Z,,,blank.png,"[""chocolate_truffle.png""]",blank.png,blank.png,blank.png,blank.png,blank.png,blank.png,blank.png,blank.png,blank.png,blank.png,blank.png,,,,,,,,,,,,,,,,,,,,,,,,,,,,,"[""chocolate_truffle.png""]","[""cherry.png""]",PB12.png,,,,,,,,,,,0,6,"[""cherry.png""]","[""cherry.png""]","[""cherry.png""]","[""cherry.png""]","[""cherry.png""]","[""cherry.png""]",blank.png,PB18.png,PB18.png,"[""cherry.png""]","[""cherry.png""]",blank.png,blank.png,blank.png,blank.png,"[""cherry.png""]","[""cherry.png""]","[""cherry.png""]","[""cherry.png""]","[""cherry.png""]","[""cherry.png""]",1,"[""chocolate_truffle.png""]",blank.png,blank.png,blank.png,2,"[""cherry.png""]","[""cherry.png""]",blank.png,blank.png,blank.png,blank.png,PB12.png,,,,,,,,,,,1,,,,,,,,,,,,,815.8929999999818,,timeout,,,,,,,,,,,,,3,,,,,,,,,,,,,,,,,,,,,,,,,,,,,,,,,,,,,,,,,,,,,,,,,,,,,,,,,"[""cherry.png""]","[""chocolate_truffle.png""]",,,,2,,,false,,1,,,,,,,488159.2649999948,488158.661,487342.889,487666.58499999903,487675.232,488491.125,,,,
choice,canvas.Screen,2_4_2_6_1_0_1_0_0_1_2,2021-05-24T16:18:15.843Z,,,blank.png,"[""chocolate_truffle.png""]",blank.png,blank.png,blank.png,blank.png,blank.png,blank.png,blank.png,blank.png,blank.png,blank.png,blank.png,,,,,,,,,,,,,,,,,,,,,,,,,,,,,"[""chocolate_truffle.png""]","[""cherry.png""]",PB12.png,,,,,,,,,,,0,6,"[""cherry.png""]","[""cherry.png""]","[""cherry.png""]","[""cherry.png""]","[""cherry.png""]","[""cherry.png""]",blank.png,PB18.png,PB18.png,"[""cherry.png""]","[""cherry.png""]",blank.png,blank.png,blank.png,blank.png,"[""cherry.png""]","[""cherry.png""]","[""cherry.png""]","[""cherry.png""]","[""cherry.png""]","[""cherry.png""]",1,"[""chocolate_truffle.png""]",blank.png,blank.png,blank.png,2,"[""cherry.png""]","[""cherry.png""]",blank.png,blank.png,blank.png,blank.png,PB12.png,,,,,,,,,,,1,,,,,,,,,,,,,276.27399999747286,,response,,,,,,,,,,,,,3,,,,,,,,,,,,,,,,,,,,,,,,,,,,,,,,,,,,,,,,,,,,,,,,,,,,,,,,,"[""cherry.png""]","[""chocolate_truffle.png""]",,,,2,left,keydown(ArrowLeft),false,,1,,,,,,,488498.4599999734,488434.9349999975,488158.661,488479.72999999183,,488840.771,,9,,
square,canvas.Screen,2_4_2_6_1_0_1_0_0_1_3,2021-05-24T16:18:17.169Z,,,blank.png,"[""chocolate_truffle.png""]",blank.png,blank.png,blank.png,blank.png,blank.png,blank.png,blank.png,blank.png,blank.png,blank.png,blank.png,,,,,,,,,,,,,,,,,,,,,,,,,,,,,"[""chocolate_truffle.png""]","[""cherry.png""]",PB12.png,,,,,,,,,,,0,6,"[""cherry.png""]","[""cherry.png""]","[""cherry.png""]","[""cherry.png""]","[""cherry.png""]","[""cherry.png""]",blank.png,PB18.png,PB18.png,"[""cherry.png""]","[""cherry.png""]",blank.png,blank.png,blank.png,blank.png,"[""cherry.png""]","[""cherry.png""]","[""cherry.png""]","[""cherry.png""]","[""cherry.png""]","[""cherry.png""]",1,"[""chocolate_truffle.png""]",blank.png,blank.png,blank.png,2,"[""cherry.png""]","[""cherry.png""]",blank.png,blank.png,blank.png,blank.png,PB12.png,,,,,,,,,,,1,,,#33ff3f,#808080,,,,,,,,,999.6529999999912,,timeout,,,,,,,,,,,,,3,,,,,,,,,,,,,,,,,,,,,,,,,,,,,,,,,,,,,,,,,,,,,,,,,,,,,,,,,"[""cherry.png""]","[""chocolate_truffle.png""]",,,,2,,,false,,1,,,,,black,white,489824.41499998095,489823.836,488491.125,488830.37499999045,488840.771,489840.424,,,,
ITI_late,canvas.Screen,2_4_2_6_1_0_1_0_0_1_4,2021-05-24T16:18:18.168Z,,,blank.png,"[""chocolate_truffle.png""]",blank.png,blank.png,blank.png,blank.png,blank.png,blank.png,blank.png,blank.png,blank.png,blank.png,blank.png,,,,,,,,,,,,,,,,,,,,,,,,,,,,,"[""chocolate_truffle.png""]","[""cherry.png""]",PB12.png,,,,,,,,,,,0,6,"[""cherry.png""]","[""cherry.png""]","[""cherry.png""]","[""cherry.png""]","[""cherry.png""]","[""cherry.png""]",blank.png,PB18.png,PB18.png,"[""cherry.png""]","[""cherry.png""]",blank.png,blank.png,blank.png,blank.png,"[""cherry.png""]","[""cherry.png""]","[""cherry.png""]","[""cherry.png""]","[""cherry.png""]","[""cherry.png""]",1,"[""chocolate_truffle.png""]",blank.png,blank.png,blank.png,2,"[""cherry.png""]","[""cherry.png""]",blank.png,blank.png,blank.png,blank.png,PB12.png,,,,,,,,,,,1,,,,,,,,,,,,,998.4409999999916,,timeout,,,,,,,,,,,,white,3,,,,,,,,,,,,,,,,,,,,,,,,,,,,,,,,,,,,,,,,,,,,,,,,,,,,,,,,,"[""cherry.png""]","[""chocolate_truffle.png""]",,,,2,,,false,,1,,,,,,,490823.4049999737,490822.743,489823.836,489825.60999999987,489840.424,490838.865,,,,
choice_sequence,flow.Sequence,2_4_2_6_1_0_1_0_0_1,2021-05-24T16:18:18.168Z,,,blank.png,"[""chocolate_truffle.png""]",blank.png,blank.png,blank.png,blank.png,blank.png,blank.png,blank.png,blank.png,blank.png,blank.png,blank.png,,,,,,,,,,,,,,,,,,,,,,,,,,,,,"[""chocolate_truffle.png""]","[""cherry.png""]",PB12.png,,,,,,,,,,,0,6,"[""cherry.png""]","[""cherry.png""]","[""cherry.png""]","[""cherry.png""]","[""cherry.png""]","[""cherry.png""]",blank.png,PB18.png,PB18.png,"[""cherry.png""]","[""cherry.png""]",blank.png,blank.png,blank.png,blank.png,"[""cherry.png""]","[""cherry.png""]","[""cherry.png""]","[""cherry.png""]","[""cherry.png""]","[""cherry.png""]",1,"[""chocolate_truffle.png""]",blank.png,blank.png,blank.png,2,"[""cherry.png""]","[""cherry.png""]",blank.png,blank.png,blank.png,blank.png,PB12.png,,,,,,,,,,,1,,,,,,,,,,,,,4063.2420000000275,,completion,,,,,,,,,,,,,3,,,,,,,,,,,,,,,,,,,,,,,,,,,,,,,,,,,,,,,,,,,,,,,,,,,,,,,,,"[""cherry.png""]","[""chocolate_truffle.png""]",,,,2,,,false,,1,,,,,,,490823.8249999995,490822.743,486743.482,486746.70499999775,486759.501,490838.865,,,,
fixCross,canvas.Screen,2_4_2_6_1_0_1_0_0_2_0,2021-05-24T16:18:18.767Z,,,blank.png,blank.png,blank.png,blank.png,blank.png,blank.png,blank.png,"[""chocolate_truffle.png""]",blank.png,blank.png,blank.png,blank.png,blank.png,,,,,,,,,,,,,,,,,,,,,,,,,,,,,"[""chocolate_truffle.png""]","[""cherry.png""]",PB18.png,,,,,,,,,,,0,6,"[""cherry.png""]","[""cherry.png""]","[""cherry.png""]","[""cherry.png""]","[""cherry.png""]","[""cherry.png""]",blank.png,PB18.png,PB07.png,"[""cherry.png""]","[""cherry.png""]","[""cherry.png""]","[""cherry.png""]","[""cherry.png""]","[""cherry.png""]","[""cherry.png""]",blank.png,blank.png,blank.png,blank.png,blank.png,1,"[""chocolate_truffle.png""]",blank.png,blank.png,blank.png,1,"[""cherry.png""]",blank.png,blank.png,blank.png,blank.png,blank.png,PB07.png,,,,,,,,,,,1,,,,,,,,,,,,,882.4180000000051,,timeout,,,,,,,,,,,,,4,,,,,,,,,,,,,,,,,,,,,,,,,,,,,,,,,,,,,,,,,,,,,,,,,,,,,,,,,"[""cherry.png""]","[""chocolate_truffle.png""]",,,,2,,,false,,1,,,,,,,491422.7949999913,491422.242,490822.743,490828.8449999818,490838.865,491721.283,10,,,
timeout,canvas.Screen,2_4_2_6_1_0_1_0_0_2_1,2021-05-24T16:18:19.549Z,,,blank.png,blank.png,blank.png,blank.png,blank.png,blank.png,blank.png,"[""chocolate_truffle.png""]",blank.png,blank.png,blank.png,blank.png,blank.png,,,,,,,,,,,,,,,,,,,,,,,,,,,,,"[""chocolate_truffle.png""]","[""cherry.png""]",PB18.png,,,,,,,,,,,0,6,"[""cherry.png""]","[""cherry.png""]","[""cherry.png""]","[""cherry.png""]","[""cherry.png""]","[""cherry.png""]",blank.png,PB18.png,PB07.png,"[""cherry.png""]","[""cherry.png""]","[""cherry.png""]","[""cherry.png""]","[""cherry.png""]","[""cherry.png""]","[""cherry.png""]",blank.png,blank.png,blank.png,blank.png,blank.png,1,"[""chocolate_truffle.png""]",blank.png,blank.png,blank.png,1,"[""cherry.png""]",blank.png,blank.png,blank.png,blank.png,blank.png,PB07.png,,,,,,,,,,,1,,,,,,,,,,,,,799.2719999999972,,timeout,,,,,,,,,,,,,4,,,,,,,,,,,,,,,,,,,,,,,,,,,,,,,,,,,,,,,,,,,,,,,,,,,,,,,,,"[""cherry.png""]","[""chocolate_truffle.png""]",,,,2,,,false,,1,,,,,,,492205.09999999194,492204.616,491422.242,491718.0449999869,491721.283,492520.555,,,,
choice,canvas.Screen,2_4_2_6_1_0_1_0_0_2_2,2021-05-24T16:18:19.884Z,,,blank.png,blank.png,blank.png,blank.png,blank.png,blank.png,blank.png,"[""chocolate_truffle.png""]",blank.png,blank.png,blank.png,blank.png,blank.png,,,,,,,,,,,,,,,,,,,,,,,,,,,,,"[""chocolate_truffle.png""]","[""cherry.png""]",PB18.png,,,,,,,,,,,0,6,"[""cherry.png""]","[""cherry.png""]","[""cherry.png""]","[""cherry.png""]","[""cherry.png""]","[""cherry.png""]",blank.png,PB18.png,PB07.png,"[""cherry.png""]","[""cherry.png""]","[""cherry.png""]","[""cherry.png""]","[""cherry.png""]","[""cherry.png""]","[""cherry.png""]",blank.png,blank.png,blank.png,blank.png,blank.png,1,"[""chocolate_truffle.png""]",blank.png,blank.png,blank.png,1,"[""cherry.png""]",blank.png,blank.png,blank.png,blank.png,blank.png,PB07.png,,,,,,,,,,,1,,,,,,,,,,,,,215.1990000011283,,response,,,,,,,,,,,,,4,,,,,,,,,,,,,,,,,,,,,,,,,,,,,,,,,,,,,,,,,,,,,,,,,,,,,,,,,"[""cherry.png""]","[""chocolate_truffle.png""]",,,,2,right,keydown(ArrowRight),false,,1,,,,,,,492540.0499999814,492419.8150000011,492204.616,492514.36999998987,,492853.511,,10,,
