sender,sender_type,sender_id,timestamp,meta,,Blank,DownLeft1,DownLeft2,DownLeft3,DownLeft4,DownLeft5,DownLeft6,DownRight1,DownRight2,DownRight3,DownRight4,DownRight5,DownRight6,FoodHabits_Fru_item1,FoodHabits_Fru_item2,FoodHabits_Fru_item3,FoodHabits_Fru_item4,FoodHabits_Fru_item5,FoodHabits_Fru_item6,FoodHabits_Fru_item7,FoodHabits_Meat_item1,FoodHabits_Meat_item2,FoodHabits_Meat_item3,FoodHabits_Meat_item4,FoodHabits_Meat_item5,FoodHabits_Meat_item6,FoodHabits_Meat_item7,FoodHabits_Swe_item1,FoodHabits_Swe_item2,FoodHabits_Swe_item3,FoodHabits_Swe_item4,FoodHabits_Swe_item5,FoodHabits_Swe_item6,FoodHabits_Swe_item7,FoodHabits_Veg_item1,FoodHabits_Veg_item2,FoodHabits_Veg_item3,FoodHabits_Veg_item4,FoodHabits_Veg_item5,FoodHabits_Veg_item6,FoodHabits_Veg_item7,ImgA,ImgB,LeftBar,PSS_item01,PSS_item02,PSS_item03,PSS_item04,PSS_item05,PSS_item06,PSS_item07,PSS_item08,PSS_item09,PSS_item10,RefA,RefB,RefB1,RefB2,RefB3,RefB4,RefB5,RefB6,RefB7,Ref_PB,RightBar,UpLeft1,UpLeft2,UpLeft3,UpLeft4,UpLeft5,UpLeft6,UpRight1,UpRight2,UpRight3,UpRight4,UpRight5,UpRight6,VarA,VarA1,VarA2,VarA3,VarA4,VarB,VarB1,VarB2,VarB3,VarB4,VarB5,VarB6,Var_PB,attCheck_fileA,attCheck_fileB,attCheck_fileC,attCheck_fileD,attCheck_options,attCheck_valueA,attCheck_valueB,attCheck_valueC,attCheck_valueD,attention_check,block,break1,browser_name,choseL,choseR,consent_form1,consent_form2,consentconfirmation_form1,consentconfirmation_form2,correct,correctResponse,diet,disorder,duration,edu,ended_on,enjoy,full_version,gender,group,hunger,img,imgTask,input_age,input_meal,input_occ,input_remark,lateRespFeed,list,major_version,message,mixQ_item1,mixQ_item2,mixQ_item3,mixQ_item4,mixQ_item5,name,navigator_appName,navigator_userAgent,os,pracQ1_IDa,pracQ1_IDb,pracQ1_IDc,pracQ1_IDd,pracQ1_optionA,pracQ1_optionB,pracQ1_optionC,pracQ1_optionD,pracQ1_valueA,pracQ1_valueB,pracQ1_valueC,pracQ1_valueD,pracQ2_IDa,pracQ2_IDb,pracQ2_IDc,pracQ2_optionA,pracQ2_optionB,pracQ2_optionC,pracQ2_valueA,pracQ2_valueB,pracQ2_valueC,pracQ4_IDa,pracQ4_IDb,pracQ4_IDc,pracQ4_IDd,pracQ4_optionA,pracQ4_optionB,pracQ4_optionC,pracQ4_optionD,pracQ4_valueA,pracQ4_valueB,pracQ4_valueC,pracQ4_valueD,pracQ5_IDa,pracQ5_IDb,pracQ5_IDc,pracQ5_IDd,pracQ5_optionA,pracQ5_optionB,pracQ5_optionC,pracQ5_optionD,pracQ5_valueA,pracQ5_valueB,pracQ5_valueC,pracQ5_valueD,prefHealty,prefUnhealthy,prolific_ID,psessionID,pstudyID,rep,response,response_action,skip,snack,sublock,subtitle,task_difficulty,task_engagement,task_focus,textL,textR,time_commit,time_end,time_render,time_run,time_show,time_switch,trial_count,trial_countO,url,valence
Title,html.Page,0,2021-05-24T16:11:11.460Z,"{""labjs_version"":""20.2.2"",""labjs_build"":{""flavor"":""production"",""commit"":""a25486e0c714a0ae2ce03ff94b7bb6896854dcfa""},""location"":""https://run.pavlovia.org/E3lab/rebund/html/?PROLIFIC_PID=5fb68547472faa034d5ac0b0&STUDY_ID=60008f34cd719d13b0d706dd&SESSION_ID=60abd013d9574ff6b37457eb"",""userAgent"":""Mozilla/5.0 (Windows NT 10.0; Win64; x64) AppleWebKit/537.36 (KHTML, like Gecko) Chrome/90.0.4430.212 Safari/537.36"",""platform"":""Win32"",""language"":""it-IT"",""locale"":""it"",""timeZone"":""Europe/Rome"",""timezoneOffset"":-120,""screen_width"":1920,""screen_height"":1080,""scroll_width"":1920,""scroll_height"":889,""window_innerWidth"":1920,""window_innerHeight"":937,""devicePixelRatio"":1}",,,,,,,,,,,,,,,,,,,,,,,,,,,,,,,,,,,,,,,,,,,,,,,,,,,,,,,,,,,,,,,,,,,,,,,,,,,,,,,,,,,,,,,,,,,,,,,,,,,,,,,,,,,,,,,,,,,5757.625999954849,,form submission,,,,,,,,,,,,,,,,,,,,,,,,,,,,,,,,,,,,,,,,,,,,,,,,,,,,,,,,,,,,,,,,,,,,,,,,,,,,,,,,,,,,,,,8763.429999933578,8763.01999995485,2988.716,2985.069999936968,3005.394,8777.849,,,"{""PROLIFIC_PID"":""5fb68547472faa034d5ac0b0"",""STUDY_ID"":""60008f34cd719d13b0d706dd"",""SESSION_ID"":""60abd013d9574ff6b37457eb""}",
get_systemInfo,canvas.Screen,1,2021-05-24T16:11:11.475Z,,,,,,,,,,,,,,,,,,,,,,,,,,,,,,,,,,,,,,,,,,,,,,,,,,,,,,,,,,,,,,,,,,,,,,,,,,,,,,,,,,,,,,,,,,,,,,,,,,,,,,,,,Chrome,,,,,,,,,,,1484.8050000000003,,timeout,,90.0.4430.212,,,,,,,,,,,,90,,,,,,,,Netscape,"Mozilla/5.0 (Windows NT 10.0; Win64; x64) AppleWebKit/537.36 (KHTML, like Gecko) Chrome/90.0.4430.212 Safari/537.36",Windows,,,,,,,,,,,,,,,,,,,,,,,,,,,,,,,,,,,,,,,,,,,,,,,,5fb68547472faa034d5ac0b0,,60008f34cd719d13b0d706dd,,,,,,,,,,,,,8778.659999952652,8778.264999971725,8761.16,8764.540000003763,8777.849,10262.654,,,,
ConsentForm,html.Form,2_0,2021-05-24T16:11:55.771Z,,,,,,,,,,,,,,,,,,,,,,,,,,,,,,,,,,,,,,,,,,,,,,,,,,,,,,,,,,,,,,,,,,,,,,,,,,,,,,,,,,,,,,,,,,,,,,,,,,,,,,,,,,,,true,true,,,,,,,42811.485999924225,,form submission,,,,,,,,,,,,,,,,,,,,,,,,,,,,,,,,,,,,,,,,,,,,,,,,,,,,,,,,,,,,,,,,,,,,,,,,,,,,,,,,,,,,,,,53074.430000036955,53074.13999992423,8778.264999971725,10277.19499997329,10262.654,53089.013,,,,
PepTalk,html.Page,2_1,2021-05-24T16:12:02.395Z,,,,,,,,,,,,,,,,,,,,,,,,,,,,,,,,,,,,,,,,,,,,,,,,,,,,,,,,,,,,,,,,,,,,,,,,,,,,,,,,,,,,,,,,,,,,,,,,,,,,,,,,,,,,,,,,,,,,6608.896999988043,,form submission,,,,,,,,,,,,,,,,,,,,,,,,,,,,,,,,,,,,,,,,,,,,,,,,,,,,,,,,,,,,,,,,,,,,,,,,,,,,,,,,,,,,,,,59698.17500002682,59697.90999998804,53072.304,53075.86500002071,53089.013,59712.293,,,,
Demographics,html.Form,2_2,2021-05-24T16:12:14.135Z,,,,,,,,,,,,,,,,,,,,,,,,,,,,,,,,,,,,,,,,,,,,,,,,,,,,,,,,,,,,,,,,,,,,,,,,,,,,,,,,,,,,,,,,,,,,,,,,,,,,,,,,,,,,,,,,,,,,11725.221999997804,2,form submission,,,2,,,,,21,,student,,,,,,,,,,,,,,,,,,,,,,,,,,,,,,,,,,,,,,,,,,,,,,,,,,,,,,,,,,,,,,,,,,,,,,,,,,,,,71437.77499999851,71437.5149999978,59695.629,59698.29500000924,59712.293,71440.753,,,,
InclusionCrit,html.Form,2_3,2021-05-24T16:12:23.491Z,,,,,,,,,,,,,,,,,,,,,,,,,,,,,,,,,,,,,,,,,,,,,,,,,,,,,,,,,,,,,,,,,,,,,,,,,,,,,,,,,,,,,,,,,,,,,,,,,,,,,,,,,,,,,,,,,,1,1,9353.222000036883,,form submission,1,,,,,,,,,,,,,,,,,,,,,,,,,,,,,,,,,,,,,,,,,,,,,,,,,,,,,,,,,,,,,,,,,,,,,,,,,,,,,,,,,,,,,,80794.25999999512,80793.97500003688,71424.077,71437.90499994066,71440.753,80816.844,,,,
Selection,html.Page,2_4_0,2021-05-24T16:12:33.716Z,,,,,,,,,,,,,,,,,,,,,,,,,,,,,,,,,,,,,,,,,,,,,,,,,,,,,,,,,,,,,,,,,,,,,,,,,,,,,,,,,,,,,,,,,,,,,,,,,,,,,,,,,,,,,,,,,,,,10202.165999930861,,form submission,,,,,,,,,,,,,,,,,,,,,,,,,,,,,,,,,,,,,,,,,,,,,,,,,,,,,,,,,,,,,,,,,,,,,,,,,,,,,,,1,,,,,,,,91019.25999997184,91019.00999993086,80800.164,80794.45499996655,80816.844,91027.12,,,,
Load,html.Page,2_4_1,2021-05-24T16:12:33.726Z,,,,,,,,,,,,,,,,,,,,,,,,,,,,,,,,,,,,,,,,,,,,,,,,,,,,,,,,,,,,,,,,,,,,,,,,,,,,,,,,,,,,,,,,,,,,,,,,,,,,,,,,,,,,,,,,,,,,16299.650999999998,,timeout,,,,,,,,,,,,,,,,,,,,,,,,,,,,,,,,,,,,,,,,,,,,,,,,,,,,,,,,,,,,,,,,,,,,,,,,,,,,,,,,,,,,,,,91028.90499995556,91028.56499992777,91010.392,91019.3900000304,91027.12,107326.771,,,,
SequenceSweet,flow.Sequence,2_4_2,2021-05-24T16:12:43.064Z,,,,,,,,,,,,,,,,,,,,,,,,,,,,,,,,,,,,,,,,,,,,,,,,,,,,,,,,,,,,,,,,,,,,,,,,,,,,,,,,,,,,,,,,,,,,,,,,,,,,,,,,,,,,,,,,,,,,NaN,,skipped,,,,,,,,,,,,,,,,,,,,,,,,,,,,,,,,,,,,,,,,,,,,,,,,,,,,,,,,,,,,,,,,,,,,,,,,,,,,,,true,,,,,,,,,100367.25999996997,91028.56499992777,,100366.70000001322,,107326.771,0,0,,
ratings_instructions,html.Screen,2_4_3_0,2021-05-24T16:12:57.652Z,,,,,,,,,,,,,,,,,,,,,,,,,,,,,,,,,,,,,,,,,,,,,,,,,,,,,,,,,,,,,,,,,,,,,,,,,,,,,,,,,,,,,,,,,,,,,,,,,,,,,,,,,,,,,,,,,,,,7627.014000019713,,response,,,,,,,,,,,,,,,,,,,,,,,,,,,,,,,,,,,,,,,,,,,,,,,,,,,,,,,,,,,,,,,,,,,,,,,,,,,,continue,keypress(Space),false,,,,,,,,,114955.98500000779,114953.7850000197,91028.56499992777,107340.8000000054,107326.771,114967.759,0,0,,
fixCross,canvas.Screen,2_4_3_1_0_0,2021-05-24T16:12:58.149Z,,,,,,,,,,,,,,,,,,,,,,,,,,,,,,,,,,,,,,,,,,,,,,,,,,,,,,,,,,,,,,,,,,,,,,,,,,,,,,,,,,,,,,,,,,,,,,,,,,,,,,,,,,,,,,,,,,,,500.5359999999928,,timeout,,,,healthy,,cucumber.png,,,,,,,,,,,,,,,cucumber,,,,,,,,,,,,,,,,,,,,,,,,,,,,,,,,,,,,,,,,,,,,,,,,,,,,,,,,,false,,,,,,,,,115452.19500001986,115451.593,114951.08,114956.55999996234,114967.759,115468.295,,,,
Rating,html.Form,2_4_3_1_0_1,2021-05-24T16:13:08.330Z,,,,,,,,,,,,,,,,,,,,,,,,,,,,,,,,,,,,,,,,,,,,,,,,,,,,,,,,,,,,,,,,,,,,,,,,,,,,,,,,,,,,,,,,,,,,,,,,,,,,,,,,,,,,,,,,,,,,10165.1699999626,,form submission,,,,healthy,,cucumber.png,,,,,,,,,,,,,,,cucumber,,,,,,,,,,,,,,,,,,,,,,,,,,,,,,,,,,,,,,,,,,,,,,,,,,,,,,,,,false,,,,,,,,,125633.70499992743,125633.4649999626,115451.593,115452.36999995541,115468.295,125645.177,,,,42
rating_sequence,flow.Sequence,2_4_3_1_0,2021-05-24T16:13:08.330Z,,,,,,,,,,,,,,,,,,,,,,,,,,,,,,,,,,,,,,,,,,,,,,,,,,,,,,,,,,,,,,,,,,,,,,,,,,,,,,,,,,,,,,,,,,,,,,,,,,,,,,,,,,,,,,,,,,,,10665.705999962593,,completion,,,,healthy,,cucumber.png,,,,,,,,,,,,,,,cucumber,,,,,,,,,,,,,,,,,,,,,,,,,,,,,,,,,,,,,,,,,,,,,,,,,,,,,,,,,false,,,,,,,,,125633.9249999728,125633.4649999626,114951.08,114956.51499996893,114967.759,125645.177,,,,
fixCross,canvas.Screen,2_4_3_1_1_0,2021-05-24T16:13:08.826Z,,,,,,,,,,,,,,,,,,,,,,,,,,,,,,,,,,,,,,,,,,,,,,,,,,,,,,,,,,,,,,,,,,,,,,,,,,,,,,,,,,,,,,,,,,,,,,,,,,,,,,,,,,,,,,,,,,,,500.4800000000105,,timeout,,,,unhealthy,,nacho.png,,,,,,,,,,,,,,,nacho,,,,,,,,,,,,,,,,,,,,,,,,,,,,,,,,,,,,,,,,,,,,,,,,,,,,,,,,,false,,,,,,,,,126129.39999997616,126128.975,125628.476,125634.05999995302,125645.177,126145.657,,,,
Rating,html.Form,2_4_3_1_1_1,2021-05-24T16:13:11.609Z,,,,,,,,,,,,,,,,,,,,,,,,,,,,,,,,,,,,,,,,,,,,,,,,,,,,,,,,,,,,,,,,,,,,,,,,,,,,,,,,,,,,,,,,,,,,,,,,,,,,,,,,,,,,,,,,,,,,2766.3029999394203,,form submission,,,,unhealthy,,nacho.png,,,,,,,,,,,,,,,nacho,,,,,,,,,,,,,,,,,,,,,,,,,,,,,,,,,,,,,,,,,,,,,,,,,,,,,,,,,false,,,,,,,,,128912.20499994233,128911.95999993943,126128.975,126129.56999999005,126145.657,128915.097,,,,63
rating_sequence,flow.Sequence,2_4_3_1_1,2021-05-24T16:13:11.609Z,,,,,,,,,,,,,,,,,,,,,,,,,,,,,,,,,,,,,,,,,,,,,,,,,,,,,,,,,,,,,,,,,,,,,,,,,,,,,,,,,,,,,,,,,,,,,,,,,,,,,,,,,,,,,,,,,,,,3266.7829999394307,,completion,,,,unhealthy,,nacho.png,,,,,,,,,,,,,,,nacho,,,,,,,,,,,,,,,,,,,,,,,,,,,,,,,,,,,,,,,,,,,,,,,,,,,,,,,,,false,,,,,,,,,128912.38500003237,128911.95999993943,125628.476,125634.02500003576,125645.177,128915.097,,,,
fixCross,canvas.Screen,2_4_3_1_2_0,2021-05-24T16:13:12.096Z,,,,,,,,,,,,,,,,,,,,,,,,,,,,,,,,,,,,,,,,,,,,,,,,,,,,,,,,,,,,,,,,,,,,,,,,,,,,,,,,,,,,,,,,,,,,,,,,,,,,,,,,,,,,,,,,,,,,500.52300000000105,,timeout,,,,unhealthy,,chips.png,,,,,,,,,,,,,,,potato chip,,,,,,,,,,,,,,,,,,,,,,,,,,,,,,,,,,,,,,,,,,,,,,,,,,,,,,,,,false,,,,,,,,,129399.38499999698,129398.929,128898.426,128912.50999993645,128915.097,129415.62,,,,
Rating,html.Form,2_4_3_1_2_1,2021-05-24T16:13:14.987Z,,,,,,,,,,,,,,,,,,,,,,,,,,,,,,,,,,,,,,,,,,,,,,,,,,,,,,,,,,,,,,,,,,,,,,,,,,,,,,,,,,,,,,,,,,,,,,,,,,,,,,,,,,,,,,,,,,,,2874.2400000189664,,form submission,,,,unhealthy,,chips.png,,,,,,,,,,,,,,,potato chip,,,,,,,,,,,,,,,,,,,,,,,,,,,,,,,,,,,,,,,,,,,,,,,,,,,,,,,,,false,,,,,,,,,132290.10500002187,132289.86000001896,129398.929,129399.54000001308,129415.62,132301.882,,,,68
rating_sequence,flow.Sequence,2_4_3_1_2,2021-05-24T16:13:14.987Z,,,,,,,,,,,,,,,,,,,,,,,,,,,,,,,,,,,,,,,,,,,,,,,,,,,,,,,,,,,,,,,,,,,,,,,,,,,,,,,,,,,,,,,,,,,,,,,,,,,,,,,,,,,,,,,,,,,,3374.7630000189674,,completion,,,,unhealthy,,chips.png,,,,,,,,,,,,,,,potato chip,,,,,,,,,,,,,,,,,,,,,,,,,,,,,,,,,,,,,,,,,,,,,,,,,,,,,,,,,false,,,,,,,,,132290.29499995522,132289.86000001896,128898.426,128912.47500001919,128915.097,132301.882,,,,
fixCross,canvas.Screen,2_4_3_1_3_0,2021-05-24T16:13:15.482Z,,,,,,,,,,,,,,,,,,,,,,,,,,,,,,,,,,,,,,,,,,,,,,,,,,,,,,,,,,,,,,,,,,,,,,,,,,,,,,,,,,,,,,,,,,,,,,,,,,,,,,,,,,,,,,,,,,,,500.47199999997974,,timeout,,,,unhealthy,,dried_meat.png,,,,,,,,,,,,,,,dried meat,,,,,,,,,,,,,,,,,,,,,,,,,,,,,,,,,,,,,,,,,,,,,,,,,,,,,,,,,false,,,,,,,,,132786.01999999955,132785.666,132285.16,132290.42500001378,132301.882,132802.354,,,,
Rating,html.Form,2_4_3_1_3_1,2021-05-24T16:13:21.513Z,,,,,,,,,,,,,,,,,,,,,,,,,,,,,,,,,,,,,,,,,,,,,,,,,,,,,,,,,,,,,,,,,,,,,,,,,,,,,,,,,,,,,,,,,,,,,,,,,,,,,,,,,,,,,,,,,,,,6013.860999998928,,form submission,,,,unhealthy,,dried_meat.png,,,,,,,,,,,,,,,dried meat,,,,,,,,,,,,,,,,,,,,,,,,,,,,,,,,,,,,,,,,,,,,,,,,,,,,,,,,,false,,,,,,,,,138816.46999996156,138816.21499999892,132785.666,132786.13999998197,132802.354,138825.064,,,,79
rating_sequence,flow.Sequence,2_4_3_1_3,2021-05-24T16:13:21.513Z,,,,,,,,,,,,,,,,,,,,,,,,,,,,,,,,,,,,,,,,,,,,,,,,,,,,,,,,,,,,,,,,,,,,,,,,,,,,,,,,,,,,,,,,,,,,,,,,,,,,,,,,,,,,,,,,,,,,6514.332999998907,,completion,,,,unhealthy,,dried_meat.png,,,,,,,,,,,,,,,dried meat,,,,,,,,,,,,,,,,,,,,,,,,,,,,,,,,,,,,,,,,,,,,,,,,,,,,,,,,,false,,,,,,,,,138816.67999993078,138816.21499999892,132285.16,132290.3899999801,132301.882,138825.064,,,,
fixCross,canvas.Screen,2_4_3_1_4_0,2021-05-24T16:13:22.007Z,,,,,,,,,,,,,,,,,,,,,,,,,,,,,,,,,,,,,,,,,,,,,,,,,,,,,,,,,,,,,,,,,,,,,,,,,,,,,,,,,,,,,,,,,,,,,,,,,,,,,,,,,,,,,,,,,,,,500.4779999999737,,timeout,,,,unhealthy,,bretzel.png,,,,,,,,,,,,,,,bretzel,,,,,,,,,,,,,,,,,,,,,,,,,,,,,,,,,,,,,,,,,,,,,,,,,,,,,,,,,false,,,,,,,,,139310.59999996796,139308.861,138808.377,138816.80499995127,138825.064,139325.542,,,,
Rating,html.Form,2_4_3_1_4_1,2021-05-24T16:13:24.632Z,,,,,,,,,,,,,,,,,,,,,,,,,,,,,,,,,,,,,,,,,,,,,,,,,,,,,,,,,,,,,,,,,,,,,,,,,,,,,,,,,,,,,,,,,,,,,,,,,,,,,,,,,,,,,,,,,,,,2609.492999973154,,form submission,,,,unhealthy,,bretzel.png,,,,,,,,,,,,,,,bretzel,,,,,,,,,,,,,,,,,,,,,,,,,,,,,,,,,,,,,,,,,,,,,,,,,,,,,,,,,false,,,,,,,,,141935.27999997605,141935.03499997314,139308.861,139310.73000002652,139325.542,141944.874,,,,57
rating_sequence,flow.Sequence,2_4_3_1_4,2021-05-24T16:13:24.632Z,,,,,,,,,,,,,,,,,,,,,,,,,,,,,,,,,,,,,,,,,,,,,,,,,,,,,,,,,,,,,,,,,,,,,,,,,,,,,,,,,,,,,,,,,,,,,,,,,,,,,,,,,,,,,,,,,,,,3109.9709999731276,,completion,,,,unhealthy,,bretzel.png,,,,,,,,,,,,,,,bretzel,,,,,,,,,,,,,,,,,,,,,,,,,,,,,,,,,,,,,,,,,,,,,,,,,,,,,,,,,false,,,,,,,,,141935.47000002582,141935.03499997314,138808.377,138816.770000034,138825.064,141944.874,,,,
fixCross,canvas.Screen,2_4_3_1_5_0,2021-05-24T16:13:25.126Z,,,,,,,,,,,,,,,,,,,,,,,,,,,,,,,,,,,,,,,,,,,,,,,,,,,,,,,,,,,,,,,,,,,,,,,,,,,,,,,,,,,,,,,,,,,,,,,,,,,,,,,,,,,,,,,,,,,,500.47099999999045,,timeout,,,,healthy,,pickle.png,,,,,,,,,,,,,,,pickle,,,,,,,,,,,,,,,,,,,,,,,,,,,,,,,,,,,,,,,,,,,,,,,,,,,,,,,,,false,,,,,,,,,142429.18500001542,142428.66,141928.178,141935.59999996796,141944.874,142445.345,,,,
Rating,html.Form,2_4_3_1_5_1,2021-05-24T16:13:29.632Z,,,,,,,,,,,,,,,,,,,,,,,,,,,,,,,,,,,,,,,,,,,,,,,,,,,,,,,,,,,,,,,,,,,,,,,,,,,,,,,,,,,,,,,,,,,,,,,,,,,,,,,,,,,,,,,,,,,,4489.584999988525,,form submission,,,,healthy,,pickle.png,,,,,,,,,,,,,,,pickle,,,,,,,,,,,,,,,,,,,,,,,,,,,,,,,,,,,,,,,,,,,,,,,,,,,,,,,,,false,,,,,,,,,146935.16999995336,146934.92999998853,142428.66,142429.32999995537,142445.345,146949.897,,,,23
rating_sequence,flow.Sequence,2_4_3_1_5,2021-05-24T16:13:29.632Z,,,,,,,,,,,,,,,,,,,,,,,,,,,,,,,,,,,,,,,,,,,,,,,,,,,,,,,,,,,,,,,,,,,,,,,,,,,,,,,,,,,,,,,,,,,,,,,,,,,,,,,,,,,,,,,,,,,,4990.055999988515,,completion,,,,healthy,,pickle.png,,,,,,,,,,,,,,,pickle,,,,,,,,,,,,,,,,,,,,,,,,,,,,,,,,,,,,,,,,,,,,,,,,,,,,,,,,,false,,,,,,,,,146935.34500000533,146934.92999998853,141928.178,141935.5649999343,141944.874,146949.897,,,,
fixCross,canvas.Screen,2_4_3_1_6_0,2021-05-24T16:13:30.131Z,,,,,,,,,,,,,,,,,,,,,,,,,,,,,,,,,,,,,,,,,,,,,,,,,,,,,,,,,,,,,,,,,,,,,,,,,,,,,,,,,,,,,,,,,,,,,,,,,,,,,,,,,,,,,,,,,,,,500.50400000001537,,timeout,,,,healthy,,tomato.png,,,,,,,,,,,,,,,cherry tomato,,,,,,,,,,,,,,,,,,,,,,,,,,,,,,,,,,,,,,,,,,,,,,,,,,,,,,,,,false,,,,,,,,,147434.1349999886,147433.701,146933.202,146935.46499998774,146949.897,147450.401,,,,
Rating,html.Form,2_4_3_1_6_1,2021-05-24T16:13:32.827Z,,,,,,,,,,,,,,,,,,,,,,,,,,,,,,,,,,,,,,,,,,,,,,,,,,,,,,,,,,,,,,,,,,,,,,,,,,,,,,,,,,,,,,,,,,,,,,,,,,,,,,,,,,,,,,,,,,,,2679.614000002446,,form submission,,,,healthy,,tomato.png,,,,,,,,,,,,,,,cherry tomato,,,,,,,,,,,,,,,,,,,,,,,,,,,,,,,,,,,,,,,,,,,,,,,,,,,,,,,,,false,,,,,,,,,150130.27500000317,150130.01500000246,147433.701,147434.27999992855,147450.401,150136.399,,,,80
rating_sequence,flow.Sequence,2_4_3_1_6,2021-05-24T16:13:32.827Z,,,,,,,,,,,,,,,,,,,,,,,,,,,,,,,,,,,,,,,,,,,,,,,,,,,,,,,,,,,,,,,,,,,,,,,,,,,,,,,,,,,,,,,,,,,,,,,,,,,,,,,,,,,,,,,,,,,,3180.1180000024615,,completion,,,,healthy,,tomato.png,,,,,,,,,,,,,,,cherry tomato,,,,,,,,,,,,,,,,,,,,,,,,,,,,,,,,,,,,,,,,,,,,,,,,,,,,,,,,,false,,,,,,,,,150130.4849999724,150130.01500000246,146933.202,146935.42999995407,146949.897,150136.399,,,,
fixCross,canvas.Screen,2_4_3_1_7_0,2021-05-24T16:13:33.318Z,,,,,,,,,,,,,,,,,,,,,,,,,,,,,,,,,,,,,,,,,,,,,,,,,,,,,,,,,,,,,,,,,,,,,,,,,,,,,,,,,,,,,,,,,,,,,,,,,,,,,,,,,,,,,,,,,,,,500.53899999998976,,timeout,,,,unhealthy,,frie.png,,,,,,,,,,,,,,,frie,,,,,,,,,,,,,,,,,,,,,,,,,,,,,,,,,,,,,,,,,,,,,,,,,,,,,,,,,false,,,,,,,,,150621.4799999725,150620.22,150119.727,150130.61500003096,150136.399,150636.938,,,,
Rating,html.Form,2_4_3_1_7_1,2021-05-24T16:13:35.601Z,,,,,,,,,,,,,,,,,,,,,,,,,,,,,,,,,,,,,,,,,,,,,,,,,,,,,,,,,,,,,,,,,,,,,,,,,,,,,,,,,,,,,,,,,,,,,,,,,,,,,,,,,,,,,,,,,,,,2267.1570000053325,,form submission,,,,unhealthy,,frie.png,,,,,,,,,,,,,,,frie,,,,,,,,,,,,,,,,,,,,,,,,,,,,,,,,,,,,,,,,,,,,,,,,,,,,,,,,,false,,,,,,,,,152904.31000001263,152904.09500000533,150620.22,150621.65500002448,150636.938,152905.862,,,,67
rating_sequence,flow.Sequence,2_4_3_1_7,2021-05-24T16:13:35.601Z,,,,,,,,,,,,,,,,,,,,,,,,,,,,,,,,,,,,,,,,,,,,,,,,,,,,,,,,,,,,,,,,,,,,,,,,,,,,,,,,,,,,,,,,,,,,,,,,,,,,,,,,,,,,,,,,,,,,2767.6960000053223,,completion,,,,unhealthy,,frie.png,,,,,,,,,,,,,,,frie,,,,,,,,,,,,,,,,,,,,,,,,,,,,,,,,,,,,,,,,,,,,,,,,,,,,,,,,,false,,,,,,,,,152904.49500002433,152904.09500000533,150119.727,150130.57999999728,150136.399,152905.862,,,,
fixCross,canvas.Screen,2_4_3_1_8_0,2021-05-24T16:13:36.087Z,,,,,,,,,,,,,,,,,,,,,,,,,,,,,,,,,,,,,,,,,,,,,,,,,,,,,,,,,,,,,,,,,,,,,,,,,,,,,,,,,,,,,,,,,,,,,,,,,,,,,,,,,,,,,,,,,,,,500.5210000000079,,timeout,,,,unhealthy,,ham.png,,,,,,,,,,,,,,,ham,,,,,,,,,,,,,,,,,,,,,,,,,,,,,,,,,,,,,,,,,,,,,,,,,,,,,,,,,false,,,,,,,,,153390.1199999964,153389.679,152889.181,152904.61500000674,152905.862,153406.383,,,,
Rating,html.Form,2_4_3_1_8_1,2021-05-24T16:13:39.278Z,,,,,,,,,,,,,,,,,,,,,,,,,,,,,,,,,,,,,,,,,,,,,,,,,,,,,,,,,,,,,,,,,,,,,,,,,,,,,,,,,,,,,,,,,,,,,,,,,,,,,,,,,,,,,,,,,,,,3174.6170000055863,,form submission,,,,unhealthy,,ham.png,,,,,,,,,,,,,,,ham,,,,,,,,,,,,,,,,,,,,,,,,,,,,,,,,,,,,,,,,,,,,,,,,,,,,,,,,,false,,,,,,,,,156581.23499993235,156581.0000000056,153389.679,153390.2549999766,153406.383,156592.916,,,,63
rating_sequence,flow.Sequence,2_4_3_1_8,2021-05-24T16:13:39.278Z,,,,,,,,,,,,,,,,,,,,,,,,,,,,,,,,,,,,,,,,,,,,,,,,,,,,,,,,,,,,,,,,,,,,,,,,,,,,,,,,,,,,,,,,,,,,,,,,,,,,,,,,,,,,,,,,,,,,3675.138000005594,,completion,,,,unhealthy,,ham.png,,,,,,,,,,,,,,,ham,,,,,,,,,,,,,,,,,,,,,,,,,,,,,,,,,,,,,,,,,,,,,,,,,,,,,,,,,false,,,,,,,,,156581.40499994624,156581.0000000056,152889.181,152904.574999935,152905.862,156592.916,,,,
fixCross,canvas.Screen,2_4_3_1_9_0,2021-05-24T16:13:39.774Z,,,,,,,,,,,,,,,,,,,,,,,,,,,,,,,,,,,,,,,,,,,,,,,,,,,,,,,,,,,,,,,,,,,,,,,,,,,,,,,,,,,,,,,,,,,,,,,,,,,,,,,,,,,,,,,,,,,,500.49600000001374,,timeout,,,,healthy,,celery.png,,,,,,,,,,,,,,,celery,,,,,,,,,,,,,,,,,,,,,,,,,,,,,,,,,,,,,,,,,,,,,,,,,,,,,,,,,false,,,,,,,,,157077.12999999058,157076.713,156576.21,156581.520000007,156592.916,157093.412,,,,
Rating,html.Form,2_4_3_1_9_1,2021-05-24T16:13:44.254Z,,,,,,,,,,,,,,,,,,,,,,,,,,,,,,,,,,,,,,,,,,,,,,,,,,,,,,,,,,,,,,,,,,,,,,,,,,,,,,,,,,,,,,,,,,,,,,,,,,,,,,,,,,,,,,,,,,,,4463.633000023197,,form submission,,,,healthy,,celery.png,,,,,,,,,,,,,,,celery,,,,,,,,,,,,,,,,,,,,,,,,,,,,,,,,,,,,,,,,,,,,,,,,,,,,,,,,,false,,,,,,,,,161557.27999994997,161557.0450000232,157076.713,157077.27000000887,157093.412,161564.556,,,,24
rating_sequence,flow.Sequence,2_4_3_1_9,2021-05-24T16:13:44.254Z,,,,,,,,,,,,,,,,,,,,,,,,,,,,,,,,,,,,,,,,,,,,,,,,,,,,,,,,,,,,,,,,,,,,,,,,,,,,,,,,,,,,,,,,,,,,,,,,,,,,,,,,,,,,,,,,,,,,4964.129000023211,,completion,,,,healthy,,celery.png,,,,,,,,,,,,,,,celery,,,,,,,,,,,,,,,,,,,,,,,,,,,,,,,,,,,,,,,,,,,,,,,,,,,,,,,,,false,,,,,,,,,161557.44999996386,161557.0450000232,156576.21,156581.48499997333,156592.916,161564.556,,,,
fixCross,canvas.Screen,2_4_3_1_10_0,2021-05-24T16:13:44.745Z,,,,,,,,,,,,,,,,,,,,,,,,,,,,,,,,,,,,,,,,,,,,,,,,,,,,,,,,,,,,,,,,,,,,,,,,,,,,,,,,,,,,,,,,,,,,,,,,,,,,,,,,,,,,,,,,,,,,500.5019999999786,,timeout,,,,healthy,,cashew.png,,,,,,,,,,,,,,,cashew,,,,,,,,,,,,,,,,,,,,,,,,,,,,,,,,,,,,,,,,,,,,,,,,,,,,,,,,,false,,,,,,,,,162048.82000002544,162048.37,161547.872,161557.55499994848,161564.556,162065.058,,,,
Rating,html.Form,2_4_3_1_10_1,2021-05-24T16:14:04.528Z,,,,,,,,,,,,,,,,,,,,,,,,,,,,,,,,,,,,,,,,,,,,,,,,,,,,,,,,,,,,,,,,,,,,,,,,,,,,,,,,,,,,,,,,,,,,,,,,,,,,,,,,,,,,,,,,,,,,19766.00700003488,,form submission,,,,healthy,,cashew.png,,,,,,,,,,,,,,,cashew,,,,,,,,,,,,,,,,,,,,,,,,,,,,,,,,,,,,,,,,,,,,,,,,,,,,,,,,,false,,,,,,,,,181831.3049999997,181831.06500003487,162048.37,162048.9499999676,162065.058,181851.582,,,,45
rating_sequence,flow.Sequence,2_4_3_1_10,2021-05-24T16:14:04.528Z,,,,,,,,,,,,,,,,,,,,,,,,,,,,,,,,,,,,,,,,,,,,,,,,,,,,,,,,,,,,,,,,,,,,,,,,,,,,,,,,,,,,,,,,,,,,,,,,,,,,,,,,,,,,,,,,,,,,20266.509000034857,,completion,,,,healthy,,cashew.png,,,,,,,,,,,,,,,cashew,,,,,,,,,,,,,,,,,,,,,,,,,,,,,,,,,,,,,,,,,,,,,,,,,,,,,,,,,false,,,,,,,,,181831.49999997113,181831.06500003487,161547.872,161557.52499995288,161564.556,181851.582,,,,
fixCross,canvas.Screen,2_4_3_1_11_0,2021-05-24T16:14:05.032Z,,,,,,,,,,,,,,,,,,,,,,,,,,,,,,,,,,,,,,,,,,,,,,,,,,,,,,,,,,,,,,,,,,,,,,,,,,,,,,,,,,,,,,,,,,,,,,,,,,,,,,,,,,,,,,,,,,,,500.51800000001094,,timeout,,,,unhealthy,,peanut_cracker.png,,,,,,,,,,,,,,,peanut chip,,,,,,,,,,,,,,,,,,,,,,,,,,,,,,,,,,,,,,,,,,,,,,,,,,,,,,,,,false,,,,,,,,,182335.82000003662,182335.406,181834.917,181831.62499999162,181851.582,182352.1,,,,
Rating,html.Form,2_4_3_1_11_1,2021-05-24T16:14:08.132Z,,,,,,,,,,,,,,,,,,,,,,,,,,,,,,,,,,,,,,,,,,,,,,,,,,,,,,,,,,,,,,,,,,,,,,,,,,,,,,,,,,,,,,,,,,,,,,,,,,,,,,,,,,,,,,,,,,,,3082.934999973135,,form submission,,,,unhealthy,,peanut_cracker.png,,,,,,,,,,,,,,,peanut chip,,,,,,,,,,,,,,,,,,,,,,,,,,,,,,,,,,,,,,,,,,,,,,,,,,,,,,,,,false,,,,,,,,,185435.27499993797,185435.03499997314,182335.406,182335.95500001684,182352.1,185438.507,,,,63
rating_sequence,flow.Sequence,2_4_3_1_11,2021-05-24T16:14:08.132Z,,,,,,,,,,,,,,,,,,,,,,,,,,,,,,,,,,,,,,,,,,,,,,,,,,,,,,,,,,,,,,,,,,,,,,,,,,,,,,,,,,,,,,,,,,,,,,,,,,,,,,,,,,,,,,,,,,,,3583.452999973146,,completion,,,,unhealthy,,peanut_cracker.png,,,,,,,,,,,,,,,peanut chip,,,,,,,,,,,,,,,,,,,,,,,,,,,,,,,,,,,,,,,,,,,,,,,,,,,,,,,,,false,,,,,,,,,185435.44999998994,185435.03499997314,181834.917,181831.58500003628,181851.582,185438.507,,,,
fixCross,canvas.Screen,2_4_3_1_12_0,2021-05-24T16:14:08.619Z,,,,,,,,,,,,,,,,,,,,,,,,,,,,,,,,,,,,,,,,,,,,,,,,,,,,,,,,,,,,,,,,,,,,,,,,,,,,,,,,,,,,,,,,,,,,,,,,,,,,,,,,,,,,,,,,,,,,500.5570000000007,,timeout,,,,healthy,,walnut.png,,,,,,,,,,,,,,,walnut,,,,,,,,,,,,,,,,,,,,,,,,,,,,,,,,,,,,,,,,,,,,,,,,,,,,,,,,,false,,,,,,,,,185922.76999994647,185922.35,185421.836,185435.55499997456,185438.507,185939.064,,,,
Rating,html.Form,2_4_3_1_12_1,2021-05-24T16:14:11.072Z,,,,,,,,,,,,,,,,,,,,,,,,,,,,,,,,,,,,,,,,,,,,,,,,,,,,,,,,,,,,,,,,,,,,,,,,,,,,,,,,,,,,,,,,,,,,,,,,,,,,,,,,,,,,,,,,,,,,2436.050999944331,,form submission,,,,healthy,,walnut.png,,,,,,,,,,,,,,,walnut,,,,,,,,,,,,,,,,,,,,,,,,,,,,,,,,,,,,,,,,,,,,,,,,,,,,,,,,,false,,,,,,,,,188375.35999994725,188375.11499994434,185922.35,185922.89499996696,185939.064,188399.072,,,,85
rating_sequence,flow.Sequence,2_4_3_1_12,2021-05-24T16:14:11.072Z,,,,,,,,,,,,,,,,,,,,,,,,,,,,,,,,,,,,,,,,,,,,,,,,,,,,,,,,,,,,,,,,,,,,,,,,,,,,,,,,,,,,,,,,,,,,,,,,,,,,,,,,,,,,,,,,,,,,2936.607999944332,,completion,,,,healthy,,walnut.png,,,,,,,,,,,,,,,walnut,,,,,,,,,,,,,,,,,,,,,,,,,,,,,,,,,,,,,,,,,,,,,,,,,,,,,,,,,false,,,,,,,,,188375.55999995675,188375.11499994434,185421.836,185435.53000001702,185438.507,188399.072,,,,
fixCross,canvas.Screen,2_4_3_1_13_0,2021-05-24T16:14:11.572Z,,,,,,,,,,,,,,,,,,,,,,,,,,,,,,,,,,,,,,,,,,,,,,,,,,,,,,,,,,,,,,,,,,,,,,,,,,,,,,,,,,,,,,,,,,,,,,,,,,,,,,,,,,,,,,,,,,,,492.9560000000056,,timeout,,,,unhealthy,,sausage.png,,,,,,,,,,,,,,,salami,,,,,,,,,,,,,,,,,,,,,,,,,,,,,,,,,,,,,,,,,,,,,,,,,,,,,,,,,false,,,,,,,,,188875.6600000197,188875.302,188358.121,188375.67999993917,188399.072,188892.028,,,,
Rating,html.Form,2_4_3_1_13_1,2021-05-24T16:14:13.983Z,,,,,,,,,,,,,,,,,,,,,,,,,,,,,,,,,,,,,,,,,,,,,,,,,,,,,,,,,,,,,,,,,,,,,,,,,,,,,,,,,,,,,,,,,,,,,,,,,,,,,,,,,,,,,,,,,,,,2394.0469999526977,,form submission,,,,unhealthy,,sausage.png,,,,,,,,,,,,,,,salami,,,,,,,,,,,,,,,,,,,,,,,,,,,,,,,,,,,,,,,,,,,,,,,,,,,,,,,,,false,,,,,,,,,191286.33000003174,191286.0749999527,188875.302,188875.78999996185,188892.028,191294.393,,,,47
rating_sequence,flow.Sequence,2_4_3_1_13,2021-05-24T16:14:13.983Z,,,,,,,,,,,,,,,,,,,,,,,,,,,,,,,,,,,,,,,,,,,,,,,,,,,,,,,,,,,,,,,,,,,,,,,,,,,,,,,,,,,,,,,,,,,,,,,,,,,,,,,,,,,,,,,,,,,,2887.0029999527032,,completion,,,,unhealthy,,sausage.png,,,,,,,,,,,,,,,salami,,,,,,,,,,,,,,,,,,,,,,,,,,,,,,,,,,,,,,,,,,,,,,,,,,,,,,,,,false,,,,,,,,,191286.52500000317,191286.0749999527,188358.121,188375.6450000219,188399.072,191294.393,,,,
fixCross,canvas.Screen,2_4_3_1_14_0,2021-05-24T16:14:14.475Z,,,,,,,,,,,,,,,,,,,,,,,,,,,,,,,,,,,,,,,,,,,,,,,,,,,,,,,,,,,,,,,,,,,,,,,,,,,,,,,,,,,,,,,,,,,,,,,,,,,,,,,,,,,,,,,,,,,,500.5109999999986,,timeout,,,,healthy,,carrot.png,,,,,,,,,,,,,,,carrot,,,,,,,,,,,,,,,,,,,,,,,,,,,,,,,,,,,,,,,,,,,,,,,,,,,,,,,,,false,,,,,,,,,191778.5900000017,191778.217,191277.716,191286.64499998558,191294.393,191794.904,,,,
Rating,html.Form,2_4_3_1_14_1,2021-05-24T16:14:16.992Z,,,,,,,,,,,,,,,,,,,,,,,,,,,,,,,,,,,,,,,,,,,,,,,,,,,,,,,,,,,,,,,,,,,,,,,,,,,,,,,,,,,,,,,,,,,,,,,,,,,,,,,,,,,,,,,,,,,,2500.360999964265,,form submission,,,,healthy,,carrot.png,,,,,,,,,,,,,,,carrot,,,,,,,,,,,,,,,,,,,,,,,,,,,,,,,,,,,,,,,,,,,,,,,,,,,,,,,,,false,,,,,,,,,194295.4749999335,194295.26499996427,191778.217,191778.71999994386,191794.904,194297.419,,,,67
rating_sequence,flow.Sequence,2_4_3_1_14,2021-05-24T16:14:16.992Z,,,,,,,,,,,,,,,,,,,,,,,,,,,,,,,,,,,,,,,,,,,,,,,,,,,,,,,,,,,,,,,,,,,,,,,,,,,,,,,,,,,,,,,,,,,,,,,,,,,,,,,,,,,,,,,,,,,,3000.8719999642635,,completion,,,,healthy,,carrot.png,,,,,,,,,,,,,,,carrot,,,,,,,,,,,,,,,,,,,,,,,,,,,,,,,,,,,,,,,,,,,,,,,,,,,,,,,,,false,,,,,,,,,194295.6599999452,194295.26499996427,191277.716,191286.6099999519,191294.393,194297.419,,,,
fixCross,canvas.Screen,2_4_3_1_15_0,2021-05-24T16:14:17.478Z,,,,,,,,,,,,,,,,,,,,,,,,,,,,,,,,,,,,,,,,,,,,,,,,,,,,,,,,,,,,,,,,,,,,,,,,,,,,,,,,,,,,,,,,,,,,,,,,,,,,,,,,,,,,,,,,,,,,500.53800000000047,,timeout,,,,unhealthy,,ritz.png,,,,,,,,,,,,,,,cracker,,,,,,,,,,,,,,,,,,,,,,,,,,,,,,,,,,,,,,,,,,,,,,,,,,,,,,,,,false,,,,,,,,,194781.61499998532,194781.228,194280.73,194295.77999992762,194297.419,194797.957,,,,
Rating,html.Form,2_4_3_1_15_1,2021-05-24T16:14:19.864Z,,,,,,,,,,,,,,,,,,,,,,,,,,,,,,,,,,,,,,,,,,,,,,,,,,,,,,,,,,,,,,,,,,,,,,,,,,,,,,,,,,,,,,,,,,,,,,,,,,,,,,,,,,,,,,,,,,,,2369.3030000165454,,form submission,,,,unhealthy,,ritz.png,,,,,,,,,,,,,,,cracker,,,,,,,,,,,,,,,,,,,,,,,,,,,,,,,,,,,,,,,,,,,,,,,,,,,,,,,,,false,,,,,,,,,197167.4949999433,197167.26000001654,194781.228,194781.77499992307,194797.957,197188.098,,,,60
rating_sequence,flow.Sequence,2_4_3_1_15,2021-05-24T16:14:19.864Z,,,,,,,,,,,,,,,,,,,,,,,,,,,,,,,,,,,,,,,,,,,,,,,,,,,,,,,,,,,,,,,,,,,,,,,,,,,,,,,,,,,,,,,,,,,,,,,,,,,,,,,,,,,,,,,,,,,,2869.841000016546,,completion,,,,unhealthy,,ritz.png,,,,,,,,,,,,,,,cracker,,,,,,,,,,,,,,,,,,,,,,,,,,,,,,,,,,,,,,,,,,,,,,,,,,,,,,,,,false,,,,,,,,,197167.6649999572,197167.26000001654,194280.73,194295.74500001036,194297.419,197188.098,,,,
fixCross,canvas.Screen,2_4_3_1_16_0,2021-05-24T16:14:20.365Z,,,,,,,,,,,,,,,,,,,,,,,,,,,,,,,,,,,,,,,,,,,,,,,,,,,,,,,,,,,,,,,,,,,,,,,,,,,,,,,,,,,,,,,,,,,,,,,,,,,,,,,,,,,,,,,,,,,,496.0560000000114,,timeout,,,,healthy,,edamame.png,,,,,,,,,,,,,,,edamame,,,,,,,,,,,,,,,,,,,,,,,,,,,,,,,,,,,,,,,,,,,,,,,,,,,,,,,,,false,,,,,,,,,197667.90000000037,197667.433,197150.278,197167.77499997988,197188.098,197684.154,,,,
Rating,html.Form,2_4_3_1_16_1,2021-05-24T16:14:22.830Z,,,,,,,,,,,,,,,,,,,,,,,,,,,,,,,,,,,,,,,,,,,,,,,,,,,,,,,,,,,,,,,,,,,,,,,,,,,,,,,,,,,,,,,,,,,,,,,,,,,,,,,,,,,,,,,,,,,,2448.9510000153386,,form submission,,,,healthy,,edamame.png,,,,,,,,,,,,,,,edamame,,,,,,,,,,,,,,,,,,,,,,,,,,,,,,,,,,,,,,,,,,,,,,,,,,,,,,,,,false,,,,,,,,,200133.33500002045,200133.10500001535,197667.433,197668.04000001866,197684.154,200153.307,,,,20
rating_sequence,flow.Sequence,2_4_3_1_16,2021-05-24T16:14:22.830Z,,,,,,,,,,,,,,,,,,,,,,,,,,,,,,,,,,,,,,,,,,,,,,,,,,,,,,,,,,,,,,,,,,,,,,,,,,,,,,,,,,,,,,,,,,,,,,,,,,,,,,,,,,,,,,,,,,,,2945.00700001535,,completion,,,,healthy,,edamame.png,,,,,,,,,,,,,,,edamame,,,,,,,,,,,,,,,,,,,,,,,,,,,,,,,,,,,,,,,,,,,,,,,,,,,,,,,,,false,,,,,,,,,200133.51499999408,200133.10500001535,197150.278,197167.7399999462,197188.098,200153.307,,,,
fixCross,canvas.Screen,2_4_3_1_17_0,2021-05-24T16:14:23.334Z,,,,,,,,,,,,,,,,,,,,,,,,,,,,,,,,,,,,,,,,,,,,,,,,,,,,,,,,,,,,,,,,,,,,,,,,,,,,,,,,,,,,,,,,,,,,,,,,,,,,,,,,,,,,,,,,,,,,500.5249999999942,,timeout,,,,healthy,,radish.png,,,,,,,,,,,,,,,radish,,,,,,,,,,,,,,,,,,,,,,,,,,,,,,,,,,,,,,,,,,,,,,,,,,,,,,,,,false,,,,,,,,,200637.40499992855,200637.11,200136.607,200133.62500001676,200153.307,200653.832,,,,
Rating,html.Form,2_4_3_1_17_1,2021-05-24T16:14:26.195Z,,,,,,,,,,,,,,,,,,,,,,,,,,,,,,,,,,,,,,,,,,,,,,,,,,,,,,,,,,,,,,,,,,,,,,,,,,,,,,,,,,,,,,,,,,,,,,,,,,,,,,,,,,,,,,,,,,,,2844.27300000604,,form submission,,,,healthy,,radish.png,,,,,,,,,,,,,,,radish,,,,,,,,,,,,,,,,,,,,,,,,,,,,,,,,,,,,,,,,,,,,,,,,,,,,,,,,,false,,,,,,,,,203498.33500001114,203498.10500000603,200637.11,200637.52500002738,200653.832,203506.675,,,,6
rating_sequence,flow.Sequence,2_4_3_1_17,2021-05-24T16:14:26.195Z,,,,,,,,,,,,,,,,,,,,,,,,,,,,,,,,,,,,,,,,,,,,,,,,,,,,,,,,,,,,,,,,,,,,,,,,,,,,,,,,,,,,,,,,,,,,,,,,,,,,,,,,,,,,,,,,,,,,3344.7980000060343,,completion,,,,healthy,,radish.png,,,,,,,,,,,,,,,radish,,,,,,,,,,,,,,,,,,,,,,,,,,,,,,,,,,,,,,,,,,,,,,,,,,,,,,,,,false,,,,,,,,,203498.52999998257,203498.10500000603,200136.607,200133.59500002116,200153.307,203506.675,,,,
rating_loop,flow.Loop,2_4_3_1,2021-05-24T16:14:26.195Z,,,,,,,,,,,,,,,,,,,,,,,,,,,,,,,,,,,,,,,,,,,,,,,,,,,,,,,,,,,,,,,,,,,,,,,,,,,,,,,,,,,,,,,,,,,,,,,,,,,,,,,,,,,,,,,,,,,,88530.34600000603,,completion,,,,,,,,,,,,,,,,,,,,,,,,,,,,,,,,,,,,,,,,,,,,,,,,,,,,,,,,,,,,,,,,,,,,,,,,,,,,,,false,,,,,,,,,203498.66499996278,203498.10500000603,114951.08,114956.46499993745,114967.759,203506.675,,,,
data_transmission,html.Screen,2_4_3_2,2021-05-24T16:14:26.202Z,,,,,,,,,,,,,,,,,,,,,,,,,,,,,,,,,,,,,,,,,,,,,,,,,,,,,,,,,,,,,,,,,,,,,,,,,,,,,,,,,,,,,,,,,,,,,,,,,,,,,,,,,,,,,,,,,,,,NaN,,no compatible backend,,,,,,,,,,,,,,,Transferring data,,,,,,,,,,,,,,,,,,,,,,,,,,,,,,,,,,,,,,,,,,,,,,,,,,,,,,,,,,,,,,,false,,,Please wait a second…,,,,,,203505.73500001337,203505.53999992553,,203498.7399999518,,203506.675,,,,
instructions,html.Screen,2_4_3_3,2021-05-24T16:15:38.513Z,,,,,,,,,,,,,,,,,,,,,,,,,,,,,,,,,,,,,,,,,,,,,,,,,,,,,,,,,,,,,,,,,,,,,,,,,,,,,,,,,,,,,,,,,,,,,,,,,,,,,,,,,,,,,,,,,,,,72308.99999996164,,done,,,,,,,,,,,,,,,,,,,,,,,,,,,,,,,,,,,,,,,,,,,,,,,,,,,,,,,,,,,,,,,,,,,,,,,,,,,,,,false,,,,,,,,,275815.8500000136,275815.67499996163,203489.971,203505.8549999958,203506.675,275829.256,,,,
Q1,html.Screen,2_4_3_4_0,2021-05-24T16:15:45.958Z,,,,,,,,,,,,,,,,,,,,,,,,,,,,,,,,,,,,,,,,,,,,,,,,,,,,,,,,,,,,,,,,,,,,,,,,,,,,,,,,,,,,,,,,,,,,,,,,,,,,,,,,,,,,,,,,false,input_Q1==3,,,7430.293999958842,,response,,,,,,,,,,,,,,,,,,,,,,,,,Q1_i1,Q1_i3,Q1_i4,Q1_i2,1,3,4,2,false,correct,false,false,,,,,,,,,,,,,,,,,,,,,,,,,,,,,,,,,,,,,,,,,click #Q1_i3,false,,,,,,,,,283261.4899999462,283259.54999995884,275812.347,275815.9999999916,275829.256,283270.08,,,,
Q1_correct,html.Screen,2_4_3_4_1,2021-05-24T16:15:47.603Z,,,,,,,,,,,,,,,,,,,,,,,,,,,,,,,,,,,,,,,,,,,,,,,,,,,,,,,,,,,,,,,,,,,,,,,,,,,,,,,,,,,,,,,,,,,,,,,,,,,,,,,,,,,,,,,,,,,,1635.6299999626935,,response,,,,,,,,,,,,,,,,,,,,,,,,,,,,,,,,,,,,,,,,,,,,,,,,,,,,,,,,,,,,,,,,,,,,,,,,,,,,,keypress,false,,,,,,,,,284906.100000022,284905.7099999627,283253.377,283261.63500000257,283270.08,284938.401,,,,
Q2,html.Screen,2_4_3_4_2,2021-05-24T16:15:52.653Z,,,,,,,,,,,,,,,,,,,,,,,,,,,,,,,,,,,,,,,,,,,,,,,,,,,,,,,,,,,,,,,,,,,,,,,,,,,,,,,,,,,,,,,,,,,,,,,,,,,,,,,,,,,,,,,,,,,,5017.1440000334405,,response,,,,,,,,,,,,,,,,,,,,,,,,,,,,,,,,,,,,,Q2_i2,Q2_i1,Q2_i3,Option 2,Option 1,Same amount,opt2,correct,same,,,,,,,,,,,,,,,,,,,,,,,,,,,,,,,,click #Q2_i1,false,,,,,,,,,289956.4849999733,289955.54500003345,284921.741,284906.23999992386,284938.401,289960.114,,,,
Q2_correct,html.Screen,2_4_3_4_3,2021-05-24T16:15:53.843Z,,,,,,,,,,,,,,,,,,,,,,,,,,,,,,,,,,,,,,,,,,,,,,,,,,,,,,,,,,,,,,,,,,,,,,,,,,,,,,,,,,,,,,,,,,,,,,,,,,,,,,,,,,,,,,,,,,,,1185.840999956301,,response,,,,,,,,,,,,,,,,,,,,,,,,,,,,,,,,,,,,,,,,,,,,,,,,,,,,,,,,,,,,,,,,,,,,,,,,,,,,,keypress,false,,,,,,,,,291146.48500003386,291145.9549999563,289943.42,289956.6399999894,289960.114,291161.343,,,,
Q4,html.Screen,2_4_3_4_4,2021-05-24T16:16:00.727Z,,,,,,,,,,,,,,,,,,,,,,,,,,,,,,,,,,,,,,,,,,,,,,,,,,,,,,,,,,,,,,,,,,,,,,,,,,,,,,,,,,,,,,,,,,,,,,,,,,,,,,,,,,,,,,,,,,,,6868.251999970875,,response,,,,,,,,,,,,,,,,,,,,,,,,,,,,,,,,,,,,,,,,,,,,,,Q4_i4,Q4_i3,Q4_i1,Q4_i2,Press the space key,Press the arrow key that corresponds with the snack option with more food items,Press the arrow key that corresponds with the snack option I prefer,Indicate the number of food items in each snack option,pressspace,morefood,correct,indicate,,,,,,,,,,,,,,,,,,,,click #Q4_i1,false,,,,,,,,,298030.26000002865,298029.59499997087,291144.612,291146.60999993794,291161.343,298034.889,,,,
Q4_correct,html.Screen,2_4_3_4_5,2021-05-24T16:16:02.147Z,,,,,,,,,,,,,,,,,,,,,,,,,,,,,,,,,,,,,,,,,,,,,,,,,,,,,,,,,,,,,,,,,,,,,,,,,,,,,,,,,,,,,,,,,,,,,,,,,,,,,,,,,,,,,,,,,,,,1414.98599993292,,response,,,,,,,,,,,,,,,,,,,,,,,,,,,,,,,,,,,,,,,,,,,,,,,,,,,,,,,,,,,,,,,,,,,,,,,,,,,,,keypress,false,,,,,,,,,299450.33499994315,299449.87499993294,298018.203,298030.41000000667,298034.889,299452.986,,,,
Q5,html.Screen,2_4_3_4_6,2021-05-24T16:16:08.046Z,,,,,,,,,,,,,,,,,,,,,,,,,,,,,,,,,,,,,,,,,,,,,,,,,,,,,,,,,,,,,,,,,,,,,,,,,,,,,,,,,,,,,,,,,,,,,,,,,,,,,,,,,,,,,,,,,,,,5895.629000024463,,response,,,,,,,,,,,,,,,,,,,,,,,,,,,,,,,,,,,,,,,,,,,,,,,,,,,,,,,,,,Q5_i2,Q5_i1,Q5_i4,Q5_i3,There are more pieces of chocolate in snack Option 2,Snack Option 2 has been chosen,Snack Option 1 has been chosen,There are more slices of kiwi in snack Option 1,morechoc2,correct,chose1,morekiwi1,,,,,,,,click #Q5_i1,false,,,,,,,,,305349.2149999365,305348.61500002444,299436.261,299450.43999992777,299452.986,305358.918,,,,
Q5_correct,html.Screen,2_4_3_4_7,2021-05-24T16:16:09.004Z,,,,,,,,,,,,,,,,,,,,,,,,,,,,,,,,,,,,,,,,,,,,,,,,,,,,,,,,,,,,,,,,,,,,,,,,,,,,,,,,,,,,,,,,,,,,,,,,,,,,,,,,,,,,,,,,,,,,947.3119999874034,,response,,,,,,,,,,,,,,,,,,,,,,,,,,,,,,,,,,,,,,,,,,,,,,,,,,,,,,,,,,,,,,,,,,,,,,,,,,,,,keypress,false,,,,,,,,,306306.84999993537,306306.2299999874,305342.221,305349.3749999907,305358.918,306309.864,,,,
practice_sequence,flow.Sequence,2_4_3_4,2021-05-24T16:16:09.004Z,,,,,,,,,,,,,,,,,,,,,,,,,,,,,,,,,,,,,,,,,,,,,,,,,,,,,,,,,,,,,,,,,,,,,,,,,,,,,,,,,,,,,,,,,,,,,,,,,,,,,,,,,,,,,,,,,,,,30476.973999987415,,completion,,,,,,,,,,,,,,,,,,,,,,,,,,,,,,,,,,,,,,,,,,,,,,,,,,,,,,,,,,,,,,,,,,,,,,,,,,,,,,false,,,,,,,,,306307.03999998514,306306.2299999874,275812.347,275815.9600000363,275829.256,306309.864,,,,
final_instru,html.Screen,2_4_3_5,2021-05-24T16:16:27.168Z,,,,,,,,,,,,,,,,,,,,,,,,,,,,,,,,,,,,,,,,,,,,,,,,,,,,,,,,,,,,,,,,,,,,,,,,,,,,,,,,,,,,,,,,,,,,,,,,,,,,,,,,,,,,,,,,,,,,18161.645999944827,,done,,,,,,,,,,,,,,,,,,,,,,,,,,,,,,,,,,,,,,,,,,,,,,,,,,,,,,,,,,,,,,,,,,,,,,,,,,,,,,false,,,,,,,,,324471.669999999,324471.5099999448,306293.174,306307.14499996975,306309.864,324478.066,,,,
blank_screen,canvas.Screen,2_4_3_6_0,2021-05-24T16:16:29.161Z,,,,,,,,,,,,,,,,,,,,,,,,,,,,,,,,,,,,,,,,,,,,,,,,,,,,,,,,,,,,,,,,,,,,,,,,,,,,,,,,,,,,,,,,,,,,,,,,,,,,,,,,,,,,,,,,,,,,2018.7239999999874,,timeout,,,,,,,,,,,,,,,,,,,,,,,,,,,,,,,,,,,,,,,,,,,,,,,,,,,,,,,,,,,,,,,,,,,,,,,,,,,,,,false,,,,,,,,,326463.8000000268,326463.418,324461.234,324471.8100000173,324478.066,326496.79,,,,
fixCross,canvas.Screen,2_4_3_6_1_0_0_0_0_0_0,2021-05-24T16:16:29.828Z,,,blank.png,"[""dried_meat.png""]",blank.png,blank.png,blank.png,blank.png,blank.png,blank.png,blank.png,blank.png,blank.png,blank.png,blank.png,,,,,,,,,,,,,,,,,,,,,,,,,,,,,"[""dried_meat.png""]","[""walnut.png""]",PB07.png,,,,,,,,,,,0,6,"[""walnut.png""]","[""walnut.png""]","[""walnut.png""]","[""walnut.png""]","[""walnut.png""]","[""walnut.png""]",blank.png,PB18.png,PB18.png,"[""walnut.png""]",blank.png,blank.png,blank.png,blank.png,blank.png,"[""walnut.png""]","[""walnut.png""]","[""walnut.png""]","[""walnut.png""]","[""walnut.png""]","[""walnut.png""]",1,"[""dried_meat.png""]",blank.png,blank.png,blank.png,1,"[""walnut.png""]",blank.png,blank.png,blank.png,blank.png,blank.png,PB07.png,,,,,,,,,,,1,,,,,,,,,,,,,967.6410000000033,,timeout,,,,,,,,,,,,,3,,,,,,,,,,,,,,,,,,,,,,,,,,,,,,,,,,,,,,,,,,,,,,,,,,,,,,,,,"[""walnut.png""]","[""dried_meat.png""]",,,,3,,,false,,1,,,,,,,327131.24499993864,327130.752,326463.418,326498.73500003014,326496.79,327464.431,1,,,
timeout,canvas.Screen,2_4_3_6_1_0_0_0_0_0_1,2021-05-24T16:16:30.646Z,,,blank.png,"[""dried_meat.png""]",blank.png,blank.png,blank.png,blank.png,blank.png,blank.png,blank.png,blank.png,blank.png,blank.png,blank.png,,,,,,,,,,,,,,,,,,,,,,,,,,,,,"[""dried_meat.png""]","[""walnut.png""]",PB07.png,,,,,,,,,,,0,6,"[""walnut.png""]","[""walnut.png""]","[""walnut.png""]","[""walnut.png""]","[""walnut.png""]","[""walnut.png""]",blank.png,PB18.png,PB18.png,"[""walnut.png""]",blank.png,blank.png,blank.png,blank.png,blank.png,"[""walnut.png""]","[""walnut.png""]","[""walnut.png""]","[""walnut.png""]","[""walnut.png""]","[""walnut.png""]",1,"[""dried_meat.png""]",blank.png,blank.png,blank.png,1,"[""walnut.png""]",blank.png,blank.png,blank.png,blank.png,blank.png,PB07.png,,,,,,,,,,,1,,,,,,,,,,,,,917.6000000000349,,timeout,,,,,,,,,,,,,3,,,,,,,,,,,,,,,,,,,,,,,,,,,,,,,,,,,,,,,,,,,,,,,,,,,,,,,,,"[""walnut.png""]","[""dried_meat.png""]",,,,3,,,false,,1,,,,,,,327948.7949999748,327948.24,327130.752,327576.1100000236,327464.431,328382.031,,,,
choice,canvas.Screen,2_4_3_6_1_0_0_0_0_0_2,2021-05-24T16:16:33.460Z,,,blank.png,"[""dried_meat.png""]",blank.png,blank.png,blank.png,blank.png,blank.png,blank.png,blank.png,blank.png,blank.png,blank.png,blank.png,,,,,,,,,,,,,,,,,,,,,,,,,,,,,"[""dried_meat.png""]","[""walnut.png""]",PB07.png,,,,,,,,,,,0,6,"[""walnut.png""]","[""walnut.png""]","[""walnut.png""]","[""walnut.png""]","[""walnut.png""]","[""walnut.png""]",blank.png,PB18.png,PB18.png,"[""walnut.png""]",blank.png,blank.png,blank.png,blank.png,blank.png,"[""walnut.png""]","[""walnut.png""]","[""walnut.png""]","[""walnut.png""]","[""walnut.png""]","[""walnut.png""]",1,"[""dried_meat.png""]",blank.png,blank.png,blank.png,1,"[""walnut.png""]",blank.png,blank.png,blank.png,blank.png,blank.png,PB07.png,,,,,,,,,,,1,,,,,,,,,,,,,2379.7590000186465,,response,,,,,,,,,,,,,3,,,,,,,,,,,,,,,,,,,,,,,,,,,,,,,,,,,,,,,,,,,,,,,,,,,,,,,,,"[""walnut.png""]","[""dried_meat.png""]",,,,3,right,keydown(ArrowRight),false,,1,,,,,,,330763.6449999409,330761.79000001866,327948.24,328386.3649999257,328382.031,331168.16,,1,,
square,canvas.Screen,2_4_3_6_1_0_0_0_0_0_3,2021-05-24T16:16:34.850Z,,,blank.png,"[""dried_meat.png""]",blank.png,blank.png,blank.png,blank.png,blank.png,blank.png,blank.png,blank.png,blank.png,blank.png,blank.png,,,,,,,,,,,,,,,,,,,,,,,,,,,,,"[""dried_meat.png""]","[""walnut.png""]",PB07.png,,,,,,,,,,,0,6,"[""walnut.png""]","[""walnut.png""]","[""walnut.png""]","[""walnut.png""]","[""walnut.png""]","[""walnut.png""]",blank.png,PB18.png,PB18.png,"[""walnut.png""]",blank.png,blank.png,blank.png,blank.png,blank.png,"[""walnut.png""]","[""walnut.png""]","[""walnut.png""]","[""walnut.png""]","[""walnut.png""]","[""walnut.png""]",1,"[""dried_meat.png""]",blank.png,blank.png,blank.png,1,"[""walnut.png""]",blank.png,blank.png,blank.png,blank.png,blank.png,PB07.png,,,,,,,,,,,1,,,#808080,#33ff3f,,,,,,,,,1000.9710000000196,,timeout,,,,,,,,,,,,,3,,,,,,,,,,,,,,,,,,,,,,,,,,,,,,,,,,,,,,,,,,,,,,,,,,,,,,,,,"[""walnut.png""]","[""dried_meat.png""]",,,,3,,,false,,1,,,,,white,black,332153.16999994684,332152.46,331151.39,331153.70499994606,331168.16,332169.131,,,,
ITI_late,canvas.Screen,2_4_3_6_1_0_0_0_0_0_4,2021-05-24T16:16:35.350Z,,,blank.png,"[""dried_meat.png""]",blank.png,blank.png,blank.png,blank.png,blank.png,blank.png,blank.png,blank.png,blank.png,blank.png,blank.png,,,,,,,,,,,,,,,,,,,,,,,,,,,,,"[""dried_meat.png""]","[""walnut.png""]",PB07.png,,,,,,,,,,,0,6,"[""walnut.png""]","[""walnut.png""]","[""walnut.png""]","[""walnut.png""]","[""walnut.png""]","[""walnut.png""]",blank.png,PB18.png,PB18.png,"[""walnut.png""]",blank.png,blank.png,blank.png,blank.png,blank.png,"[""walnut.png""]","[""walnut.png""]","[""walnut.png""]","[""walnut.png""]","[""walnut.png""]","[""walnut.png""]",1,"[""dried_meat.png""]",blank.png,blank.png,blank.png,1,"[""walnut.png""]",blank.png,blank.png,blank.png,blank.png,blank.png,PB07.png,,,,,,,,,,,1,,,,,,,,,,,,,500.53000000002794,,timeout,,,,,,,,,,,,white,3,,,,,,,,,,,,,,,,,,,,,,,,,,,,,,,,,,,,,,,,,,,,,,,,,,,,,,,,,"[""walnut.png""]","[""dried_meat.png""]",,,,3,,,false,,1,,,,,,,332653.4250000259,332652.961,332152.46,332155.04500002135,332169.131,332669.661,,,,
choice_sequence,flow.Sequence,2_4_3_6_1_0_0_0_0_0,2021-05-24T16:16:35.351Z,,,blank.png,"[""dried_meat.png""]",blank.png,blank.png,blank.png,blank.png,blank.png,blank.png,blank.png,blank.png,blank.png,blank.png,blank.png,,,,,,,,,,,,,,,,,,,,,,,,,,,,,"[""dried_meat.png""]","[""walnut.png""]",PB07.png,,,,,,,,,,,0,6,"[""walnut.png""]","[""walnut.png""]","[""walnut.png""]","[""walnut.png""]","[""walnut.png""]","[""walnut.png""]",blank.png,PB18.png,PB18.png,"[""walnut.png""]",blank.png,blank.png,blank.png,blank.png,blank.png,"[""walnut.png""]","[""walnut.png""]","[""walnut.png""]","[""walnut.png""]","[""walnut.png""]","[""walnut.png""]",1,"[""dried_meat.png""]",blank.png,blank.png,blank.png,1,"[""walnut.png""]",blank.png,blank.png,blank.png,blank.png,blank.png,PB07.png,,,,,,,,,,,1,,,,,,,,,,,,,6156.171000000031,,completion,,,,,,,,,,,,,3,,,,,,,,,,,,,,,,,,,,,,,,,,,,,,,,,,,,,,,,,,,,,,,,,,,,,,,,,"[""walnut.png""]","[""dried_meat.png""]",,,,3,,,false,,1,,,,,,,332653.9000000339,332652.961,326463.418,326497.3400000017,326496.79,332669.661,,,,
fixCross,canvas.Screen,2_4_3_6_1_0_0_0_0_1_0,2021-05-24T16:16:35.801Z,,,blank.png,"[""dried_meat.png""]",blank.png,blank.png,blank.png,blank.png,blank.png,blank.png,blank.png,blank.png,blank.png,blank.png,blank.png,,,,,,,,,,,,,,,,,,,,,,,,,,,,,"[""dried_meat.png""]","[""walnut.png""]",PB16.png,,,,,,,,,,,0,6,"[""walnut.png""]","[""walnut.png""]","[""walnut.png""]","[""walnut.png""]","[""walnut.png""]","[""walnut.png""]",blank.png,PB18.png,PB18.png,"[""walnut.png""]","[""walnut.png""]","[""walnut.png""]","[""walnut.png""]","[""walnut.png""]",blank.png,"[""walnut.png""]","[""walnut.png""]","[""walnut.png""]","[""walnut.png""]","[""walnut.png""]","[""walnut.png""]",1,"[""dried_meat.png""]",blank.png,blank.png,blank.png,5,"[""walnut.png""]","[""walnut.png""]","[""walnut.png""]","[""walnut.png""]","[""walnut.png""]",blank.png,PB16.png,,,,,,,,,,,1,,,,,,,,,,,,,934.2779999999912,,timeout,,,,,,,,,,,,,3,,,,,,,,,,,,,,,,,,,,,,,,,,,,,,,,,,,,,,,,,,,,,,,,,,,,,,,,,"[""walnut.png""]","[""dried_meat.png""]",,,,3,,,false,,1,,,,,,,333103.8549999939,333103.413,332652.961,332658.694999991,332669.661,333603.939,2,,,
timeout,canvas.Screen,2_4_3_6_1_0_0_0_0_1_1,2021-05-24T16:16:36.785Z,,,blank.png,"[""dried_meat.png""]",blank.png,blank.png,blank.png,blank.png,blank.png,blank.png,blank.png,blank.png,blank.png,blank.png,blank.png,,,,,,,,,,,,,,,,,,,,,,,,,,,,,"[""dried_meat.png""]","[""walnut.png""]",PB16.png,,,,,,,,,,,0,6,"[""walnut.png""]","[""walnut.png""]","[""walnut.png""]","[""walnut.png""]","[""walnut.png""]","[""walnut.png""]",blank.png,PB18.png,PB18.png,"[""walnut.png""]","[""walnut.png""]","[""walnut.png""]","[""walnut.png""]","[""walnut.png""]",blank.png,"[""walnut.png""]","[""walnut.png""]","[""walnut.png""]","[""walnut.png""]","[""walnut.png""]","[""walnut.png""]",1,"[""dried_meat.png""]",blank.png,blank.png,blank.png,5,"[""walnut.png""]","[""walnut.png""]","[""walnut.png""]","[""walnut.png""]","[""walnut.png""]",blank.png,PB16.png,,,,,,,,,,,1,,,,,,,,,,,,,1000.99099999998,,timeout,,,,,,,,,,,,,3,,,,,,,,,,,,,,,,,,,,,,,,,,,,,,,,,,,,,,,,,,,,,,,,,,,,,,,,,"[""walnut.png""]","[""dried_meat.png""]",,,,3,,,false,,1,,,,,,,334088.50499999244,334087.736,333103.413,333607.78500000015,333603.939,334604.93,,,,
choice,canvas.Screen,2_4_3_6_1_0_0_0_0_1_2,2021-05-24T16:16:40.997Z,,,blank.png,"[""dried_meat.png""]",blank.png,blank.png,blank.png,blank.png,blank.png,blank.png,blank.png,blank.png,blank.png,blank.png,blank.png,,,,,,,,,,,,,,,,,,,,,,,,,,,,,"[""dried_meat.png""]","[""walnut.png""]",PB16.png,,,,,,,,,,,0,6,"[""walnut.png""]","[""walnut.png""]","[""walnut.png""]","[""walnut.png""]","[""walnut.png""]","[""walnut.png""]",blank.png,PB18.png,PB18.png,"[""walnut.png""]","[""walnut.png""]","[""walnut.png""]","[""walnut.png""]","[""walnut.png""]",blank.png,"[""walnut.png""]","[""walnut.png""]","[""walnut.png""]","[""walnut.png""]","[""walnut.png""]","[""walnut.png""]",1,"[""dried_meat.png""]",blank.png,blank.png,blank.png,5,"[""walnut.png""]","[""walnut.png""]","[""walnut.png""]","[""walnut.png""]","[""walnut.png""]",blank.png,PB16.png,,,,,,,,,,,1,,,,,,,,,,,,,3692.929999933287,,response,,,,,,,,,,,,,3,,,,,,,,,,,,,,,,,,,,,,,,,,,,,,,,,,,,,,,,,,,,,,,,,,,,,,,,,"[""walnut.png""]","[""dried_meat.png""]",,,,3,left,keydown(ArrowLeft),false,,1,,,,,,,338299.89499994554,338297.8599999333,334087.736,334596.43000003416,334604.93,338792.453,,2,,
square,canvas.Screen,2_4_3_6_1_0_0_0_0_1_3,2021-05-24T16:16:42.474Z,,,blank.png,"[""dried_meat.png""]",blank.png,blank.png,blank.png,blank.png,blank.png,blank.png,blank.png,blank.png,blank.png,blank.png,blank.png,,,,,,,,,,,,,,,,,,,,,,,,,,,,,"[""dried_meat.png""]","[""walnut.png""]",PB16.png,,,,,,,,,,,0,6,"[""walnut.png""]","[""walnut.png""]","[""walnut.png""]","[""walnut.png""]","[""walnut.png""]","[""walnut.png""]",blank.png,PB18.png,PB18.png,"[""walnut.png""]","[""walnut.png""]","[""walnut.png""]","[""walnut.png""]","[""walnut.png""]",blank.png,"[""walnut.png""]","[""walnut.png""]","[""walnut.png""]","[""walnut.png""]","[""walnut.png""]","[""walnut.png""]",1,"[""dried_meat.png""]",blank.png,blank.png,blank.png,5,"[""walnut.png""]","[""walnut.png""]","[""walnut.png""]","[""walnut.png""]","[""walnut.png""]",blank.png,PB16.png,,,,,,,,,,,1,,,#33ff3f,#808080,,,,,,,,,1001.0520000000251,,timeout,,,,,,,,,,,,,3,,,,,,,,,,,,,,,,,,,,,,,,,,,,,,,,,,,,,,,,,,,,,,,,,,,,,,,,,"[""walnut.png""]","[""dried_meat.png""]",,,,3,,,false,,1,,,,,black,white,339777.4249999784,339776.79,338775.673,338790.5500000343,338792.453,339793.505,,,,
ITI_late,canvas.Screen,2_4_3_6_1_0_0_0_0_1_4,2021-05-24T16:16:42.724Z,,,blank.png,"[""dried_meat.png""]",blank.png,blank.png,blank.png,blank.png,blank.png,blank.png,blank.png,blank.png,blank.png,blank.png,blank.png,,,,,,,,,,,,,,,,,,,,,,,,,,,,,"[""dried_meat.png""]","[""walnut.png""]",PB16.png,,,,,,,,,,,0,6,"[""walnut.png""]","[""walnut.png""]","[""walnut.png""]","[""walnut.png""]","[""walnut.png""]","[""walnut.png""]",blank.png,PB18.png,PB18.png,"[""walnut.png""]","[""walnut.png""]","[""walnut.png""]","[""walnut.png""]","[""walnut.png""]",blank.png,"[""walnut.png""]","[""walnut.png""]","[""walnut.png""]","[""walnut.png""]","[""walnut.png""]","[""walnut.png""]",1,"[""dried_meat.png""]",blank.png,blank.png,blank.png,5,"[""walnut.png""]","[""walnut.png""]","[""walnut.png""]","[""walnut.png""]","[""walnut.png""]",blank.png,PB16.png,,,,,,,,,,,1,,,,,,,,,,,,,250.21899999998277,,timeout,,,,,,,,,,,,white,3,,,,,,,,,,,,,,,,,,,,,,,,,,,,,,,,,,,,,,,,,,,,,,,,,,,,,,,,,"[""walnut.png""]","[""dried_meat.png""]",,,,3,,,false,,1,,,,,,,340027.47999993153,340027.03,339776.79,339779.6249999665,339793.505,340043.724,,,,
choice_sequence,flow.Sequence,2_4_3_6_1_0_0_0_0_1,2021-05-24T16:16:42.725Z,,,blank.png,"[""dried_meat.png""]",blank.png,blank.png,blank.png,blank.png,blank.png,blank.png,blank.png,blank.png,blank.png,blank.png,blank.png,,,,,,,,,,,,,,,,,,,,,,,,,,,,,"[""dried_meat.png""]","[""walnut.png""]",PB16.png,,,,,,,,,,,0,6,"[""walnut.png""]","[""walnut.png""]","[""walnut.png""]","[""walnut.png""]","[""walnut.png""]","[""walnut.png""]",blank.png,PB18.png,PB18.png,"[""walnut.png""]","[""walnut.png""]","[""walnut.png""]","[""walnut.png""]","[""walnut.png""]",blank.png,"[""walnut.png""]","[""walnut.png""]","[""walnut.png""]","[""walnut.png""]","[""walnut.png""]","[""walnut.png""]",1,"[""dried_meat.png""]",blank.png,blank.png,blank.png,5,"[""walnut.png""]","[""walnut.png""]","[""walnut.png""]","[""walnut.png""]","[""walnut.png""]",blank.png,PB16.png,,,,,,,,,,,1,,,,,,,,,,,,,7357.369000000006,,completion,,,,,,,,,,,,,3,,,,,,,,,,,,,,,,,,,,,,,,,,,,,,,,,,,,,,,,,,,,,,,,,,,,,,,,,"[""walnut.png""]","[""dried_meat.png""]",,,,3,,,false,,1,,,,,,,340027.95499993954,340027.03,332652.961,332657.72999997716,332669.661,340043.724,,,,
fixCross,canvas.Screen,2_4_3_6_1_0_0_0_0_2_0,2021-05-24T16:16:43.275Z,,,blank.png,"[""dried_meat.png""]",blank.png,blank.png,blank.png,blank.png,blank.png,blank.png,blank.png,blank.png,blank.png,blank.png,blank.png,,,,,,,,,,,,,,,,,,,,,,,,,,,,,"[""dried_meat.png""]","[""walnut.png""]",PB14.png,,,,,,,,,,,0,6,"[""walnut.png""]","[""walnut.png""]","[""walnut.png""]","[""walnut.png""]","[""walnut.png""]","[""walnut.png""]",blank.png,PB18.png,PB18.png,"[""walnut.png""]","[""walnut.png""]","[""walnut.png""]",blank.png,blank.png,blank.png,"[""walnut.png""]","[""walnut.png""]","[""walnut.png""]","[""walnut.png""]","[""walnut.png""]","[""walnut.png""]",1,"[""dried_meat.png""]",blank.png,blank.png,blank.png,3,"[""walnut.png""]","[""walnut.png""]","[""walnut.png""]",blank.png,blank.png,blank.png,PB14.png,,,,,,,,,,,1,,,,,,,,,,,,,984.3180000000284,,timeout,,,,,,,,,,,,,3,,,,,,,,,,,,,,,,,,,,,,,,,,,,,,,,,,,,,,,,,,,,,,,,,,,,,,,,,"[""walnut.png""]","[""dried_meat.png""]",,,,3,,,false,,1,,,,,,,340578.1300000381,340577.584,340027.03,340035.9049999388,340043.724,341028.042,3,,,
timeout,canvas.Screen,2_4_3_6_1_0_0_0_0_2_1,2021-05-24T16:16:44.209Z,,,blank.png,"[""dried_meat.png""]",blank.png,blank.png,blank.png,blank.png,blank.png,blank.png,blank.png,blank.png,blank.png,blank.png,blank.png,,,,,,,,,,,,,,,,,,,,,,,,,,,,,"[""dried_meat.png""]","[""walnut.png""]",PB14.png,,,,,,,,,,,0,6,"[""walnut.png""]","[""walnut.png""]","[""walnut.png""]","[""walnut.png""]","[""walnut.png""]","[""walnut.png""]",blank.png,PB18.png,PB18.png,"[""walnut.png""]","[""walnut.png""]","[""walnut.png""]",blank.png,blank.png,blank.png,"[""walnut.png""]","[""walnut.png""]","[""walnut.png""]","[""walnut.png""]","[""walnut.png""]","[""walnut.png""]",1,"[""dried_meat.png""]",blank.png,blank.png,blank.png,3,"[""walnut.png""]","[""walnut.png""]","[""walnut.png""]",blank.png,blank.png,blank.png,PB14.png,,,,,,,,,,,1,,,,,,,,,,,,,934.2710000000079,,timeout,,,,,,,,,,,,,3,,,,,,,,,,,,,,,,,,,,,,,,,,,,,,,,,,,,,,,,,,,,,,,,,,,,,,,,,"[""walnut.png""]","[""dried_meat.png""]",,,,3,,,false,,1,,,,,,,341512.3250000179,341511.852,340577.584,341036.1349999439,341028.042,341962.313,,,,
choice,canvas.Screen,2_4_3_6_1_0_0_0_0_2_2,2021-05-24T16:16:44.908Z,,,blank.png,"[""dried_meat.png""]",blank.png,blank.png,blank.png,blank.png,blank.png,blank.png,blank.png,blank.png,blank.png,blank.png,blank.png,,,,,,,,,,,,,,,,,,,,,,,,,,,,,"[""dried_meat.png""]","[""walnut.png""]",PB14.png,,,,,,,,,,,0,6,"[""walnut.png""]","[""walnut.png""]","[""walnut.png""]","[""walnut.png""]","[""walnut.png""]","[""walnut.png""]",blank.png,PB18.png,PB18.png,"[""walnut.png""]","[""walnut.png""]","[""walnut.png""]",blank.png,blank.png,blank.png,"[""walnut.png""]","[""walnut.png""]","[""walnut.png""]","[""walnut.png""]","[""walnut.png""]","[""walnut.png""]",1,"[""dried_meat.png""]",blank.png,blank.png,blank.png,3,"[""walnut.png""]","[""walnut.png""]","[""walnut.png""]",blank.png,blank.png,blank.png,PB14.png,,,,,,,,,,,1,,,,,,,,,,,,,247.93199996562907,,response,,,,,,,,,,,,,3,,,,,,,,,,,,,,,,,,,,,,,,,,,,,,,,,,,,,,,,,,,,,,,,,,,,,,,,,"[""walnut.png""]","[""dried_meat.png""]",,,,3,right,keydown(ArrowRight),false,,1,,,,,,,342211.15500002634,342210.24499996565,341511.852,341954.1850000387,341962.313,342663.066,,3,,
square,canvas.Screen,2_4_3_6_1_0_0_0_0_2_3,2021-05-24T16:16:46.345Z,,,blank.png,"[""dried_meat.png""]",blank.png,blank.png,blank.png,blank.png,blank.png,blank.png,blank.png,blank.png,blank.png,blank.png,blank.png,,,,,,,,,,,,,,,,,,,,,,,,,,,,,"[""dried_meat.png""]","[""walnut.png""]",PB14.png,,,,,,,,,,,0,6,"[""walnut.png""]","[""walnut.png""]","[""walnut.png""]","[""walnut.png""]","[""walnut.png""]","[""walnut.png""]",blank.png,PB18.png,PB18.png,"[""walnut.png""]","[""walnut.png""]","[""walnut.png""]",blank.png,blank.png,blank.png,"[""walnut.png""]","[""walnut.png""]","[""walnut.png""]","[""walnut.png""]","[""walnut.png""]","[""walnut.png""]",1,"[""dried_meat.png""]",blank.png,blank.png,blank.png,3,"[""walnut.png""]","[""walnut.png""]","[""walnut.png""]",blank.png,blank.png,blank.png,PB14.png,,,,,,,,,,,1,,,#808080,#33ff3f,,,,,,,,,1000.9920000000275,,timeout,,,,,,,,,,,,,3,,,,,,,,,,,,,,,,,,,,,,,,,,,,,,,,,,,,,,,,,,,,,,,,,,,,,,,,,"[""walnut.png""]","[""dried_meat.png""]",,,,3,,,false,,1,,,,,white,black,343647.99500000663,343647.329,342646.308,342651.20500000194,342663.066,343664.058,,,,
ITI_late,canvas.Screen,2_4_3_6_1_0_0_0_0_2_4,2021-05-24T16:16:47.596Z,,,blank.png,"[""dried_meat.png""]",blank.png,blank.png,blank.png,blank.png,blank.png,blank.png,blank.png,blank.png,blank.png,blank.png,blank.png,,,,,,,,,,,,,,,,,,,,,,,,,,,,,"[""dried_meat.png""]","[""walnut.png""]",PB14.png,,,,,,,,,,,0,6,"[""walnut.png""]","[""walnut.png""]","[""walnut.png""]","[""walnut.png""]","[""walnut.png""]","[""walnut.png""]",blank.png,PB18.png,PB18.png,"[""walnut.png""]","[""walnut.png""]","[""walnut.png""]",blank.png,blank.png,blank.png,"[""walnut.png""]","[""walnut.png""]","[""walnut.png""]","[""walnut.png""]","[""walnut.png""]","[""walnut.png""]",1,"[""dried_meat.png""]",blank.png,blank.png,blank.png,3,"[""walnut.png""]","[""walnut.png""]","[""walnut.png""]",blank.png,blank.png,blank.png,PB14.png,,,,,,,,,,,1,,,,,,,,,,,,,1251.2209999999614,,timeout,,,,,,,,,,,,white,3,,,,,,,,,,,,,,,,,,,,,,,,,,,,,,,,,,,,,,,,,,,,,,,,,,,,,,,,,"[""walnut.png""]","[""dried_meat.png""]",,,,3,,,false,,1,,,,,,,344899.059999967,344898.586,343647.329,343649.9049999984,343664.058,344915.279,,,,
choice_sequence,flow.Sequence,2_4_3_6_1_0_0_0_0_2,2021-05-24T16:16:47.596Z,,,blank.png,"[""dried_meat.png""]",blank.png,blank.png,blank.png,blank.png,blank.png,blank.png,blank.png,blank.png,blank.png,blank.png,blank.png,,,,,,,,,,,,,,,,,,,,,,,,,,,,,"[""dried_meat.png""]","[""walnut.png""]",PB14.png,,,,,,,,,,,0,6,"[""walnut.png""]","[""walnut.png""]","[""walnut.png""]","[""walnut.png""]","[""walnut.png""]","[""walnut.png""]",blank.png,PB18.png,PB18.png,"[""walnut.png""]","[""walnut.png""]","[""walnut.png""]",blank.png,blank.png,blank.png,"[""walnut.png""]","[""walnut.png""]","[""walnut.png""]","[""walnut.png""]","[""walnut.png""]","[""walnut.png""]",1,"[""dried_meat.png""]",blank.png,blank.png,blank.png,3,"[""walnut.png""]","[""walnut.png""]","[""walnut.png""]",blank.png,blank.png,blank.png,PB14.png,,,,,,,,,,,1,,,,,,,,,,,,,4854.862000000023,,completion,,,,,,,,,,,,,3,,,,,,,,,,,,,,,,,,,,,,,,,,,,,,,,,,,,,,,,,,,,,,,,,,,,,,,,,"[""walnut.png""]","[""dried_meat.png""]",,,,3,,,false,,1,,,,,,,344899.54499993473,344898.586,340027.03,340034.3550000107,340043.724,344915.279,,,,
fixCross,canvas.Screen,2_4_3_6_1_0_0_0_0_3_0,2021-05-24T16:16:48.297Z,,,blank.png,"[""dried_meat.png""]",blank.png,blank.png,blank.png,blank.png,blank.png,blank.png,blank.png,blank.png,blank.png,blank.png,blank.png,,,,,,,,,,,,,,,,,,,,,,,,,,,,,"[""dried_meat.png""]","[""walnut.png""]",PB15.png,,,,,,,,,,,0,6,"[""walnut.png""]","[""walnut.png""]","[""walnut.png""]","[""walnut.png""]","[""walnut.png""]","[""walnut.png""]",blank.png,PB18.png,PB18.png,"[""walnut.png""]","[""walnut.png""]","[""walnut.png""]","[""walnut.png""]",blank.png,blank.png,"[""walnut.png""]","[""walnut.png""]","[""walnut.png""]","[""walnut.png""]","[""walnut.png""]","[""walnut.png""]",1,"[""dried_meat.png""]",blank.png,blank.png,blank.png,4,"[""walnut.png""]","[""walnut.png""]","[""walnut.png""]","[""walnut.png""]",blank.png,blank.png,PB15.png,,,,,,,,,,,1,,,,,,,,,,,,,1151.2220000000088,,timeout,,,,,,,,,,,,,3,,,,,,,,,,,,,,,,,,,,,,,,,,,,,,,,,,,,,,,,,,,,,,,,,,,,,,,,,"[""walnut.png""]","[""dried_meat.png""]",,,,3,,,false,,1,,,,,,,345599.77999993134,345599.291,344898.586,344908.70000002906,344915.279,346066.501,4,,,
timeout,canvas.Screen,2_4_3_6_1_0_0_0_0_3_1,2021-05-24T16:16:49.247Z,,,blank.png,"[""dried_meat.png""]",blank.png,blank.png,blank.png,blank.png,blank.png,blank.png,blank.png,blank.png,blank.png,blank.png,blank.png,,,,,,,,,,,,,,,,,,,,,,,,,,,,,"[""dried_meat.png""]","[""walnut.png""]",PB15.png,,,,,,,,,,,0,6,"[""walnut.png""]","[""walnut.png""]","[""walnut.png""]","[""walnut.png""]","[""walnut.png""]","[""walnut.png""]",blank.png,PB18.png,PB18.png,"[""walnut.png""]","[""walnut.png""]","[""walnut.png""]","[""walnut.png""]",blank.png,blank.png,"[""walnut.png""]","[""walnut.png""]","[""walnut.png""]","[""walnut.png""]","[""walnut.png""]","[""walnut.png""]",1,"[""dried_meat.png""]",blank.png,blank.png,blank.png,4,"[""walnut.png""]","[""walnut.png""]","[""walnut.png""]","[""walnut.png""]",blank.png,blank.png,PB15.png,,,,,,,,,,,1,,,,,,,,,,,,,950.8960000000079,,timeout,,,,,,,,,,,,,3,,,,,,,,,,,,,,,,,,,,,,,,,,,,,,,,,,,,,,,,,,,,,,,,,,,,,,,,,"[""walnut.png""]","[""dried_meat.png""]",,,,3,,,false,,1,,,,,,,346550.6199999945,346550.225,345599.291,346073.379999958,346066.501,347017.397,,,,
choice,canvas.Screen,2_4_3_6_1_0_0_0_0_3_2,2021-05-24T16:16:51.092Z,,,blank.png,"[""dried_meat.png""]",blank.png,blank.png,blank.png,blank.png,blank.png,blank.png,blank.png,blank.png,blank.png,blank.png,blank.png,,,,,,,,,,,,,,,,,,,,,,,,,,,,,"[""dried_meat.png""]","[""walnut.png""]",PB15.png,,,,,,,,,,,0,6,"[""walnut.png""]","[""walnut.png""]","[""walnut.png""]","[""walnut.png""]","[""walnut.png""]","[""walnut.png""]",blank.png,PB18.png,PB18.png,"[""walnut.png""]","[""walnut.png""]","[""walnut.png""]","[""walnut.png""]",blank.png,blank.png,"[""walnut.png""]","[""walnut.png""]","[""walnut.png""]","[""walnut.png""]","[""walnut.png""]","[""walnut.png""]",1,"[""dried_meat.png""]",blank.png,blank.png,blank.png,4,"[""walnut.png""]","[""walnut.png""]","[""walnut.png""]","[""walnut.png""]",blank.png,blank.png,PB15.png,,,,,,,,,,,1,,,,,,,,,,,,,1376.5030000245897,,response,,,,,,,,,,,,,3,,,,,,,,,,,,,,,,,,,,,,,,,,,,,,,,,,,,,,,,,,,,,,,,,,,,,,,,,"[""walnut.png""]","[""dried_meat.png""]",,,,3,right,keydown(ArrowRight),false,,1,,,,,,,348394.970000023,348393.9000000246,346550.225,347018.8349999953,347017.397,348869.248,,4,,
square,canvas.Screen,2_4_3_6_1_0_0_0_0_3_3,2021-05-24T16:16:52.551Z,,,blank.png,"[""dried_meat.png""]",blank.png,blank.png,blank.png,blank.png,blank.png,blank.png,blank.png,blank.png,blank.png,blank.png,blank.png,,,,,,,,,,,,,,,,,,,,,,,,,,,,,"[""dried_meat.png""]","[""walnut.png""]",PB15.png,,,,,,,,,,,0,6,"[""walnut.png""]","[""walnut.png""]","[""walnut.png""]","[""walnut.png""]","[""walnut.png""]","[""walnut.png""]",blank.png,PB18.png,PB18.png,"[""walnut.png""]","[""walnut.png""]","[""walnut.png""]","[""walnut.png""]",blank.png,blank.png,"[""walnut.png""]","[""walnut.png""]","[""walnut.png""]","[""walnut.png""]","[""walnut.png""]","[""walnut.png""]",1,"[""dried_meat.png""]",blank.png,blank.png,blank.png,4,"[""walnut.png""]","[""walnut.png""]","[""walnut.png""]","[""walnut.png""]",blank.png,blank.png,PB15.png,,,,,,,,,,,1,,,#808080,#33ff3f,,,,,,,,,1001.0439999999944,,timeout,,,,,,,,,,,,,3,,,,,,,,,,,,,,,,,,,,,,,,,,,,,,,,,,,,,,,,,,,,,,,,,,,,,,,,,"[""walnut.png""]","[""dried_meat.png""]",,,,3,,,false,,1,,,,,white,black,349854.2100000195,349853.561,348852.511,348858.0849999562,348869.248,349870.292,,,,
ITI_late,canvas.Screen,2_4_3_6_1_0_0_0_0_3_4,2021-05-24T16:16:53.051Z,,,blank.png,"[""dried_meat.png""]",blank.png,blank.png,blank.png,blank.png,blank.png,blank.png,blank.png,blank.png,blank.png,blank.png,blank.png,,,,,,,,,,,,,,,,,,,,,,,,,,,,,"[""dried_meat.png""]","[""walnut.png""]",PB15.png,,,,,,,,,,,0,6,"[""walnut.png""]","[""walnut.png""]","[""walnut.png""]","[""walnut.png""]","[""walnut.png""]","[""walnut.png""]",blank.png,PB18.png,PB18.png,"[""walnut.png""]","[""walnut.png""]","[""walnut.png""]","[""walnut.png""]",blank.png,blank.png,"[""walnut.png""]","[""walnut.png""]","[""walnut.png""]","[""walnut.png""]","[""walnut.png""]","[""walnut.png""]",1,"[""dried_meat.png""]",blank.png,blank.png,blank.png,4,"[""walnut.png""]","[""walnut.png""]","[""walnut.png""]","[""walnut.png""]",blank.png,blank.png,PB15.png,,,,,,,,,,,1,,,,,,,,,,,,,500.50500000000466,,timeout,,,,,,,,,,,,white,3,,,,,,,,,,,,,,,,,,,,,,,,,,,,,,,,,,,,,,,,,,,,,,,,,,,,,,,,,"[""walnut.png""]","[""dried_meat.png""]",,,,3,,,false,,1,,,,,,,350354.46499998216,350354.049,349853.561,349856.0900000157,349870.292,350370.797,,,,
choice_sequence,flow.Sequence,2_4_3_6_1_0_0_0_0_3,2021-05-24T16:16:53.052Z,,,blank.png,"[""dried_meat.png""]",blank.png,blank.png,blank.png,blank.png,blank.png,blank.png,blank.png,blank.png,blank.png,blank.png,blank.png,,,,,,,,,,,,,,,,,,,,,,,,,,,,,"[""dried_meat.png""]","[""walnut.png""]",PB15.png,,,,,,,,,,,0,6,"[""walnut.png""]","[""walnut.png""]","[""walnut.png""]","[""walnut.png""]","[""walnut.png""]","[""walnut.png""]",blank.png,PB18.png,PB18.png,"[""walnut.png""]","[""walnut.png""]","[""walnut.png""]","[""walnut.png""]",blank.png,blank.png,"[""walnut.png""]","[""walnut.png""]","[""walnut.png""]","[""walnut.png""]","[""walnut.png""]","[""walnut.png""]",1,"[""dried_meat.png""]",blank.png,blank.png,blank.png,4,"[""walnut.png""]","[""walnut.png""]","[""walnut.png""]","[""walnut.png""]",blank.png,blank.png,PB15.png,,,,,,,,,,,1,,,,,,,,,,,,,5438.770000000019,,completion,,,,,,,,,,,,,3,,,,,,,,,,,,,,,,,,,,,,,,,,,,,,,,,,,,,,,,,,,,,,,,,,,,,,,,,"[""walnut.png""]","[""dried_meat.png""]",,,,3,,,false,,1,,,,,,,350354.89499999676,350354.049,344898.586,344907.02499996405,344915.279,350370.797,,,,
fixCross,canvas.Screen,2_4_3_6_1_0_0_0_0_4_0,2021-05-24T16:16:53.552Z,,,blank.png,blank.png,blank.png,blank.png,blank.png,blank.png,blank.png,"[""dried_meat.png""]",blank.png,blank.png,blank.png,blank.png,blank.png,,,,,,,,,,,,,,,,,,,,,,,,,,,,,"[""dried_meat.png""]","[""walnut.png""]",PB18.png,,,,,,,,,,,0,6,"[""walnut.png""]","[""walnut.png""]","[""walnut.png""]","[""walnut.png""]","[""walnut.png""]","[""walnut.png""]",blank.png,PB18.png,PB12.png,"[""walnut.png""]","[""walnut.png""]","[""walnut.png""]","[""walnut.png""]","[""walnut.png""]","[""walnut.png""]","[""walnut.png""]","[""walnut.png""]",blank.png,blank.png,blank.png,blank.png,1,"[""dried_meat.png""]",blank.png,blank.png,blank.png,2,"[""walnut.png""]","[""walnut.png""]",blank.png,blank.png,blank.png,blank.png,PB12.png,,,,,,,,,,,1,,,,,,,,,,,,,900.8669999999693,,timeout,,,,,,,,,,,,,4,,,,,,,,,,,,,,,,,,,,,,,,,,,,,,,,,,,,,,,,,,,,,,,,,,,,,,,,,"[""walnut.png""]","[""dried_meat.png""]",,,,3,,,false,,1,,,,,,,350855.03500001505,350854.603,350354.049,350358.9599999832,350370.797,351271.664,5,,,
timeout,canvas.Screen,2_4_3_6_1_0_0_0_0_4_1,2021-05-24T16:16:54.453Z,,,blank.png,blank.png,blank.png,blank.png,blank.png,blank.png,blank.png,"[""dried_meat.png""]",blank.png,blank.png,blank.png,blank.png,blank.png,,,,,,,,,,,,,,,,,,,,,,,,,,,,,"[""dried_meat.png""]","[""walnut.png""]",PB18.png,,,,,,,,,,,0,6,"[""walnut.png""]","[""walnut.png""]","[""walnut.png""]","[""walnut.png""]","[""walnut.png""]","[""walnut.png""]",blank.png,PB18.png,PB12.png,"[""walnut.png""]","[""walnut.png""]","[""walnut.png""]","[""walnut.png""]","[""walnut.png""]","[""walnut.png""]","[""walnut.png""]","[""walnut.png""]",blank.png,blank.png,blank.png,blank.png,1,"[""dried_meat.png""]",blank.png,blank.png,blank.png,2,"[""walnut.png""]","[""walnut.png""]",blank.png,blank.png,blank.png,blank.png,PB12.png,,,,,,,,,,,1,,,,,,,,,,,,,917.5840000000317,,timeout,,,,,,,,,,,,,4,,,,,,,,,,,,,,,,,,,,,,,,,,,,,,,,,,,,,,,,,,,,,,,,,,,,,,,,,"[""walnut.png""]","[""dried_meat.png""]",,,,3,,,false,,1,,,,,,,351755.9599999804,351755.469,350854.603,351275.46499995515,351271.664,352189.248,,,,
choice,canvas.Screen,2_4_3_6_1_0_0_0_0_4_2,2021-05-24T16:16:55.260Z,,,blank.png,blank.png,blank.png,blank.png,blank.png,blank.png,blank.png,"[""dried_meat.png""]",blank.png,blank.png,blank.png,blank.png,blank.png,,,,,,,,,,,,,,,,,,,,,,,,,,,,,"[""dried_meat.png""]","[""walnut.png""]",PB18.png,,,,,,,,,,,0,6,"[""walnut.png""]","[""walnut.png""]","[""walnut.png""]","[""walnut.png""]","[""walnut.png""]","[""walnut.png""]",blank.png,PB18.png,PB12.png,"[""walnut.png""]","[""walnut.png""]","[""walnut.png""]","[""walnut.png""]","[""walnut.png""]","[""walnut.png""]","[""walnut.png""]","[""walnut.png""]",blank.png,blank.png,blank.png,blank.png,1,"[""dried_meat.png""]",blank.png,blank.png,blank.png,2,"[""walnut.png""]","[""walnut.png""]",blank.png,blank.png,blank.png,blank.png,PB12.png,,,,,,,,,,,1,,,,,,,,,,,,,372.64699993340764,,response,,,,,,,,,,,,,4,,,,,,,,,,,,,,,,,,,,,,,,,,,,,,,,,,,,,,,,,,,,,,,,,,,,,,,,,"[""walnut.png""]","[""dried_meat.png""]",,,,3,left,keydown(ArrowLeft),false,,1,,,,,,,352562.7800000366,352561.8949999334,351755.469,352193.4950000141,352189.248,352973.367,,5,,
square,canvas.Screen,2_4_3_6_1_0_0_0_0_4_3,2021-05-24T16:16:56.655Z,,,blank.png,blank.png,blank.png,blank.png,blank.png,blank.png,blank.png,"[""dried_meat.png""]",blank.png,blank.png,blank.png,blank.png,blank.png,,,,,,,,,,,,,,,,,,,,,,,,,,,,,"[""dried_meat.png""]","[""walnut.png""]",PB18.png,,,,,,,,,,,0,6,"[""walnut.png""]","[""walnut.png""]","[""walnut.png""]","[""walnut.png""]","[""walnut.png""]","[""walnut.png""]",blank.png,PB18.png,PB12.png,"[""walnut.png""]","[""walnut.png""]","[""walnut.png""]","[""walnut.png""]","[""walnut.png""]","[""walnut.png""]","[""walnut.png""]","[""walnut.png""]",blank.png,blank.png,blank.png,blank.png,1,"[""dried_meat.png""]",blank.png,blank.png,blank.png,2,"[""walnut.png""]","[""walnut.png""]",blank.png,blank.png,blank.png,blank.png,PB12.png,,,,,,,,,,,1,,,#33ff3f,#808080,,,,,,,,,1001.045999999973,,timeout,,,,,,,,,,,,,4,,,,,,,,,,,,,,,,,,,,,,,,,,,,,,,,,,,,,,,,,,,,,,,,,,,,,,,,,"[""walnut.png""]","[""dried_meat.png""]",,,,3,,,false,,1,,,,,black,white,353958.239999949,353957.68,352956.661,352964.0649999492,352973.367,353974.413,,,,
ITI_late,canvas.Screen,2_4_3_6_1_0_0_0_0_4_4,2021-05-24T16:16:57.656Z,,,blank.png,blank.png,blank.png,blank.png,blank.png,blank.png,blank.png,"[""dried_meat.png""]",blank.png,blank.png,blank.png,blank.png,blank.png,,,,,,,,,,,,,,,,,,,,,,,,,,,,,"[""dried_meat.png""]","[""walnut.png""]",PB18.png,,,,,,,,,,,0,6,"[""walnut.png""]","[""walnut.png""]","[""walnut.png""]","[""walnut.png""]","[""walnut.png""]","[""walnut.png""]",blank.png,PB18.png,PB12.png,"[""walnut.png""]","[""walnut.png""]","[""walnut.png""]","[""walnut.png""]","[""walnut.png""]","[""walnut.png""]","[""walnut.png""]","[""walnut.png""]",blank.png,blank.png,blank.png,blank.png,1,"[""dried_meat.png""]",blank.png,blank.png,blank.png,2,"[""walnut.png""]","[""walnut.png""]",blank.png,blank.png,blank.png,blank.png,PB12.png,,,,,,,,,,,1,,,,,,,,,,,,,1001.0169999999925,,timeout,,,,,,,,,,,,white,4,,,,,,,,,,,,,,,,,,,,,,,,,,,,,,,,,,,,,,,,,,,,,,,,,,,,,,,,,"[""walnut.png""]","[""dried_meat.png""]",,,,3,,,false,,1,,,,,,,354959.15499993134,354958.684,353957.68,353960.3949999437,353974.413,354975.43,,,,
choice_sequence,flow.Sequence,2_4_3_6_1_0_0_0_0_4,2021-05-24T16:16:57.656Z,,,blank.png,blank.png,blank.png,blank.png,blank.png,blank.png,blank.png,"[""dried_meat.png""]",blank.png,blank.png,blank.png,blank.png,blank.png,,,,,,,,,,,,,,,,,,,,,,,,,,,,,"[""dried_meat.png""]","[""walnut.png""]",PB18.png,,,,,,,,,,,0,6,"[""walnut.png""]","[""walnut.png""]","[""walnut.png""]","[""walnut.png""]","[""walnut.png""]","[""walnut.png""]",blank.png,PB18.png,PB12.png,"[""walnut.png""]","[""walnut.png""]","[""walnut.png""]","[""walnut.png""]","[""walnut.png""]","[""walnut.png""]","[""walnut.png""]","[""walnut.png""]",blank.png,blank.png,blank.png,blank.png,1,"[""dried_meat.png""]",blank.png,blank.png,blank.png,2,"[""walnut.png""]","[""walnut.png""]",blank.png,blank.png,blank.png,blank.png,PB12.png,,,,,,,,,,,1,,,,,,,,,,,,,4587.886999999988,,completion,,,,,,,,,,,,,4,,,,,,,,,,,,,,,,,,,,,,,,,,,,,,,,,,,,,,,,,,,,,,,,,,,,,,,,,"[""walnut.png""]","[""dried_meat.png""]",,,,3,,,false,,1,,,,,,,354959.6550000133,354958.684,350354.049,350358.1499999855,350370.797,354975.43,,,,
fixCross,canvas.Screen,2_4_3_6_1_0_0_0_0_5_0,2021-05-24T16:16:58.157Z,,,blank.png,blank.png,blank.png,blank.png,blank.png,blank.png,blank.png,"[""dried_meat.png""]",blank.png,blank.png,blank.png,blank.png,blank.png,,,,,,,,,,,,,,,,,,,,,,,,,,,,,"[""dried_meat.png""]","[""walnut.png""]",PB18.png,,,,,,,,,,,0,6,"[""walnut.png""]","[""walnut.png""]","[""walnut.png""]","[""walnut.png""]","[""walnut.png""]","[""walnut.png""]",blank.png,PB18.png,PB01.png,"[""walnut.png""]","[""walnut.png""]","[""walnut.png""]","[""walnut.png""]","[""walnut.png""]","[""walnut.png""]",blank.png,blank.png,blank.png,blank.png,blank.png,blank.png,1,"[""dried_meat.png""]",blank.png,blank.png,blank.png,0,blank.png,blank.png,blank.png,blank.png,blank.png,blank.png,PB01.png,,,,,,,,,,,1,,,,,,,,,,,,,2369.021000000008,,timeout,,,,,,,,,,,,,4,,,,,,,,,,,,,,,,,,,,,,,,,,,,,,,,,,,,,,,,,,,,,,,,,,,,,,,,,"[""walnut.png""]","[""dried_meat.png""]",,,,3,,,false,,1,,,,,,,355459.6700000111,355459.187,354958.684,354966.89499996137,354975.43,357344.451,6,,,
timeout,canvas.Screen,2_4_3_6_1_0_0_0_0_5_1,2021-05-24T16:17:00.526Z,,,blank.png,blank.png,blank.png,blank.png,blank.png,blank.png,blank.png,"[""dried_meat.png""]",blank.png,blank.png,blank.png,blank.png,blank.png,,,,,,,,,,,,,,,,,,,,,,,,,,,,,"[""dried_meat.png""]","[""walnut.png""]",PB18.png,,,,,,,,,,,0,6,"[""walnut.png""]","[""walnut.png""]","[""walnut.png""]","[""walnut.png""]","[""walnut.png""]","[""walnut.png""]",blank.png,PB18.png,PB01.png,"[""walnut.png""]","[""walnut.png""]","[""walnut.png""]","[""walnut.png""]","[""walnut.png""]","[""walnut.png""]",blank.png,blank.png,blank.png,blank.png,blank.png,blank.png,1,"[""dried_meat.png""]",blank.png,blank.png,blank.png,0,blank.png,blank.png,blank.png,blank.png,blank.png,blank.png,PB01.png,,,,,,,,,,,1,,,,,,,,,,,,,884.2119999999995,,timeout,,,,,,,,,,,,,4,,,,,,,,,,,,,,,,,,,,,,,,,,,,,,,,,,,,,,,,,,,,,,,,,,,,,,,,,"[""walnut.png""]","[""dried_meat.png""]",,,,3,,,false,,1,,,,,,,357828.72999995016,357828.231,355459.187,357348.2499999227,357344.451,358228.663,,,,
choice,canvas.Screen,2_4_3_6_1_0_0_0_0_5_2,2021-05-24T16:17:02.548Z,,,blank.png,blank.png,blank.png,blank.png,blank.png,blank.png,blank.png,"[""dried_meat.png""]",blank.png,blank.png,blank.png,blank.png,blank.png,,,,,,,,,,,,,,,,,,,,,,,,,,,,,"[""dried_meat.png""]","[""walnut.png""]",PB18.png,,,,,,,,,,,0,6,"[""walnut.png""]","[""walnut.png""]","[""walnut.png""]","[""walnut.png""]","[""walnut.png""]","[""walnut.png""]",blank.png,PB18.png,PB01.png,"[""walnut.png""]","[""walnut.png""]","[""walnut.png""]","[""walnut.png""]","[""walnut.png""]","[""walnut.png""]",blank.png,blank.png,blank.png,blank.png,blank.png,blank.png,1,"[""dried_meat.png""]",blank.png,blank.png,blank.png,0,blank.png,blank.png,blank.png,blank.png,blank.png,blank.png,PB01.png,,,,,,,,,,,1,,,,,,,,,,,,,1621.1469999269466,,response,,,,,,,,,,,,,4,,,,,,,,,,,,,,,,,,,,,,,,,,,,,,,,,,,,,,,,,,,,,,,,,,,,,,,,,"[""walnut.png""]","[""dried_meat.png""]",,,,3,left,keydown(ArrowLeft),false,,1,,,,,,,359850.77999997884,359849.80999992695,357828.231,358217.30000001844,358228.663,360213.962,,6,,
square,canvas.Screen,2_4_3_6_1_0_0_0_0_5_3,2021-05-24T16:17:03.896Z,,,blank.png,blank.png,blank.png,blank.png,blank.png,blank.png,blank.png,"[""dried_meat.png""]",blank.png,blank.png,blank.png,blank.png,blank.png,,,,,,,,,,,,,,,,,,,,,,,,,,,,,"[""dried_meat.png""]","[""walnut.png""]",PB18.png,,,,,,,,,,,0,6,"[""walnut.png""]","[""walnut.png""]","[""walnut.png""]","[""walnut.png""]","[""walnut.png""]","[""walnut.png""]",blank.png,PB18.png,PB01.png,"[""walnut.png""]","[""walnut.png""]","[""walnut.png""]","[""walnut.png""]","[""walnut.png""]","[""walnut.png""]",blank.png,blank.png,blank.png,blank.png,blank.png,blank.png,1,"[""dried_meat.png""]",blank.png,blank.png,blank.png,0,blank.png,blank.png,blank.png,blank.png,blank.png,blank.png,PB01.png,,,,,,,,,,,1,,,#33ff3f,#808080,,,,,,,,,1001.0219999999972,,timeout,,,,,,,,,,,,,4,,,,,,,,,,,,,,,,,,,,,,,,,,,,,,,,,,,,,,,,,,,,,,,,,,,,,,,,,"[""walnut.png""]","[""dried_meat.png""]",,,,3,,,false,,1,,,,,black,white,361198.7449999433,361198.281,360197.231,360201.22499996796,360213.962,361214.984,,,,
ITI_late,canvas.Screen,2_4_3_6_1_0_0_0_0_5_4,2021-05-24T16:17:04.897Z,,,blank.png,blank.png,blank.png,blank.png,blank.png,blank.png,blank.png,"[""dried_meat.png""]",blank.png,blank.png,blank.png,blank.png,blank.png,,,,,,,,,,,,,,,,,,,,,,,,,,,,,"[""dried_meat.png""]","[""walnut.png""]",PB18.png,,,,,,,,,,,0,6,"[""walnut.png""]","[""walnut.png""]","[""walnut.png""]","[""walnut.png""]","[""walnut.png""]","[""walnut.png""]",blank.png,PB18.png,PB01.png,"[""walnut.png""]","[""walnut.png""]","[""walnut.png""]","[""walnut.png""]","[""walnut.png""]","[""walnut.png""]",blank.png,blank.png,blank.png,blank.png,blank.png,blank.png,1,"[""dried_meat.png""]",blank.png,blank.png,blank.png,0,blank.png,blank.png,blank.png,blank.png,blank.png,blank.png,PB01.png,,,,,,,,,,,1,,,,,,,,,,,,,1001.005999999994,,timeout,,,,,,,,,,,,white,4,,,,,,,,,,,,,,,,,,,,,,,,,,,,,,,,,,,,,,,,,,,,,,,,,,,,,,,,,"[""walnut.png""]","[""dried_meat.png""]",,,,3,,,false,,1,,,,,,,362199.7500000289,362199.286,361198.281,361200.6999999285,361214.984,362215.99,,,,
choice_sequence,flow.Sequence,2_4_3_6_1_0_0_0_0_5,2021-05-24T16:17:04.897Z,,,blank.png,blank.png,blank.png,blank.png,blank.png,blank.png,blank.png,"[""dried_meat.png""]",blank.png,blank.png,blank.png,blank.png,blank.png,,,,,,,,,,,,,,,,,,,,,,,,,,,,,"[""dried_meat.png""]","[""walnut.png""]",PB18.png,,,,,,,,,,,0,6,"[""walnut.png""]","[""walnut.png""]","[""walnut.png""]","[""walnut.png""]","[""walnut.png""]","[""walnut.png""]",blank.png,PB18.png,PB01.png,"[""walnut.png""]","[""walnut.png""]","[""walnut.png""]","[""walnut.png""]","[""walnut.png""]","[""walnut.png""]",blank.png,blank.png,blank.png,blank.png,blank.png,blank.png,1,"[""dried_meat.png""]",blank.png,blank.png,blank.png,0,blank.png,blank.png,blank.png,blank.png,blank.png,blank.png,PB01.png,,,,,,,,,,,1,,,,,,,,,,,,,7223.856000000029,,completion,,,,,,,,,,,,,4,,,,,,,,,,,,,,,,,,,,,,,,,,,,,,,,,,,,,,,,,,,,,,,,,,,,,,,,,"[""walnut.png""]","[""dried_meat.png""]",,,,3,,,false,,1,,,,,,,362200.22999995854,362199.286,354958.684,354965.6149999937,354975.43,362215.99,,,,
fixCross,canvas.Screen,2_4_3_6_1_0_0_0_0_6_0,2021-05-24T16:17:05.447Z,,,blank.png,blank.png,blank.png,blank.png,blank.png,blank.png,blank.png,"[""dried_meat.png""]",blank.png,blank.png,blank.png,blank.png,blank.png,,,,,,,,,,,,,,,,,,,,,,,,,,,,,"[""dried_meat.png""]","[""walnut.png""]",PB18.png,,,,,,,,,,,0,6,"[""walnut.png""]","[""walnut.png""]","[""walnut.png""]","[""walnut.png""]","[""walnut.png""]","[""walnut.png""]",blank.png,PB18.png,PB17.png,"[""walnut.png""]","[""walnut.png""]","[""walnut.png""]","[""walnut.png""]","[""walnut.png""]","[""walnut.png""]","[""walnut.png""]","[""walnut.png""]","[""walnut.png""]","[""walnut.png""]","[""walnut.png""]","[""walnut.png""]",1,"[""dried_meat.png""]",blank.png,blank.png,blank.png,6,"[""walnut.png""]","[""walnut.png""]","[""walnut.png""]","[""walnut.png""]","[""walnut.png""]","[""walnut.png""]",PB17.png,,,,,,,,,,,1,,,,,,,,,,,,,3119.80700000003,,timeout,,,,,,,,,,,,,4,,,,,,,,,,,,,,,,,,,,,,,,,,,,,,,,,,,,,,,,,,,,,,,,,,,,,,,,,"[""walnut.png""]","[""dried_meat.png""]",,,,3,,,false,,1,,,,,,,362750.34499994945,362749.839,362199.286,362204.91500000935,362215.99,365335.797,7,,,
timeout,canvas.Screen,2_4_3_6_1_0_0_0_0_6_1,2021-05-24T16:17:08.517Z,,,blank.png,blank.png,blank.png,blank.png,blank.png,blank.png,blank.png,"[""dried_meat.png""]",blank.png,blank.png,blank.png,blank.png,blank.png,,,,,,,,,,,,,,,,,,,,,,,,,,,,,"[""dried_meat.png""]","[""walnut.png""]",PB18.png,,,,,,,,,,,0,6,"[""walnut.png""]","[""walnut.png""]","[""walnut.png""]","[""walnut.png""]","[""walnut.png""]","[""walnut.png""]",blank.png,PB18.png,PB17.png,"[""walnut.png""]","[""walnut.png""]","[""walnut.png""]","[""walnut.png""]","[""walnut.png""]","[""walnut.png""]","[""walnut.png""]","[""walnut.png""]","[""walnut.png""]","[""walnut.png""]","[""walnut.png""]","[""walnut.png""]",1,"[""dried_meat.png""]",blank.png,blank.png,blank.png,6,"[""walnut.png""]","[""walnut.png""]","[""walnut.png""]","[""walnut.png""]","[""walnut.png""]","[""walnut.png""]",PB17.png,,,,,,,,,,,1,,,,,,,,,,,,,1017.7010000000009,,timeout,,,,,,,,,,,,,4,,,,,,,,,,,,,,,,,,,,,,,,,,,,,,,,,,,,,,,,,,,,,,,,,,,,,,,,,"[""walnut.png""]","[""dried_meat.png""]",,,,3,,,false,,1,,,,,,,365820.05999994,365819.585,362749.839,365340.1900000172,365335.797,366353.498,,,,
choice,canvas.Screen,2_4_3_6_1_0_0_0_0_6_2,2021-05-24T16:17:10.116Z,,,blank.png,blank.png,blank.png,blank.png,blank.png,blank.png,blank.png,"[""dried_meat.png""]",blank.png,blank.png,blank.png,blank.png,blank.png,,,,,,,,,,,,,,,,,,,,,,,,,,,,,"[""dried_meat.png""]","[""walnut.png""]",PB18.png,,,,,,,,,,,0,6,"[""walnut.png""]","[""walnut.png""]","[""walnut.png""]","[""walnut.png""]","[""walnut.png""]","[""walnut.png""]",blank.png,PB18.png,PB17.png,"[""walnut.png""]","[""walnut.png""]","[""walnut.png""]","[""walnut.png""]","[""walnut.png""]","[""walnut.png""]","[""walnut.png""]","[""walnut.png""]","[""walnut.png""]","[""walnut.png""]","[""walnut.png""]","[""walnut.png""]",1,"[""dried_meat.png""]",blank.png,blank.png,blank.png,6,"[""walnut.png""]","[""walnut.png""]","[""walnut.png""]","[""walnut.png""]","[""walnut.png""]","[""walnut.png""]",PB17.png,,,,,,,,,,,1,,,,,,,,,,,,,1064.4269999578828,,response,,,,,,,,,,,,,4,,,,,,,,,,,,,,,,,,,,,,,,,,,,,,,,,,,,,,,,,,,,,,,,,,,,,,,,,"[""walnut.png""]","[""dried_meat.png""]",,,,3,right,keydown(ArrowRight),false,,1,,,,,,,367418.82499994244,367417.9249999579,365819.585,366343.6249999795,366353.498,367921.697,,7,,
square,canvas.Screen,2_4_3_6_1_0_0_0_0_6_3,2021-05-24T16:17:11.604Z,,,blank.png,blank.png,blank.png,blank.png,blank.png,blank.png,blank.png,"[""dried_meat.png""]",blank.png,blank.png,blank.png,blank.png,blank.png,,,,,,,,,,,,,,,,,,,,,,,,,,,,,"[""dried_meat.png""]","[""walnut.png""]",PB18.png,,,,,,,,,,,0,6,"[""walnut.png""]","[""walnut.png""]","[""walnut.png""]","[""walnut.png""]","[""walnut.png""]","[""walnut.png""]",blank.png,PB18.png,PB17.png,"[""walnut.png""]","[""walnut.png""]","[""walnut.png""]","[""walnut.png""]","[""walnut.png""]","[""walnut.png""]","[""walnut.png""]","[""walnut.png""]","[""walnut.png""]","[""walnut.png""]","[""walnut.png""]","[""walnut.png""]",1,"[""dried_meat.png""]",blank.png,blank.png,blank.png,6,"[""walnut.png""]","[""walnut.png""]","[""walnut.png""]","[""walnut.png""]","[""walnut.png""]","[""walnut.png""]",PB17.png,,,,,,,,,,,1,,,#808080,#33ff3f,,,,,,,,,1001.0450000000419,,timeout,,,,,,,,,,,,,4,,,,,,,,,,,,,,,,,,,,,,,,,,,,,,,,,,,,,,,,,,,,,,,,,,,,,,,,,"[""walnut.png""]","[""dried_meat.png""]",,,,3,,,false,,1,,,,,white,black,368906.68499993626,368906.014,367904.975,367913.8399999356,367921.697,368922.742,,,,
ITI_late,canvas.Screen,2_4_3_6_1_0_0_0_0_6_4,2021-05-24T16:17:12.855Z,,,blank.png,blank.png,blank.png,blank.png,blank.png,blank.png,blank.png,"[""dried_meat.png""]",blank.png,blank.png,blank.png,blank.png,blank.png,,,,,,,,,,,,,,,,,,,,,,,,,,,,,"[""dried_meat.png""]","[""walnut.png""]",PB18.png,,,,,,,,,,,0,6,"[""walnut.png""]","[""walnut.png""]","[""walnut.png""]","[""walnut.png""]","[""walnut.png""]","[""walnut.png""]",blank.png,PB18.png,PB17.png,"[""walnut.png""]","[""walnut.png""]","[""walnut.png""]","[""walnut.png""]","[""walnut.png""]","[""walnut.png""]","[""walnut.png""]","[""walnut.png""]","[""walnut.png""]","[""walnut.png""]","[""walnut.png""]","[""walnut.png""]",1,"[""dried_meat.png""]",blank.png,blank.png,blank.png,6,"[""walnut.png""]","[""walnut.png""]","[""walnut.png""]","[""walnut.png""]","[""walnut.png""]","[""walnut.png""]",PB17.png,,,,,,,,,,,1,,,,,,,,,,,,,1267.9109999999637,,timeout,,,,,,,,,,,,white,4,,,,,,,,,,,,,,,,,,,,,,,,,,,,,,,,,,,,,,,,,,,,,,,,,,,,,,,,,"[""walnut.png""]","[""dried_meat.png""]",,,,3,,,false,,1,,,,,,,370157.68499998376,370157.247,368906.014,368908.85499992874,368922.742,370190.653,,,,
choice_sequence,flow.Sequence,2_4_3_6_1_0_0_0_0_6,2021-05-24T16:17:12.855Z,,,blank.png,blank.png,blank.png,blank.png,blank.png,blank.png,blank.png,"[""dried_meat.png""]",blank.png,blank.png,blank.png,blank.png,blank.png,,,,,,,,,,,,,,,,,,,,,,,,,,,,,"[""dried_meat.png""]","[""walnut.png""]",PB18.png,,,,,,,,,,,0,6,"[""walnut.png""]","[""walnut.png""]","[""walnut.png""]","[""walnut.png""]","[""walnut.png""]","[""walnut.png""]",blank.png,PB18.png,PB17.png,"[""walnut.png""]","[""walnut.png""]","[""walnut.png""]","[""walnut.png""]","[""walnut.png""]","[""walnut.png""]","[""walnut.png""]","[""walnut.png""]","[""walnut.png""]","[""walnut.png""]","[""walnut.png""]","[""walnut.png""]",1,"[""dried_meat.png""]",blank.png,blank.png,blank.png,6,"[""walnut.png""]","[""walnut.png""]","[""walnut.png""]","[""walnut.png""]","[""walnut.png""]","[""walnut.png""]",PB17.png,,,,,,,,,,,1,,,,,,,,,,,,,7941.256999999983,,completion,,,,,,,,,,,,,4,,,,,,,,,,,,,,,,,,,,,,,,,,,,,,,,,,,,,,,,,,,,,,,,,,,,,,,,,"[""walnut.png""]","[""dried_meat.png""]",,,,3,,,false,,1,,,,,,,370158.24000001885,370157.247,362199.286,362203.99499998894,362215.99,370190.653,,,,
choice_loop,flow.Loop,2_4_3_6_1_0_0_0_0,2021-05-24T16:17:12.855Z,,,,,,,,,,,,,,,,,,,,,,,,,,,,,,,,,,,,,,,,,,,,"[""dried_meat.png""]","[""walnut.png""]",,,,,,,,,,,,,,,,,,,,,,,,,,,,,,,,,,,,,,,,,,,,,,,,,,,,,,,,,,,,,,,,,,,,,,,43660.456999999995,,completion,,,,,,,,,,,,,,,,,,,,,,,,,,,,,,,,,,,,,,,,,,,,,,,,,,,,,,,,,,,,,,,,,,,,,,"[""walnut.png""]","[""dried_meat.png""]",,,,3,,,false,,,,,,,,,370158.57500000857,370157.247,326463.418,326493.5800000094,326496.79,370190.653,,,,
choice_frame,html.Frame,2_4_3_6_1_0_0_0,2021-05-24T16:17:12.856Z,,,,,,,,,,,,,,,,,,,,,,,,,,,,,,,,,,,,,,,,,,,,,,,,,,,,,,,,,,,,,,,,,,,,,,,,,,,,,,,,,,,,,,,,,,,,,,,,,,,,,,,,,,,,,,,,,,,,43661.88499995513,,,,,,,,,,,,,,,,,,,,,,,,,,,,,,,,,,,,,,,,,,,,,,,,,,,,,,,,,,,,,,,,,,,,,,,,,,,,,3,,,false,,,,,,,,,370158.8149999734,370158.6749999551,326463.418,326464.02499999385,326496.79,370207.38,,,,
sublock_1,flow.Sequence,2_4_3_6_1_0_0,2021-05-24T16:17:12.856Z,,,,,,,,,,,,,,,,,,,,,,,,,,,,,,,,,,,,,,,,,,,,,,,,,,,,,,,,,,,,,,,,,,,,,,,,,,,,,,,,,,,,,,,,,,,,,,,,,,,,,,,,,,,,,,,,,,,,43661.88499995513,,completion,,,,,,,,,,,,,,,,,,,,,,,,,,,,,,,,,,,,,,,,,,,,,,,,,,,,,,,,,,,,,,,,,,,,,,,,,,,3,,,false,,,,,,,,,370158.9649999514,370158.6749999551,326463.418,326463.9749999624,326496.79,370207.38,,,,
fixCross,canvas.Screen,2_4_3_6_1_0_1_0_0_0_0,2021-05-24T16:17:13.439Z,,,blank.png,blank.png,blank.png,blank.png,blank.png,blank.png,blank.png,"[""dried_meat.png""]",blank.png,blank.png,blank.png,blank.png,blank.png,,,,,,,,,,,,,,,,,,,,,,,,,,,,,"[""dried_meat.png""]","[""walnut.png""]",PB18.png,,,,,,,,,,,0,6,"[""walnut.png""]","[""walnut.png""]","[""walnut.png""]","[""walnut.png""]","[""walnut.png""]","[""walnut.png""]",blank.png,PB18.png,PB15.png,"[""walnut.png""]","[""walnut.png""]","[""walnut.png""]","[""walnut.png""]","[""walnut.png""]","[""walnut.png""]","[""walnut.png""]","[""walnut.png""]","[""walnut.png""]","[""walnut.png""]",blank.png,blank.png,1,"[""dried_meat.png""]",blank.png,blank.png,blank.png,4,"[""walnut.png""]","[""walnut.png""]","[""walnut.png""]","[""walnut.png""]",blank.png,blank.png,PB15.png,,,,,,,,,,,1,,,,,,,,,,,,,1000.935999999987,,timeout,,,,,,,,,,,,,4,,,,,,,,,,,,,,,,,,,,,,,,,,,,,,,,,,,,,,,,,,,,,,,,,,,,,,,,,"[""walnut.png""]","[""dried_meat.png""]",,,,4,,,false,,1,,,,,,,370741.75499996636,370741.193,370190.653,370191.1400000099,370207.38,371208.316,8,,,
timeout,canvas.Screen,2_4_3_6_1_0_1_0_0_0_1,2021-05-24T16:17:14.390Z,,,blank.png,blank.png,blank.png,blank.png,blank.png,blank.png,blank.png,"[""dried_meat.png""]",blank.png,blank.png,blank.png,blank.png,blank.png,,,,,,,,,,,,,,,,,,,,,,,,,,,,,"[""dried_meat.png""]","[""walnut.png""]",PB18.png,,,,,,,,,,,0,6,"[""walnut.png""]","[""walnut.png""]","[""walnut.png""]","[""walnut.png""]","[""walnut.png""]","[""walnut.png""]",blank.png,PB18.png,PB15.png,"[""walnut.png""]","[""walnut.png""]","[""walnut.png""]","[""walnut.png""]","[""walnut.png""]","[""walnut.png""]","[""walnut.png""]","[""walnut.png""]","[""walnut.png""]","[""walnut.png""]",blank.png,blank.png,1,"[""dried_meat.png""]",blank.png,blank.png,blank.png,4,"[""walnut.png""]","[""walnut.png""]","[""walnut.png""]","[""walnut.png""]",blank.png,blank.png,PB15.png,,,,,,,,,,,1,,,,,,,,,,,,,967.6440000000293,,timeout,,,,,,,,,,,,,4,,,,,,,,,,,,,,,,,,,,,,,,,,,,,,,,,,,,,,,,,,,,,,,,,,,,,,,,,"[""walnut.png""]","[""dried_meat.png""]",,,,4,,,false,,1,,,,,,,371692.65500002075,371692.146,370741.193,371196.5949999867,371208.316,372175.96,,,,
choice,canvas.Screen,2_4_3_6_1_0_1_0_0_0_2,2021-05-24T16:17:17.445Z,,,blank.png,blank.png,blank.png,blank.png,blank.png,blank.png,blank.png,"[""dried_meat.png""]",blank.png,blank.png,blank.png,blank.png,blank.png,,,,,,,,,,,,,,,,,,,,,,,,,,,,,"[""dried_meat.png""]","[""walnut.png""]",PB18.png,,,,,,,,,,,0,6,"[""walnut.png""]","[""walnut.png""]","[""walnut.png""]","[""walnut.png""]","[""walnut.png""]","[""walnut.png""]",blank.png,PB18.png,PB15.png,"[""walnut.png""]","[""walnut.png""]","[""walnut.png""]","[""walnut.png""]","[""walnut.png""]","[""walnut.png""]","[""walnut.png""]","[""walnut.png""]","[""walnut.png""]","[""walnut.png""]",blank.png,blank.png,1,"[""dried_meat.png""]",blank.png,blank.png,blank.png,4,"[""walnut.png""]","[""walnut.png""]","[""walnut.png""]","[""walnut.png""]",blank.png,blank.png,PB15.png,,,,,,,,,,,1,,,,,,,,,,,,,2569.9849999732687,,response,,,,,,,,,,,,,4,,,,,,,,,,,,,,,,,,,,,,,,,,,,,,,,,,,,,,,,,,,,,,,,,,,,,,,,,"[""walnut.png""]","[""dried_meat.png""]",,,,4,right,keydown(ArrowRight),false,,1,,,,,,,374747.9250000324,374745.9449999733,371692.146,372165.8799999859,372175.96,375212.359,,8,,
square,canvas.Screen,2_4_3_6_1_0_1_0_0_0_3,2021-05-24T16:17:18.894Z,,,blank.png,blank.png,blank.png,blank.png,blank.png,blank.png,blank.png,"[""dried_meat.png""]",blank.png,blank.png,blank.png,blank.png,blank.png,,,,,,,,,,,,,,,,,,,,,,,,,,,,,"[""dried_meat.png""]","[""walnut.png""]",PB18.png,,,,,,,,,,,0,6,"[""walnut.png""]","[""walnut.png""]","[""walnut.png""]","[""walnut.png""]","[""walnut.png""]","[""walnut.png""]",blank.png,PB18.png,PB15.png,"[""walnut.png""]","[""walnut.png""]","[""walnut.png""]","[""walnut.png""]","[""walnut.png""]","[""walnut.png""]","[""walnut.png""]","[""walnut.png""]","[""walnut.png""]","[""walnut.png""]",blank.png,blank.png,1,"[""dried_meat.png""]",blank.png,blank.png,blank.png,4,"[""walnut.png""]","[""walnut.png""]","[""walnut.png""]","[""walnut.png""]",blank.png,blank.png,PB15.png,,,,,,,,,,,1,,,#808080,#33ff3f,,,,,,,,,1001.0339999999851,,timeout,,,,,,,,,,,,,4,,,,,,,,,,,,,,,,,,,,,,,,,,,,,,,,,,,,,,,,,,,,,,,,,,,,,,,,,"[""walnut.png""]","[""dried_meat.png""]",,,,4,,,false,,1,,,,,white,black,376197.24499993026,376196.666,375195.587,375203.0650000088,375212.359,376213.393,,,,
ITI_late,canvas.Screen,2_4_3_6_1_0_1_0_0_0_4,2021-05-24T16:17:19.895Z,,,blank.png,blank.png,blank.png,blank.png,blank.png,blank.png,blank.png,"[""dried_meat.png""]",blank.png,blank.png,blank.png,blank.png,blank.png,,,,,,,,,,,,,,,,,,,,,,,,,,,,,"[""dried_meat.png""]","[""walnut.png""]",PB18.png,,,,,,,,,,,0,6,"[""walnut.png""]","[""walnut.png""]","[""walnut.png""]","[""walnut.png""]","[""walnut.png""]","[""walnut.png""]",blank.png,PB18.png,PB15.png,"[""walnut.png""]","[""walnut.png""]","[""walnut.png""]","[""walnut.png""]","[""walnut.png""]","[""walnut.png""]","[""walnut.png""]","[""walnut.png""]","[""walnut.png""]","[""walnut.png""]",blank.png,blank.png,1,"[""dried_meat.png""]",blank.png,blank.png,blank.png,4,"[""walnut.png""]","[""walnut.png""]","[""walnut.png""]","[""walnut.png""]",blank.png,blank.png,PB15.png,,,,,,,,,,,1,,,,,,,,,,,,,1001.005999999994,,timeout,,,,,,,,,,,,white,4,,,,,,,,,,,,,,,,,,,,,,,,,,,,,,,,,,,,,,,,,,,,,,,,,,,,,,,,,"[""walnut.png""]","[""dried_meat.png""]",,,,4,,,false,,1,,,,,,,377198.12499999534,377197.675,376196.666,376198.8799999235,376213.393,377214.399,,,,
choice_sequence,flow.Sequence,2_4_3_6_1_0_1_0_0_0,2021-05-24T16:17:19.895Z,,,blank.png,blank.png,blank.png,blank.png,blank.png,blank.png,blank.png,"[""dried_meat.png""]",blank.png,blank.png,blank.png,blank.png,blank.png,,,,,,,,,,,,,,,,,,,,,,,,,,,,,"[""dried_meat.png""]","[""walnut.png""]",PB18.png,,,,,,,,,,,0,6,"[""walnut.png""]","[""walnut.png""]","[""walnut.png""]","[""walnut.png""]","[""walnut.png""]","[""walnut.png""]",blank.png,PB18.png,PB15.png,"[""walnut.png""]","[""walnut.png""]","[""walnut.png""]","[""walnut.png""]","[""walnut.png""]","[""walnut.png""]","[""walnut.png""]","[""walnut.png""]","[""walnut.png""]","[""walnut.png""]",blank.png,blank.png,1,"[""dried_meat.png""]",blank.png,blank.png,blank.png,4,"[""walnut.png""]","[""walnut.png""]","[""walnut.png""]","[""walnut.png""]",blank.png,blank.png,PB15.png,,,,,,,,,,,1,,,,,,,,,,,,,6990.294999999984,,completion,,,,,,,,,,,,,4,,,,,,,,,,,,,,,,,,,,,,,,,,,,,,,,,,,,,,,,,,,,,,,,,,,,,,,,,"[""walnut.png""]","[""dried_meat.png""]",,,,4,,,false,,1,,,,,,,377198.5499999719,377197.675,370190.653,370190.1849999558,370207.38,377214.399,,,,
fixCross,canvas.Screen,2_4_3_6_1_0_1_0_0_1_0,2021-05-24T16:17:20.596Z,,,blank.png,blank.png,blank.png,blank.png,blank.png,blank.png,blank.png,"[""dried_meat.png""]",blank.png,blank.png,blank.png,blank.png,blank.png,,,,,,,,,,,,,,,,,,,,,,,,,,,,,"[""dried_meat.png""]","[""walnut.png""]",PB18.png,,,,,,,,,,,0,6,"[""walnut.png""]","[""walnut.png""]","[""walnut.png""]","[""walnut.png""]","[""walnut.png""]","[""walnut.png""]",blank.png,PB18.png,PB07.png,"[""walnut.png""]","[""walnut.png""]","[""walnut.png""]","[""walnut.png""]","[""walnut.png""]","[""walnut.png""]","[""walnut.png""]",blank.png,blank.png,blank.png,blank.png,blank.png,1,"[""dried_meat.png""]",blank.png,blank.png,blank.png,1,"[""walnut.png""]",blank.png,blank.png,blank.png,blank.png,blank.png,PB07.png,,,,,,,,,,,1,,,,,,,,,,,,,1084.3660000000382,,timeout,,,,,,,,,,,,,4,,,,,,,,,,,,,,,,,,,,,,,,,,,,,,,,,,,,,,,,,,,,,,,,,,,,,,,,,"[""walnut.png""]","[""dried_meat.png""]",,,,4,,,false,,1,,,,,,,377898.84999999776,377898.376,377197.675,377202.5999999605,377214.399,378298.765,9,,,
timeout,canvas.Screen,2_4_3_6_1_0_1_0_0_1_1,2021-05-24T16:17:21.482Z,,,blank.png,blank.png,blank.png,blank.png,blank.png,blank.png,blank.png,"[""dried_meat.png""]",blank.png,blank.png,blank.png,blank.png,blank.png,,,,,,,,,,,,,,,,,,,,,,,,,,,,,"[""dried_meat.png""]","[""walnut.png""]",PB18.png,,,,,,,,,,,0,6,"[""walnut.png""]","[""walnut.png""]","[""walnut.png""]","[""walnut.png""]","[""walnut.png""]","[""walnut.png""]",blank.png,PB18.png,PB07.png,"[""walnut.png""]","[""walnut.png""]","[""walnut.png""]","[""walnut.png""]","[""walnut.png""]","[""walnut.png""]","[""walnut.png""]",blank.png,blank.png,blank.png,blank.png,blank.png,1,"[""dried_meat.png""]",blank.png,blank.png,blank.png,1,"[""walnut.png""]",blank.png,blank.png,blank.png,blank.png,blank.png,PB07.png,,,,,,,,,,,1,,,,,,,,,,,,,884.2429999999586,,timeout,,,,,,,,,,,,,4,,,,,,,,,,,,,,,,,,,,,,,,,,,,,,,,,,,,,,,,,,,,,,,,,,,,,,,,,"[""walnut.png""]","[""dried_meat.png""]",,,,4,,,false,,1,,,,,,,378784.68499996234,378782.604,377898.376,378288.7900000205,378298.765,379183.008,,,,
choice,canvas.Screen,2_4_3_6_1_0_1_0_0_1_2,2021-05-24T16:17:22.012Z,,,blank.png,blank.png,blank.png,blank.png,blank.png,blank.png,blank.png,"[""dried_meat.png""]",blank.png,blank.png,blank.png,blank.png,blank.png,,,,,,,,,,,,,,,,,,,,,,,,,,,,,"[""dried_meat.png""]","[""walnut.png""]",PB18.png,,,,,,,,,,,0,6,"[""walnut.png""]","[""walnut.png""]","[""walnut.png""]","[""walnut.png""]","[""walnut.png""]","[""walnut.png""]",blank.png,PB18.png,PB07.png,"[""walnut.png""]","[""walnut.png""]","[""walnut.png""]","[""walnut.png""]","[""walnut.png""]","[""walnut.png""]","[""walnut.png""]",blank.png,blank.png,blank.png,blank.png,blank.png,1,"[""dried_meat.png""]",blank.png,blank.png,blank.png,1,"[""walnut.png""]",blank.png,blank.png,blank.png,blank.png,blank.png,PB07.png,,,,,,,,,,,1,,,,,,,,,,,,,130.98699997499352,,response,,,,,,,,,,,,,4,,,,,,,,,,,,,,,,,,,,,,,,,,,,,,,,,,,,,,,,,,,,,,,,,,,,,,,,,"[""walnut.png""]","[""dried_meat.png""]",,,,4,left,keydown(ArrowLeft),false,,1,,,,,,,379314.85999992583,379313.99499997497,378782.604,379181.6150000086,379183.008,379716.858,,9,,
square,canvas.Screen,2_4_3_6_1_0_1_0_0_1_3,2021-05-24T16:17:23.399Z,,,blank.png,blank.png,blank.png,blank.png,blank.png,blank.png,blank.png,"[""dried_meat.png""]",blank.png,blank.png,blank.png,blank.png,blank.png,,,,,,,,,,,,,,,,,,,,,,,,,,,,,"[""dried_meat.png""]","[""walnut.png""]",PB18.png,,,,,,,,,,,0,6,"[""walnut.png""]","[""walnut.png""]","[""walnut.png""]","[""walnut.png""]","[""walnut.png""]","[""walnut.png""]",blank.png,PB18.png,PB07.png,"[""walnut.png""]","[""walnut.png""]","[""walnut.png""]","[""walnut.png""]","[""walnut.png""]","[""walnut.png""]","[""walnut.png""]",blank.png,blank.png,blank.png,blank.png,blank.png,1,"[""dried_meat.png""]",blank.png,blank.png,blank.png,1,"[""walnut.png""]",blank.png,blank.png,blank.png,blank.png,blank.png,PB07.png,,,,,,,,,,,1,,,#33ff3f,#808080,,,,,,,,,1001.0359999999637,,timeout,,,,,,,,,,,,,4,,,,,,,,,,,,,,,,,,,,,,,,,,,,,,,,,,,,,,,,,,,,,,,,,,,,,,,,,"[""walnut.png""]","[""dried_meat.png""]",,,,4,,,false,,1,,,,,black,white,380701.70500001404,380701.188,379700.172,379703.4749999875,379716.858,380717.894,,,,
ITI_late,canvas.Screen,2_4_3_6_1_0_1_0_0_1_4,2021-05-24T16:17:23.649Z,,,blank.png,blank.png,blank.png,blank.png,blank.png,blank.png,blank.png,"[""dried_meat.png""]",blank.png,blank.png,blank.png,blank.png,blank.png,,,,,,,,,,,,,,,,,,,,,,,,,,,,,"[""dried_meat.png""]","[""walnut.png""]",PB18.png,,,,,,,,,,,0,6,"[""walnut.png""]","[""walnut.png""]","[""walnut.png""]","[""walnut.png""]","[""walnut.png""]","[""walnut.png""]",blank.png,PB18.png,PB07.png,"[""walnut.png""]","[""walnut.png""]","[""walnut.png""]","[""walnut.png""]","[""walnut.png""]","[""walnut.png""]","[""walnut.png""]",blank.png,blank.png,blank.png,blank.png,blank.png,1,"[""dried_meat.png""]",blank.png,blank.png,blank.png,1,"[""walnut.png""]",blank.png,blank.png,blank.png,blank.png,blank.png,PB07.png,,,,,,,,,,,1,,,,,,,,,,,,,250.2720000000554,,timeout,,,,,,,,,,,,white,4,,,,,,,,,,,,,,,,,,,,,,,,,,,,,,,,,,,,,,,,,,,,,,,,,,,,,,,,,"[""walnut.png""]","[""dried_meat.png""]",,,,4,,,false,,1,,,,,,,380951.9599999767,380951.441,380701.188,380703.60499992967,380717.894,380968.166,,,,
choice_sequence,flow.Sequence,2_4_3_6_1_0_1_0_0_1,2021-05-24T16:17:23.649Z,,,blank.png,blank.png,blank.png,blank.png,blank.png,blank.png,blank.png,"[""dried_meat.png""]",blank.png,blank.png,blank.png,blank.png,blank.png,,,,,,,,,,,,,,,,,,,,,,,,,,,,,"[""dried_meat.png""]","[""walnut.png""]",PB18.png,,,,,,,,,,,0,6,"[""walnut.png""]","[""walnut.png""]","[""walnut.png""]","[""walnut.png""]","[""walnut.png""]","[""walnut.png""]",blank.png,PB18.png,PB07.png,"[""walnut.png""]","[""walnut.png""]","[""walnut.png""]","[""walnut.png""]","[""walnut.png""]","[""walnut.png""]","[""walnut.png""]",blank.png,blank.png,blank.png,blank.png,blank.png,1,"[""dried_meat.png""]",blank.png,blank.png,blank.png,1,"[""walnut.png""]",blank.png,blank.png,blank.png,blank.png,blank.png,PB07.png,,,,,,,,,,,1,,,,,,,,,,,,,3737.042000000016,,completion,,,,,,,,,,,,,4,,,,,,,,,,,,,,,,,,,,,,,,,,,,,,,,,,,,,,,,,,,,,,,,,,,,,,,,,"[""walnut.png""]","[""dried_meat.png""]",,,,4,,,false,,1,,,,,,,380952.4299999466,380951.441,377197.675,377201.7999999225,377214.399,380968.166,,,,
fixCross,canvas.Screen,2_4_3_6_1_0_1_0_0_2_0,2021-05-24T16:17:24.349Z,,,blank.png,"[""dried_meat.png""]",blank.png,blank.png,blank.png,blank.png,blank.png,blank.png,blank.png,blank.png,blank.png,blank.png,blank.png,,,,,,,,,,,,,,,,,,,,,,,,,,,,,"[""dried_meat.png""]","[""walnut.png""]",PB01.png,,,,,,,,,,,0,6,"[""walnut.png""]","[""walnut.png""]","[""walnut.png""]","[""walnut.png""]","[""walnut.png""]","[""walnut.png""]",blank.png,PB18.png,PB18.png,blank.png,blank.png,blank.png,blank.png,blank.png,blank.png,"[""walnut.png""]","[""walnut.png""]","[""walnut.png""]","[""walnut.png""]","[""walnut.png""]","[""walnut.png""]",1,"[""dried_meat.png""]",blank.png,blank.png,blank.png,0,blank.png,blank.png,blank.png,blank.png,blank.png,blank.png,PB01.png,,,,,,,,,,,1,,,,,,,,,,,,,1051.0209999999497,,timeout,,,,,,,,,,,,,3,,,,,,,,,,,,,,,,,,,,,,,,,,,,,,,,,,,,,,,,,,,,,,,,,,,,,,,,,"[""walnut.png""]","[""dried_meat.png""]",,,,4,,,false,,1,,,,,,,381652.63000002597,381652.144,380951.441,380957.15999999084,380968.166,382019.187,10,,,
timeout,canvas.Screen,2_4_3_6_1_0_1_0_0_2_1,2021-05-24T16:17:25.200Z,,,blank.png,"[""dried_meat.png""]",blank.png,blank.png,blank.png,blank.png,blank.png,blank.png,blank.png,blank.png,blank.png,blank.png,blank.png,,,,,,,,,,,,,,,,,,,,,,,,,,,,,"[""dried_meat.png""]","[""walnut.png""]",PB01.png,,,,,,,,,,,0,6,"[""walnut.png""]","[""walnut.png""]","[""walnut.png""]","[""walnut.png""]","[""walnut.png""]","[""walnut.png""]",blank.png,PB18.png,PB18.png,blank.png,blank.png,blank.png,blank.png,blank.png,blank.png,"[""walnut.png""]","[""walnut.png""]","[""walnut.png""]","[""walnut.png""]","[""walnut.png""]","[""walnut.png""]",1,"[""dried_meat.png""]",blank.png,blank.png,blank.png,0,blank.png,blank.png,blank.png,blank.png,blank.png,blank.png,PB01.png,,,,,,,,,,,1,,,,,,,,,,,,,867.5550000000512,,timeout,,,,,,,,,,,,,3,,,,,,,,,,,,,,,,,,,,,,,,,,,,,,,,,,,,,,,,,,,,,,,,,,,,,,,,,"[""walnut.png""]","[""dried_meat.png""]",,,,4,,,false,,1,,,,,,,382503.5200000275,382502.997,381652.144,382021.6800000053,382019.187,382886.742,,,,
choice,canvas.Screen,2_4_3_6_1_0_1_0_0_2_2,2021-05-24T16:17:26.132Z,,,blank.png,"[""dried_meat.png""]",blank.png,blank.png,blank.png,blank.png,blank.png,blank.png,blank.png,blank.png,blank.png,blank.png,blank.png,,,,,,,,,,,,,,,,,,,,,,,,,,,,,"[""dried_meat.png""]","[""walnut.png""]",PB01.png,,,,,,,,,,,0,6,"[""walnut.png""]","[""walnut.png""]","[""walnut.png""]","[""walnut.png""]","[""walnut.png""]","[""walnut.png""]",blank.png,PB18.png,PB18.png,blank.png,blank.png,blank.png,blank.png,blank.png,blank.png,"[""walnut.png""]","[""walnut.png""]","[""walnut.png""]","[""walnut.png""]","[""walnut.png""]","[""walnut.png""]",1,"[""dried_meat.png""]",blank.png,blank.png,blank.png,0,blank.png,blank.png,blank.png,blank.png,blank.png,blank.png,PB01.png,,,,,,,,,,,1,,,,,,,,,,,,,547.183000019344,,response,,,,,,,,,,,,,3,,,,,,,,,,,,,,,,,,,,,,,,,,,,,,,,,,,,,,,,,,,,,,,,,,,,,,,,,"[""walnut.png""]","[""dried_meat.png""]",,,,4,right,keydown(ArrowRight),false,,1,,,,,,,383434.83499996364,383433.9250000194,382502.997,382890.9899999853,382886.742,383804.318,,10,,
square,canvas.Screen,2_4_3_6_1_0_1_0_0_2_3,2021-05-24T16:17:27.486Z,,,blank.png,"[""dried_meat.png""]",blank.png,blank.png,blank.png,blank.png,blank.png,blank.png,blank.png,blank.png,blank.png,blank.png,blank.png,,,,,,,,,,,,,,,,,,,,,,,,,,,,,"[""dried_meat.png""]","[""walnut.png""]",PB01.png,,,,,,,,,,,0,6,"[""walnut.png""]","[""walnut.png""]","[""walnut.png""]","[""walnut.png""]","[""walnut.png""]","[""walnut.png""]",blank.png,PB18.png,PB18.png,blank.png,blank.png,blank.png,blank.png,blank.png,blank.png,"[""walnut.png""]","[""walnut.png""]","[""walnut.png""]","[""walnut.png""]","[""walnut.png""]","[""walnut.png""]",1,"[""dried_meat.png""]",blank.png,blank.png,blank.png,0,blank.png,blank.png,blank.png,blank.png,blank.png,blank.png,PB01.png,,,,,,,,,,,1,,,#808080,#33ff3f,,,,,,,,,1001.030999999959,,timeout,,,,,,,,,,,,,3,,,,,,,,,,,,,,,,,,,,,,,,,,,,,,,,,,,,,,,,,,,,,,,,,,,,,,,,,"[""walnut.png""]","[""dried_meat.png""]",,,,4,,,false,,1,,,,,white,black,384789.3199999817,384788.625,383787.587,383792.5999999279,383804.318,384805.349,,,,
