sender,sender_type,sender_id,timestamp,meta,,Blank,DownLeft1,DownLeft2,DownLeft3,DownLeft4,DownLeft5,DownLeft6,DownRight1,DownRight2,DownRight3,DownRight4,DownRight5,DownRight6,FoodHabits_Fru_item1,FoodHabits_Fru_item2,FoodHabits_Fru_item3,FoodHabits_Fru_item4,FoodHabits_Fru_item5,FoodHabits_Fru_item6,FoodHabits_Fru_item7,FoodHabits_Meat_item1,FoodHabits_Meat_item2,FoodHabits_Meat_item3,FoodHabits_Meat_item4,FoodHabits_Meat_item5,FoodHabits_Meat_item6,FoodHabits_Meat_item7,FoodHabits_Swe_item1,FoodHabits_Swe_item2,FoodHabits_Swe_item3,FoodHabits_Swe_item4,FoodHabits_Swe_item5,FoodHabits_Swe_item6,FoodHabits_Swe_item7,FoodHabits_Veg_item1,FoodHabits_Veg_item2,FoodHabits_Veg_item3,FoodHabits_Veg_item4,FoodHabits_Veg_item5,FoodHabits_Veg_item6,FoodHabits_Veg_item7,ImgA,ImgB,LeftBar,PSS_item01,PSS_item02,PSS_item03,PSS_item04,PSS_item05,PSS_item06,PSS_item07,PSS_item08,PSS_item09,PSS_item10,RefA,RefB,RefB1,RefB2,RefB3,RefB4,RefB5,RefB6,RefB7,Ref_PB,RightBar,UpLeft1,UpLeft2,UpLeft3,UpLeft4,UpLeft5,UpLeft6,UpRight1,UpRight2,UpRight3,UpRight4,UpRight5,UpRight6,VarA,VarA1,VarA2,VarA3,VarA4,VarB,VarB1,VarB2,VarB3,VarB4,VarB5,VarB6,Var_PB,attCheck_fileA,attCheck_fileB,attCheck_fileC,attCheck_fileD,attCheck_options,attCheck_valueA,attCheck_valueB,attCheck_valueC,attCheck_valueD,attention_check,block,browser_name,choseL,choseR,consent_form1,consent_form2,consentconfirmation_form1,consentconfirmation_form2,correct,correctResponse,diet,disorder,duration,edu,ended_on,enjoy,full_version,gender,group,hunger,img,imgTask,input_age,input_meal,input_occ,input_remark,lateRespFeed,list,major_version,message,mixQ_item1,mixQ_item2,mixQ_item3,mixQ_item4,mixQ_item5,name,navigator_appName,navigator_userAgent,os,pracQ1_IDa,pracQ1_IDb,pracQ1_IDc,pracQ1_IDd,pracQ1_optionA,pracQ1_optionB,pracQ1_optionC,pracQ1_optionD,pracQ1_valueA,pracQ1_valueB,pracQ1_valueC,pracQ1_valueD,pracQ2_IDa,pracQ2_IDb,pracQ2_IDc,pracQ2_optionA,pracQ2_optionB,pracQ2_optionC,pracQ2_valueA,pracQ2_valueB,pracQ2_valueC,pracQ4_IDa,pracQ4_IDb,pracQ4_IDc,pracQ4_IDd,pracQ4_optionA,pracQ4_optionB,pracQ4_optionC,pracQ4_optionD,pracQ4_valueA,pracQ4_valueB,pracQ4_valueC,pracQ4_valueD,pracQ5_IDa,pracQ5_IDb,pracQ5_IDc,pracQ5_IDd,pracQ5_optionA,pracQ5_optionB,pracQ5_optionC,pracQ5_optionD,pracQ5_valueA,pracQ5_valueB,pracQ5_valueC,pracQ5_valueD,prefHealty,prefUnhealthy,prolific_ID,psessionID,pstudyID,rep,response,response_action,skip,snack,sublock,subtitle,task_difficulty,task_engagement,task_focus,textL,textR,time_commit,time_end,time_render,time_run,time_show,time_switch,trial_count,trial_countO,url,valence
Title,html.Page,0,2021-01-14T18:51:18.613Z,"{""labjs_version"":""20.1.1"",""labjs_build"":{""flavor"":""production"",""commit"":""c48ac4ada3769e8d34489594ab03097d5f256ac7""},""location"":""https://run.pavlovia.org/E3lab/rebund/html/?PROLIFIC_PID={{%PROLIFIC_PID%}}&STUDY_ID={{%STUDY_ID%}}&SESSION_ID={{%SESSION_ID%}}"",""userAgent"":""Mozilla/5.0 (Windows NT 10.0; Win64; x64) AppleWebKit/537.36 (KHTML, like Gecko) Chrome/87.0.4280.88 Safari/537.36"",""platform"":""Win32"",""language"":""es-ES"",""locale"":""es-ES"",""timeZone"":""America/Mexico_City"",""timezoneOffset"":360,""screen_width"":1366,""screen_height"":768,""scroll_width"":1366,""scroll_height"":609,""window_innerWidth"":1366,""window_innerHeight"":657,""devicePixelRatio"":1}",,,,,,,,,,,,,,,,,,,,,,,,,,,,,,,,,,,,,,,,,,,,,,,,,,,,,,,,,,,,,,,,,,,,,,,,,,,,,,,,,,,,,,,,,,,,,,,,,,,,,,,,,,,,,,,,,,10682.6209997738,,form submission,,,,,,,,,,,,,,,,,,,,,,,,,,,,,,,,,,,,,,,,,,,,,,,,,,,,,,,,,,,,,,,,,,,,,,,,,,,,,,,,,,,,,,,15789.08499982208,15788.6199997738,5018.003,5069.129999727011,5105.999,15813.226,,,"{""PROLIFIC_PID"":""{{%PROLIFIC_PID%}}"",""STUDY_ID"":""{{%STUDY_ID%}}"",""SESSION_ID"":""{{%SESSION_ID%}}""}",
get_systemInfo,canvas.Screen,1,2021-01-14T18:51:18.639Z,,,,,,,,,,,,,,,,,,,,,,,,,,,,,,,,,,,,,,,,,,,,,,,,,,,,,,,,,,,,,,,,,,,,,,,,,,,,,,,,,,,,,,,,,,,,,,,,,,,,,,,,Chrome,,,,,,,,,,,4285.906000000001,,timeout,,87.0.4280.88,,,,,,,,,,,,87,,,,,,,,Netscape,"Mozilla/5.0 (Windows NT 10.0; Win64; x64) AppleWebKit/537.36 (KHTML, like Gecko) Chrome/87.0.4280.88 Safari/537.36",Windows,,,,,,,,,,,,,,,,,,,,,,,,,,,,,,,,,,,,,,,,,,,,,,,,{{%PROLIFIC_PID%}},,{{%STUDY_ID%}},,,,,,,,,,,,,15814.985000062734,15814.389999955893,15774.685,15790.229999925941,15813.226,20099.132,,,,
ConsentForm,html.Form,2_0,2021-01-14T18:52:01.261Z,,,,,,,,,,,,,,,,,,,,,,,,,,,,,,,,,,,,,,,,,,,,,,,,,,,,,,,,,,,,,,,,,,,,,,,,,,,,,,,,,,,,,,,,,,,,,,,,,,,,,,,,,,,true,true,,,,,,,38342.038000005516,,form submission,,,,,,,,,,,,,,,,,,,,,,,,,,,,,,,,,,,,,,,,,,,,,,,,,,,,,,,,,,,,,,,,,,,,,,,,,,,,,,,,,,,,,,,58441.4749997668,58441.17000000551,15814.389999955893,20115.09499978274,20099.132,58460.46,,,,
PepTalk,html.Page,2_1,2021-01-14T18:52:13.971Z,,,,,,,,,,,,,,,,,,,,,,,,,,,,,,,,,,,,,,,,,,,,,,,,,,,,,,,,,,,,,,,,,,,,,,,,,,,,,,,,,,,,,,,,,,,,,,,,,,,,,,,,,,,,,,,,,,,12690.499999766202,,form submission,,,,,,,,,,,,,,,,,,,,,,,,,,,,,,,,,,,,,,,,,,,,,,,,,,,,,,,,,,,,,,,,,,,,,,,,,,,,,,,,,,,,,,,71151.19499992579,71150.9599997662,58430.102,58441.63500005379,58460.46,71178.304,,,,
Demographics,html.Form,2_2,2021-01-14T18:53:10.423Z,,,,,,,,,,,,,,,,,,,,,,,,,,,,,,,,,,,,,,,,,,,,,,,,,,,,,,,,,,,,,,,,,,,,,,,,,,,,,,,,,,,,,,,,,,,,,,,,,,,,,,,,,,,,,,,,,,,56419.43599964818,3,form submission,,,1,,,,,22,,Student,,,,,,,,,,,,,,,,,,,,,,,,,,,,,,,,,,,,,,,,,,,,,,,,,,,,,,,,,,,,,,,,,,,,,,,,,,,,,127597.98000007868,127597.73999964818,71136.106,71151.35499974713,71178.304,127617.721,,,,
InclusionCrit,html.Form,2_3,2021-01-14T18:53:24.876Z,,,,,,,,,,,,,,,,,,,,,,,,,,,,,,,,,,,,,,,,,,,,,,,,,,,,,,,,,,,,,,,,,,,,,,,,,,,,,,,,,,,,,,,,,,,,,,,,,,,,,,,,,,,,,,,,,1,0,14433.693999645198,,form submission,1,,,,,,,,,,,,,,,,,,,,,,,,,,,,,,,,,,,,,,,,,,,,,,,,,,,,,,,,,,,,,,,,,,,,,,,,,,,,,,,,,,,,,,142051.69999971986,142051.4149996452,127596.671,127598.1600000523,127617.721,142067.99,,,,
Selection,html.Page,2_4_0,2021-01-14T18:53:50.403Z,,,,,,,,,,,,,,,,,,,,,,,,,,,,,,,,,,,,,,,,,,,,,,,,,,,,,,,,,,,,,,,,,,,,,,,,,,,,,,,,,,,,,,,,,,,,,,,,,,,,,,,,,,,,,,,,,,,25509.644999994198,,form submission,,,,,,,,,,,,,,,,,,,,,,,,,,,,,,,,,,,,,,,,,,,,,,,,,,,,,,,,,,,,,,,,,,,,,,,,,,,,,,,0,,,,,,,,167577.8899998404,167577.6349999942,142038.07,142052.064999938,142067.99,167596.162,,,,
Load,html.Page,2_4_1,2021-01-14T18:53:50.422Z,,,,,,,,,,,,,,,,,,,,,,,,,,,,,,,,,,,,,,,,,,,,,,,,,,,,,,,,,,,,,,,,,,,,,,,,,,,,,,,,,,,,,,,,,,,,,,,,,,,,,,,,,,,,,,,,,,,4420.084000000003,,timeout,,,,,,,,,,,,,,,,,,,,,,,,,,,,,,,,,,,,,,,,,,,,,,,,,,,,,,,,,,,,,,,,,,,,,,,,,,,,,,,,,,,,,,,167596.78500005975,167596.52499994263,167566.568,167578.05499993265,167596.162,172016.246,,,,
ratings_instructions,html.Screen,2_4_2_0,2021-01-14T18:54:25.551Z,,,,,,,,,,,,,,,,,,,,,,,,,,,,,,,,,,,,,,,,,,,,,,,,,,,,,,,,,,,,,,,,,,,,,,,,,,,,,,,,,,,,,,,,,,,,,,,,,,,,,,,,,,,,,,,,,,,30702.518999881373,,response,,,,,,,,,,,,,,,,,,,,,,,,,,,,,,,,,,,,,,,,,,,,,,,,,,,,,,,,,,,,,,,,,,,,,,,,,,,,continue,keypress(Space),false,,,,,,,,,202725.21500010043,202718.7649998814,167596.52499994263,172036.33499983698,172016.246,202744.07,0,0,,
fixCross,canvas.Screen,2_4_2_1_0_0,2021-01-14T18:54:26.025Z,,,,,,,,,,,,,,,,,,,,,,,,,,,,,,,,,,,,,,,,,,,,,,,,,,,,,,,,,,,,,,,,,,,,,,,,,,,,,,,,,,,,,,,,,,,,,,,,,,,,,,,,,,,,,,,,,,,485.9059999999881,,timeout,,,,unhealthy,,liqorice.png,,,,,,,,,,,,,,,liquorice,,,,,,,,,,,,,,,,,,,,,,,,,,,,,,,,,,,,,,,,,,,,,,,,,,,,,,,,,false,,,,,,,,,203198.9899999462,203197.71,202718.033,202726.03499982506,202744.07,203229.976,,,,
Rating,html.Form,2_4_2_1_0_1,2021-01-14T18:54:37.790Z,,,,,,,,,,,,,,,,,,,,,,,,,,,,,,,,,,,,,,,,,,,,,,,,,,,,,,,,,,,,,,,,,,,,,,,,,,,,,,,,,,,,,,,,,,,,,,,,,,,,,,,,,,,,,,,,,,,11734.603999912535,,form submission,,,,unhealthy,,liqorice.png,,,,,,,,,,,,,,,liquorice,,,,,,,,,,,,,,,,,,,,,,,,,,,,,,,,,,,,,,,,,,,,,,,,,,,,,,,,,false,,,,,,,,,214964.80499999598,214964.57999991253,203197.71,203199.39999980852,203229.976,214992.83,,,,35
rating_sequence,flow.Sequence,2_4_2_1_0,2021-01-14T18:54:37.792Z,,,,,,,,,,,,,,,,,,,,,,,,,,,,,,,,,,,,,,,,,,,,,,,,,,,,,,,,,,,,,,,,,,,,,,,,,,,,,,,,,,,,,,,,,,,,,,,,,,,,,,,,,,,,,,,,,,,12220.509999912523,,completion,,,,unhealthy,,liqorice.png,,,,,,,,,,,,,,,liquorice,,,,,,,,,,,,,,,,,,,,,,,,,,,,,,,,,,,,,,,,,,,,,,,,,,,,,,,,,false,,,,,,,,,214966.43499983475,214964.57999991253,202718.033,202725.92999972403,202744.07,214992.83,,,,
fixCross,canvas.Screen,2_4_2_1_1_0,2021-01-14T18:54:38.287Z,,,,,,,,,,,,,,,,,,,,,,,,,,,,,,,,,,,,,,,,,,,,,,,,,,,,,,,,,,,,,,,,,,,,,,,,,,,,,,,,,,,,,,,,,,,,,,,,,,,,,,,,,,,,,,,,,,,491.5140000000247,,timeout,,,,healthy,,grape.png,,,,,,,,,,,,,,,grape,,,,,,,,,,,,,,,,,,,,,,,,,,,,,,,,,,,,,,,,,,,,,,,,,,,,,,,,,false,,,,,,,,,215461.68499998748,215460.516,214961.196,214966.56000008807,214992.83,215484.344,,,,
Rating,html.Form,2_4_2_1_1_1,2021-01-14T18:54:46.620Z,,,,,,,,,,,,,,,,,,,,,,,,,,,,,,,,,,,,,,,,,,,,,,,,,,,,,,,,,,,,,,,,,,,,,,,,,,,,,,,,,,,,,,,,,,,,,,,,,,,,,,,,,,,,,,,,,,,8310.08099997093,,form submission,,,,healthy,,grape.png,,,,,,,,,,,,,,,grape,,,,,,,,,,,,,,,,,,,,,,,,,,,,,,,,,,,,,,,,,,,,,,,,,,,,,,,,,false,,,,,,,,,223794.62500009686,223794.42499997094,215460.516,215461.9999998249,215484.344,223820.961,,,,87
rating_sequence,flow.Sequence,2_4_2_1_1,2021-01-14T18:54:46.620Z,,,,,,,,,,,,,,,,,,,,,,,,,,,,,,,,,,,,,,,,,,,,,,,,,,,,,,,,,,,,,,,,,,,,,,,,,,,,,,,,,,,,,,,,,,,,,,,,,,,,,,,,,,,,,,,,,,,8801.594999970956,,completion,,,,healthy,,grape.png,,,,,,,,,,,,,,,grape,,,,,,,,,,,,,,,,,,,,,,,,,,,,,,,,,,,,,,,,,,,,,,,,,,,,,,,,,false,,,,,,,,,223794.7700000368,223794.42499997094,214961.196,214966.53499966487,214992.83,223820.961,,,,
fixCross,canvas.Screen,2_4_2_1_2_0,2021-01-14T18:54:47.138Z,,,,,,,,,,,,,,,,,,,,,,,,,,,,,,,,,,,,,,,,,,,,,,,,,,,,,,,,,,,,,,,,,,,,,,,,,,,,,,,,,,,,,,,,,,,,,,,,,,,,,,,,,,,,,,,,,,,522.4700000000012,,timeout,,,,unhealthy,,maltesers.png,,,,,,,,,,,,,,,malteser,,,,,,,,,,,,,,,,,,,,,,,,,,,,,,,,,,,,,,,,,,,,,,,,,,,,,,,,,false,,,,,,,,,224312.2250000015,224311.187,223791.281,223794.8650000617,223820.961,224343.431,,,,
Rating,html.Form,2_4_2_1_2_1,2021-01-14T18:54:53.161Z,,,,,,,,,,,,,,,,,,,,,,,,,,,,,,,,,,,,,,,,,,,,,,,,,,,,,,,,,,,,,,,,,,,,,,,,,,,,,,,,,,,,,,,,,,,,,,,,,,,,,,,,,,,,,,,,,,,5991.563999691833,,form submission,,,,unhealthy,,maltesers.png,,,,,,,,,,,,,,,malteser,,,,,,,,,,,,,,,,,,,,,,,,,,,,,,,,,,,,,,,,,,,,,,,,,,,,,,,,,false,,,,,,,,,230335.25000000373,230334.99499969184,224311.187,224312.53999983892,224343.431,230360.026,,,,89
rating_sequence,flow.Sequence,2_4_2_1_2,2021-01-14T18:54:53.161Z,,,,,,,,,,,,,,,,,,,,,,,,,,,,,,,,,,,,,,,,,,,,,,,,,,,,,,,,,,,,,,,,,,,,,,,,,,,,,,,,,,,,,,,,,,,,,,,,,,,,,,,,,,,,,,,,,,,6514.033999691834,,completion,,,,unhealthy,,maltesers.png,,,,,,,,,,,,,,,malteser,,,,,,,,,,,,,,,,,,,,,,,,,,,,,,,,,,,,,,,,,,,,,,,,,,,,,,,,,false,,,,,,,,,230335.45499993488,230334.99499969184,223791.281,223794.83499983326,223820.961,230360.026,,,,
fixCross,canvas.Screen,2_4_2_1_3_0,2021-01-14T18:54:53.685Z,,,,,,,,,,,,,,,,,,,,,,,,,,,,,,,,,,,,,,,,,,,,,,,,,,,,,,,,,,,,,,,,,,,,,,,,,,,,,,,,,,,,,,,,,,,,,,,,,,,,,,,,,,,,,,,,,,,530.3199999999779,,timeout,,,,unhealthy,,candy.png,,,,,,,,,,,,,,,candy,,,,,,,,,,,,,,,,,,,,,,,,,,,,,,,,,,,,,,,,,,,,,,,,,,,,,,,,,false,,,,,,,,,230859.6449997276,230858.464,230326.088,230335.58499999344,230360.026,230890.346,,,,
Rating,html.Form,2_4_2_1_3_1,2021-01-14T18:54:57.871Z,,,,,,,,,,,,,,,,,,,,,,,,,,,,,,,,,,,,,,,,,,,,,,,,,,,,,,,,,,,,,,,,,,,,,,,,,,,,,,,,,,,,,,,,,,,,,,,,,,,,,,,,,,,,,,,,,,,4154.488999833266,,form submission,,,,unhealthy,,candy.png,,,,,,,,,,,,,,,candy,,,,,,,,,,,,,,,,,,,,,,,,,,,,,,,,,,,,,,,,,,,,,,,,,,,,,,,,,false,,,,,,,,,235045.01000000164,235044.83499983326,230858.464,230859.97499991208,230890.346,235067.984,,,,16
rating_sequence,flow.Sequence,2_4_2_1_3,2021-01-14T18:54:57.871Z,,,,,,,,,,,,,,,,,,,,,,,,,,,,,,,,,,,,,,,,,,,,,,,,,,,,,,,,,,,,,,,,,,,,,,,,,,,,,,,,,,,,,,,,,,,,,,,,,,,,,,,,,,,,,,,,,,,4684.808999833243,,completion,,,,unhealthy,,candy.png,,,,,,,,,,,,,,,candy,,,,,,,,,,,,,,,,,,,,,,,,,,,,,,,,,,,,,,,,,,,,,,,,,,,,,,,,,false,,,,,,,,,235045.1549999416,235044.83499983326,230326.088,230335.54499968886,230360.026,235067.984,,,,
fixCross,canvas.Screen,2_4_2_1_4_0,2021-01-14T18:54:58.367Z,,,,,,,,,,,,,,,,,,,,,,,,,,,,,,,,,,,,,,,,,,,,,,,,,,,,,,,,,,,,,,,,,,,,,,,,,,,,,,,,,,,,,,,,,,,,,,,,,,,,,,,,,,,,,,,,,,,503.8509999999951,,timeout,,,,unhealthy,,gummybear.png,,,,,,,,,,,,,,,gummybear,,,,,,,,,,,,,,,,,,,,,,,,,,,,,,,,,,,,,,,,,,,,,,,,,,,,,,,,,false,,,,,,,,,235541.02499969304,235540.031,235028.749,235045.26000004262,235067.984,235571.835,,,,
Rating,html.Form,2_4_2_1_4_1,2021-01-14T18:55:02.969Z,,,,,,,,,,,,,,,,,,,,,,,,,,,,,,,,,,,,,,,,,,,,,,,,,,,,,,,,,,,,,,,,,,,,,,,,,,,,,,,,,,,,,,,,,,,,,,,,,,,,,,,,,,,,,,,,,,,4571.585000094929,,form submission,,,,unhealthy,,gummybear.png,,,,,,,,,,,,,,,gummybear,,,,,,,,,,,,,,,,,,,,,,,,,,,,,,,,,,,,,,,,,,,,,,,,,,,,,,,,,false,,,,,,,,,240143.6049998738,240143.42000009492,235540.031,235541.2949998863,235571.835,240166.061,,,,69
rating_sequence,flow.Sequence,2_4_2_1_4,2021-01-14T18:55:02.969Z,,,,,,,,,,,,,,,,,,,,,,,,,,,,,,,,,,,,,,,,,,,,,,,,,,,,,,,,,,,,,,,,,,,,,,,,,,,,,,,,,,,,,,,,,,,,,,,,,,,,,,,,,,,,,,,,,,,5075.436000094924,,completion,,,,unhealthy,,gummybear.png,,,,,,,,,,,,,,,gummybear,,,,,,,,,,,,,,,,,,,,,,,,,,,,,,,,,,,,,,,,,,,,,,,,,,,,,,,,,false,,,,,,,,,240143.77499977127,240143.42000009492,235028.749,235045.22999981418,235067.984,240166.061,,,,
fixCross,canvas.Screen,2_4_2_1_5_0,2021-01-14T18:55:03.454Z,,,,,,,,,,,,,,,,,,,,,,,,,,,,,,,,,,,,,,,,,,,,,,,,,,,,,,,,,,,,,,,,,,,,,,,,,,,,,,,,,,,,,,,,,,,,,,,,,,,,,,,,,,,,,,,,,,,492.7750000000233,,timeout,,,,healthy,,pear.png,,,,,,,,,,,,,,,pear,,,,,,,,,,,,,,,,,,,,,,,,,,,,,,,,,,,,,,,,,,,,,,,,,,,,,,,,,false,,,,,,,,,240628.039999865,240626.963,240128.902,240143.88999994844,240166.061,240658.836,,,,
Rating,html.Form,2_4_2_1_5_1,2021-01-14T18:55:09.313Z,,,,,,,,,,,,,,,,,,,,,,,,,,,,,,,,,,,,,,,,,,,,,,,,,,,,,,,,,,,,,,,,,,,,,,,,,,,,,,,,,,,,,,,,,,,,,,,,,,,,,,,,,,,,,,,,,,,5828.713999728789,,form submission,,,,healthy,,pear.png,,,,,,,,,,,,,,,pear,,,,,,,,,,,,,,,,,,,,,,,,,,,,,,,,,,,,,,,,,,,,,,,,,,,,,,,,,false,,,,,,,,,246487.73499997333,246487.5499997288,240626.963,240628.3149998635,240658.836,246511.196,,,,100
rating_sequence,flow.Sequence,2_4_2_1_5,2021-01-14T18:55:09.313Z,,,,,,,,,,,,,,,,,,,,,,,,,,,,,,,,,,,,,,,,,,,,,,,,,,,,,,,,,,,,,,,,,,,,,,,,,,,,,,,,,,,,,,,,,,,,,,,,,,,,,,,,,,,,,,,,,,,6321.488999728812,,completion,,,,healthy,,pear.png,,,,,,,,,,,,,,,pear,,,,,,,,,,,,,,,,,,,,,,,,,,,,,,,,,,,,,,,,,,,,,,,,,,,,,,,,,false,,,,,,,,,246487.88999998942,246487.5499997288,240128.902,240143.85499991477,240166.061,246511.196,,,,
fixCross,canvas.Screen,2_4_2_1_6_0,2021-01-14T18:55:09.821Z,,,,,,,,,,,,,,,,,,,,,,,,,,,,,,,,,,,,,,,,,,,,,,,,,,,,,,,,,,,,,,,,,,,,,,,,,,,,,,,,,,,,,,,,,,,,,,,,,,,,,,,,,,,,,,,,,,,506.429999999993,,timeout,,,,healthy,,strawberry.png,,,,,,,,,,,,,,,strawberry,,,,,,,,,,,,,,,,,,,,,,,,,,,,,,,,,,,,,,,,,,,,,,,,,,,,,,,,,false,,,,,,,,,246994.9900000356,246993.828,246484.952,246487.9999998957,246511.196,247017.626,,,,
Rating,html.Form,2_4_2_1_6_1,2021-01-14T18:55:14.103Z,,,,,,,,,,,,,,,,,,,,,,,,,,,,,,,,,,,,,,,,,,,,,,,,,,,,,,,,,,,,,,,,,,,,,,,,,,,,,,,,,,,,,,,,,,,,,,,,,,,,,,,,,,,,,,,,,,,4259.548999937426,,form submission,,,,healthy,,strawberry.png,,,,,,,,,,,,,,,strawberry,,,,,,,,,,,,,,,,,,,,,,,,,,,,,,,,,,,,,,,,,,,,,,,,,,,,,,,,,false,,,,,,,,,251277.40000002086,251277.17499993742,246993.828,246995.40999997407,247017.626,251303.952,,,,100
rating_sequence,flow.Sequence,2_4_2_1_6,2021-01-14T18:55:14.103Z,,,,,,,,,,,,,,,,,,,,,,,,,,,,,,,,,,,,,,,,,,,,,,,,,,,,,,,,,,,,,,,,,,,,,,,,,,,,,,,,,,,,,,,,,,,,,,,,,,,,,,,,,,,,,,,,,,,4765.978999937419,,completion,,,,healthy,,strawberry.png,,,,,,,,,,,,,,,strawberry,,,,,,,,,,,,,,,,,,,,,,,,,,,,,,,,,,,,,,,,,,,,,,,,,,,,,,,,,false,,,,,,,,,251277.59499987587,251277.17499993742,246484.952,246487.96999966726,246511.196,251303.952,,,,
fixCross,canvas.Screen,2_4_2_1_7_0,2021-01-14T18:55:14.605Z,,,,,,,,,,,,,,,,,,,,,,,,,,,,,,,,,,,,,,,,,,,,,,,,,,,,,,,,,,,,,,,,,,,,,,,,,,,,,,,,,,,,,,,,,,,,,,,,,,,,,,,,,,,,,,,,,,,498.6240000000107,,timeout,,,,unhealthy,,praline.png,,,,,,,,,,,,,,,praline,,,,,,,,,,,,,,,,,,,,,,,,,,,,,,,,,,,,,,,,,,,,,,,,,,,,,,,,,false,,,,,,,,,251779.74999975413,251778.669,251276.01,251277.72999973968,251303.952,251802.576,,,,
Rating,html.Form,2_4_2_1_7_1,2021-01-14T18:55:19.269Z,,,,,,,,,,,,,,,,,,,,,,,,,,,,,,,,,,,,,,,,,,,,,,,,,,,,,,,,,,,,,,,,,,,,,,,,,,,,,,,,,,,,,,,,,,,,,,,,,,,,,,,,,,,,,,,,,,,4640.238999725669,,form submission,,,,unhealthy,,praline.png,,,,,,,,,,,,,,,praline,,,,,,,,,,,,,,,,,,,,,,,,,,,,,,,,,,,,,,,,,,,,,,,,,,,,,,,,,false,,,,,,,,,256442.98999989405,256442.81499972567,251778.669,251780.04999971017,251802.576,256466.485,,,,83
rating_sequence,flow.Sequence,2_4_2_1_7,2021-01-14T18:55:19.269Z,,,,,,,,,,,,,,,,,,,,,,,,,,,,,,,,,,,,,,,,,,,,,,,,,,,,,,,,,,,,,,,,,,,,,,,,,,,,,,,,,,,,,,,,,,,,,,,,,,,,,,,,,,,,,,,,,,,5138.862999725679,,completion,,,,unhealthy,,praline.png,,,,,,,,,,,,,,,praline,,,,,,,,,,,,,,,,,,,,,,,,,,,,,,,,,,,,,,,,,,,,,,,,,,,,,,,,,false,,,,,,,,,256443.1400001049,256442.81499972567,251276.01,251277.694999706,251303.952,256466.485,,,,
fixCross,canvas.Screen,2_4_2_1_8_0,2021-01-14T18:55:19.753Z,,,,,,,,,,,,,,,,,,,,,,,,,,,,,,,,,,,,,,,,,,,,,,,,,,,,,,,,,,,,,,,,,,,,,,,,,,,,,,,,,,,,,,,,,,,,,,,,,,,,,,,,,,,,,,,,,,,483.762000000017,,timeout,,,,healthy,,coconut.png,,,,,,,,,,,,,,,coconut,,,,,,,,,,,,,,,,,,,,,,,,,,,,,,,,,,,,,,,,,,,,,,,,,,,,,,,,,false,,,,,,,,,256927.4299996905,256926.386,256434.214,256443.24499974027,256466.485,256950.247,,,,
Rating,html.Form,2_4_2_1_8_1,2021-01-14T18:55:25.446Z,,,,,,,,,,,,,,,,,,,,,,,,,,,,,,,,,,,,,,,,,,,,,,,,,,,,,,,,,,,,,,,,,,,,,,,,,,,,,,,,,,,,,,,,,,,,,,,,,,,,,,,,,,,,,,,,,,,5674.422999815521,,form submission,,,,healthy,,coconut.png,,,,,,,,,,,,,,,coconut,,,,,,,,,,,,,,,,,,,,,,,,,,,,,,,,,,,,,,,,,,,,,,,,,,,,,,,,,false,,,,,,,,,262624.8599998653,262624.6699998155,256926.386,256927.7449999936,256950.247,262643.9,,,,100
rating_sequence,flow.Sequence,2_4_2_1_8,2021-01-14T18:55:25.446Z,,,,,,,,,,,,,,,,,,,,,,,,,,,,,,,,,,,,,,,,,,,,,,,,,,,,,,,,,,,,,,,,,,,,,,,,,,,,,,,,,,,,,,,,,,,,,,,,,,,,,,,,,,,,,,,,,,,6158.184999815538,,completion,,,,healthy,,coconut.png,,,,,,,,,,,,,,,coconut,,,,,,,,,,,,,,,,,,,,,,,,,,,,,,,,,,,,,,,,,,,,,,,,,,,,,,,,,false,,,,,,,,,262625.01000007614,262624.6699998155,256434.214,256443.2149999775,256466.485,262643.9,,,,
fixCross,canvas.Screen,2_4_2_1_9_0,2021-01-14T18:55:25.946Z,,,,,,,,,,,,,,,,,,,,,,,,,,,,,,,,,,,,,,,,,,,,,,,,,,,,,,,,,,,,,,,,,,,,,,,,,,,,,,,,,,,,,,,,,,,,,,,,,,,,,,,,,,,,,,,,,,,511.86899999994785,,timeout,,,,healthy,,cherry.png,,,,,,,,,,,,,,,cherry,,,,,,,,,,,,,,,,,,,,,,,,,,,,,,,,,,,,,,,,,,,,,,,,,,,,,,,,,false,,,,,,,,,263124.9049999751,263123.892,262609.087,262625.1099999063,262643.9,263155.769,,,,
Rating,html.Form,2_4_2_1_9_1,2021-01-14T18:55:30.777Z,,,,,,,,,,,,,,,,,,,,,,,,,,,,,,,,,,,,,,,,,,,,,,,,,,,,,,,,,,,,,,,,,,,,,,,,,,,,,,,,,,,,,,,,,,,,,,,,,,,,,,,,,,,,,,,,,,,4800.135999747901,,form submission,,,,healthy,,cherry.png,,,,,,,,,,,,,,,cherry,,,,,,,,,,,,,,,,,,,,,,,,,,,,,,,,,,,,,,,,,,,,,,,,,,,,,,,,,false,,,,,,,,,267956.07499964535,267955.9049997479,263123.892,263125.20499993116,263155.769,267980.715,,,,100
rating_sequence,flow.Sequence,2_4_2_1_9,2021-01-14T18:55:30.777Z,,,,,,,,,,,,,,,,,,,,,,,,,,,,,,,,,,,,,,,,,,,,,,,,,,,,,,,,,,,,,,,,,,,,,,,,,,,,,,,,,,,,,,,,,,,,,,,,,,,,,,,,,,,,,,,,,,,5312.004999747849,,completion,,,,healthy,,cherry.png,,,,,,,,,,,,,,,cherry,,,,,,,,,,,,,,,,,,,,,,,,,,,,,,,,,,,,,,,,,,,,,,,,,,,,,,,,,false,,,,,,,,,267956.2399997376,267955.9049997479,262609.087,262625.07999967784,262643.9,267980.715,,,,
fixCross,canvas.Screen,2_4_2_1_10_0,2021-01-14T18:55:31.287Z,,,,,,,,,,,,,,,,,,,,,,,,,,,,,,,,,,,,,,,,,,,,,,,,,,,,,,,,,,,,,,,,,,,,,,,,,,,,,,,,,,,,,,,,,,,,,,,,,,,,,,,,,,,,,,,,,,,507.45100000000093,,timeout,,,,healthy,,apple.png,,,,,,,,,,,,,,,apple,,,,,,,,,,,,,,,,,,,,,,,,,,,,,,,,,,,,,,,,,,,,,,,,,,,,,,,,,false,,,,,,,,,268465.5249998905,268464.322,267950.76,267956.35499991477,267980.715,268488.166,,,,
Rating,html.Form,2_4_2_1_10_1,2021-01-14T18:55:35.518Z,,,,,,,,,,,,,,,,,,,,,,,,,,,,,,,,,,,,,,,,,,,,,,,,,,,,,,,,,,,,,,,,,,,,,,,,,,,,,,,,,,,,,,,,,,,,,,,,,,,,,,,,,,,,,,,,,,,4208.438999713573,,form submission,,,,healthy,,apple.png,,,,,,,,,,,,,,,apple,,,,,,,,,,,,,,,,,,,,,,,,,,,,,,,,,,,,,,,,,,,,,,,,,,,,,,,,,false,,,,,,,,,272696.8399998732,272696.6049997136,268464.322,268465.8249998465,268488.166,272724.134,,,,62
rating_sequence,flow.Sequence,2_4_2_1_10,2021-01-14T18:55:35.518Z,,,,,,,,,,,,,,,,,,,,,,,,,,,,,,,,,,,,,,,,,,,,,,,,,,,,,,,,,,,,,,,,,,,,,,,,,,,,,,,,,,,,,,,,,,,,,,,,,,,,,,,,,,,,,,,,,,,4715.889999713574,,completion,,,,healthy,,apple.png,,,,,,,,,,,,,,,apple,,,,,,,,,,,,,,,,,,,,,,,,,,,,,,,,,,,,,,,,,,,,,,,,,,,,,,,,,false,,,,,,,,,272697.0549998805,272696.6049997136,267950.76,267956.32499968633,267980.715,272724.134,,,,
fixCross,canvas.Screen,2_4_2_1_11_0,2021-01-14T18:55:36.010Z,,,,,,,,,,,,,,,,,,,,,,,,,,,,,,,,,,,,,,,,,,,,,,,,,,,,,,,,,,,,,,,,,,,,,,,,,,,,,,,,,,,,,,,,,,,,,,,,,,,,,,,,,,,,,,,,,,,487.79099999996834,,timeout,,,,healthy,,orange.png,,,,,,,,,,,,,,,orange,,,,,,,,,,,,,,,,,,,,,,,,,,,,,,,,,,,,,,,,,,,,,,,,,,,,,,,,,false,,,,,,,,,273189.2699999735,273188.058,272694.719,272697.1950000152,272724.134,273211.925,,,,
Rating,html.Form,2_4_2_1_11_1,2021-01-14T18:55:41.142Z,,,,,,,,,,,,,,,,,,,,,,,,,,,,,,,,,,,,,,,,,,,,,,,,,,,,,,,,,,,,,,,,,,,,,,,,,,,,,,,,,,,,,,,,,,,,,,,,,,,,,,,,,,,,,,,,,,,5108.95500001387,,form submission,,,,healthy,,orange.png,,,,,,,,,,,,,,,orange,,,,,,,,,,,,,,,,,,,,,,,,,,,,,,,,,,,,,,,,,,,,,,,,,,,,,,,,,false,,,,,,,,,278321.10999990255,278320.88000001386,273188.058,273189.61500003934,273211.925,278350.551,,,,100
rating_sequence,flow.Sequence,2_4_2_1_11,2021-01-14T18:55:41.142Z,,,,,,,,,,,,,,,,,,,,,,,,,,,,,,,,,,,,,,,,,,,,,,,,,,,,,,,,,,,,,,,,,,,,,,,,,,,,,,,,,,,,,,,,,,,,,,,,,,,,,,,,,,,,,,,,,,,5596.746000013838,,completion,,,,healthy,,orange.png,,,,,,,,,,,,,,,orange,,,,,,,,,,,,,,,,,,,,,,,,,,,,,,,,,,,,,,,,,,,,,,,,,,,,,,,,,false,,,,,,,,,278321.2799998,278320.88000001386,272694.719,272697.1499999054,272724.134,278350.551,,,,
fixCross,canvas.Screen,2_4_2_1_12_0,2021-01-14T18:55:41.641Z,,,,,,,,,,,,,,,,,,,,,,,,,,,,,,,,,,,,,,,,,,,,,,,,,,,,,,,,,,,,,,,,,,,,,,,,,,,,,,,,,,,,,,,,,,,,,,,,,,,,,,,,,,,,,,,,,,,492.31300000002375,,timeout,,,,unhealthy,,marshmallow.png,,,,,,,,,,,,,,,marshmallow,,,,,,,,,,,,,,,,,,,,,,,,,,,,,,,,,,,,,,,,,,,,,,,,,,,,,,,,,false,,,,,,,,,278820.07499970496,278819.026,278315.569,278321.38499990106,278350.551,278842.864,,,,
Rating,html.Form,2_4_2_1_12_1,2021-01-14T18:55:46.894Z,,,,,,,,,,,,,,,,,,,,,,,,,,,,,,,,,,,,,,,,,,,,,,,,,,,,,,,,,,,,,,,,,,,,,,,,,,,,,,,,,,,,,,,,,,,,,,,,,,,,,,,,,,,,,,,,,,,5230.295999679773,,form submission,,,,unhealthy,,marshmallow.png,,,,,,,,,,,,,,,marshmallow,,,,,,,,,,,,,,,,,,,,,,,,,,,,,,,,,,,,,,,,,,,,,,,,,,,,,,,,,false,,,,,,,,,284073.3300000429,284073.1599996798,278819.026,278820.36999985576,278842.864,284097.886,,,,31
rating_sequence,flow.Sequence,2_4_2_1_12,2021-01-14T18:55:46.895Z,,,,,,,,,,,,,,,,,,,,,,,,,,,,,,,,,,,,,,,,,,,,,,,,,,,,,,,,,,,,,,,,,,,,,,,,,,,,,,,,,,,,,,,,,,,,,,,,,,,,,,,,,,,,,,,,,,,5722.608999679796,,completion,,,,unhealthy,,marshmallow.png,,,,,,,,,,,,,,,marshmallow,,,,,,,,,,,,,,,,,,,,,,,,,,,,,,,,,,,,,,,,,,,,,,,,,,,,,,,,,false,,,,,,,,,284073.485000059,284073.1599996798,278315.569,278321.3599999435,278350.551,284097.886,,,,
fixCross,canvas.Screen,2_4_2_1_13_0,2021-01-14T18:55:47.400Z,,,,,,,,,,,,,,,,,,,,,,,,,,,,,,,,,,,,,,,,,,,,,,,,,,,,,,,,,,,,,,,,,,,,,,,,,,,,,,,,,,,,,,,,,,,,,,,,,,,,,,,,,,,,,,,,,,,503.90299999999115,,timeout,,,,healthy,,blueberry.png,,,,,,,,,,,,,,,blueberry,,,,,,,,,,,,,,,,,,,,,,,,,,,,,,,,,,,,,,,,,,,,,,,,,,,,,,,,,false,,,,,,,,,284578.9600000717,284577.924,284061.37,284073.5899996944,284097.886,284601.789,,,,
Rating,html.Form,2_4_2_1_13_1,2021-01-14T18:55:50.385Z,,,,,,,,,,,,,,,,,,,,,,,,,,,,,,,,,,,,,,,,,,,,,,,,,,,,,,,,,,,,,,,,,,,,,,,,,,,,,,,,,,,,,,,,,,,,,,,,,,,,,,,,,,,,,,,,,,,2962.3859999486012,,form submission,,,,healthy,,blueberry.png,,,,,,,,,,,,,,,blueberry,,,,,,,,,,,,,,,,,,,,,,,,,,,,,,,,,,,,,,,,,,,,,,,,,,,,,,,,,false,,,,,,,,,287564.3699998036,287564.1749999486,284577.924,284579.26499983296,284601.789,287587.972,,,,84
rating_sequence,flow.Sequence,2_4_2_1_13,2021-01-14T18:55:50.386Z,,,,,,,,,,,,,,,,,,,,,,,,,,,,,,,,,,,,,,,,,,,,,,,,,,,,,,,,,,,,,,,,,,,,,,,,,,,,,,,,,,,,,,,,,,,,,,,,,,,,,,,,,,,,,,,,,,,3466.2889999485924,,completion,,,,healthy,,blueberry.png,,,,,,,,,,,,,,,blueberry,,,,,,,,,,,,,,,,,,,,,,,,,,,,,,,,,,,,,,,,,,,,,,,,,,,,,,,,,false,,,,,,,,,287564.5399997011,287564.1749999486,284061.37,284073.5599999316,284097.886,287587.972,,,,
fixCross,canvas.Screen,2_4_2_1_14_0,2021-01-14T18:55:50.893Z,,,,,,,,,,,,,,,,,,,,,,,,,,,,,,,,,,,,,,,,,,,,,,,,,,,,,,,,,,,,,,,,,,,,,,,,,,,,,,,,,,,,,,,,,,,,,,,,,,,,,,,,,,,,,,,,,,,506.3489999999874,,timeout,,,,healthy,,raspberry.png,,,,,,,,,,,,,,,raspberry,,,,,,,,,,,,,,,,,,,,,,,,,,,,,,,,,,,,,,,,,,,,,,,,,,,,,,,,,false,,,,,,,,,288071.4349998161,288070.38,287559.227,287564.65499987826,287587.972,288094.321,,,,
Rating,html.Form,2_4_2_1_14_1,2021-01-14T18:55:53.536Z,,,,,,,,,,,,,,,,,,,,,,,,,,,,,,,,,,,,,,,,,,,,,,,,,,,,,,,,,,,,,,,,,,,,,,,,,,,,,,,,,,,,,,,,,,,,,,,,,,,,,,,,,,,,,,,,,,,2619.8339997031726,,form submission,,,,healthy,,raspberry.png,,,,,,,,,,,,,,,raspberry,,,,,,,,,,,,,,,,,,,,,,,,,,,,,,,,,,,,,,,,,,,,,,,,,,,,,,,,,false,,,,,,,,,290714.394999668,290714.15499970317,288070.38,288071.7449998483,288094.321,290743.194,,,,100
rating_sequence,flow.Sequence,2_4_2_1_14,2021-01-14T18:55:53.536Z,,,,,,,,,,,,,,,,,,,,,,,,,,,,,,,,,,,,,,,,,,,,,,,,,,,,,,,,,,,,,,,,,,,,,,,,,,,,,,,,,,,,,,,,,,,,,,,,,,,,,,,,,,,,,,,,,,,3126.18299970316,,completion,,,,healthy,,raspberry.png,,,,,,,,,,,,,,,raspberry,,,,,,,,,,,,,,,,,,,,,,,,,,,,,,,,,,,,,,,,,,,,,,,,,,,,,,,,,false,,,,,,,,,290714.644999709,290714.15499970317,287559.227,287564.6249996498,287587.972,290743.194,,,,
fixCross,canvas.Screen,2_4_2_1_15_0,2021-01-14T18:55:54.052Z,,,,,,,,,,,,,,,,,,,,,,,,,,,,,,,,,,,,,,,,,,,,,,,,,,,,,,,,,,,,,,,,,,,,,,,,,,,,,,,,,,,,,,,,,,,,,,,,,,,,,,,,,,,,,,,,,,,519.0579999999609,,timeout,,,,unhealthy,,m&m.png,,,,,,,,,,,,,,,m&m,,,,,,,,,,,,,,,,,,,,,,,,,,,,,,,,,,,,,,,,,,,,,,,,,,,,,,,,,false,,,,,,,,,291230.5299998261,291229.454,290706.771,290714.79499991983,290743.194,291262.252,,,,
Rating,html.Form,2_4_2_1_15_1,2021-01-14T18:55:57.757Z,,,,,,,,,,,,,,,,,,,,,,,,,,,,,,,,,,,,,,,,,,,,,,,,,,,,,,,,,,,,,,,,,,,,,,,,,,,,,,,,,,,,,,,,,,,,,,,,,,,,,,,,,,,,,,,,,,,3673.608000085107,,form submission,,,,unhealthy,,m&m.png,,,,,,,,,,,,,,,m&m,,,,,,,,,,,,,,,,,,,,,,,,,,,,,,,,,,,,,,,,,,,,,,,,,,,,,,,,,false,,,,,,,,,294936.08499970287,294935.8600000851,291229.454,291230.84499966353,291262.252,294952.396,,,,72
rating_sequence,flow.Sequence,2_4_2_1_15,2021-01-14T18:55:57.757Z,,,,,,,,,,,,,,,,,,,,,,,,,,,,,,,,,,,,,,,,,,,,,,,,,,,,,,,,,,,,,,,,,,,,,,,,,,,,,,,,,,,,,,,,,,,,,,,,,,,,,,,,,,,,,,,,,,,4192.666000085068,,completion,,,,unhealthy,,m&m.png,,,,,,,,,,,,,,,m&m,,,,,,,,,,,,,,,,,,,,,,,,,,,,,,,,,,,,,,,,,,,,,,,,,,,,,,,,,false,,,,,,,,,294936.3150000572,294935.8600000851,290706.771,290714.75999988616,290743.194,294952.396,,,,
fixCross,canvas.Screen,2_4_2_1_16_0,2021-01-14T18:55:58.254Z,,,,,,,,,,,,,,,,,,,,,,,,,,,,,,,,,,,,,,,,,,,,,,,,,,,,,,,,,,,,,,,,,,,,,,,,,,,,,,,,,,,,,,,,,,,,,,,,,,,,,,,,,,,,,,,,,,,511.9670000000042,,timeout,,,,unhealthy,,chocolate_truffle.png,,,,,,,,,,,,,,,chocolate truffle,,,,,,,,,,,,,,,,,,,,,,,,,,,,,,,,,,,,,,,,,,,,,,,,,,,,,,,,,false,,,,,,,,,295433.0750000663,295432.389,294921.738,294936.5749997087,294952.396,295464.363,,,,
Rating,html.Form,2_4_2_1_16_1,2021-01-14T18:56:18.561Z,,,,,,,,,,,,,,,,,,,,,,,,,,,,,,,,,,,,,,,,,,,,,,,,,,,,,,,,,,,,,,,,,,,,,,,,,,,,,,,,,,,,,,,,,,,,,,,,,,,,,,,,,,,,,,,,,,,20275.56199988525,,form submission,,,,unhealthy,,chocolate_truffle.png,,,,,,,,,,,,,,,chocolate truffle,,,,,,,,,,,,,,,,,,,,,,,,,,,,,,,,,,,,,,,,,,,,,,,,,,,,,,,,,false,,,,,,,,,315740.1499999687,315739.92499988526,295432.389,295433.3399999887,295464.363,315757.975,,,,76
rating_sequence,flow.Sequence,2_4_2_1_16,2021-01-14T18:56:18.561Z,,,,,,,,,,,,,,,,,,,,,,,,,,,,,,,,,,,,,,,,,,,,,,,,,,,,,,,,,,,,,,,,,,,,,,,,,,,,,,,,,,,,,,,,,,,,,,,,,,,,,,,,,,,,,,,,,,,20787.528999885253,,completion,,,,unhealthy,,chocolate_truffle.png,,,,,,,,,,,,,,,chocolate truffle,,,,,,,,,,,,,,,,,,,,,,,,,,,,,,,,,,,,,,,,,,,,,,,,,,,,,,,,,false,,,,,,,,,315740.37500005215,315739.92499988526,294921.738,294936.5249997936,294952.396,315757.975,,,,
fixCross,canvas.Screen,2_4_2_1_17_0,2021-01-14T18:56:19.037Z,,,,,,,,,,,,,,,,,,,,,,,,,,,,,,,,,,,,,,,,,,,,,,,,,,,,,,,,,,,,,,,,,,,,,,,,,,,,,,,,,,,,,,,,,,,,,,,,,,,,,,,,,,,,,,,,,,,481.8620000000228,,timeout,,,,unhealthy,,chocolate.png,,,,,,,,,,,,,,,chocolate,,,,,,,,,,,,,,,,,,,,,,,,,,,,,,,,,,,,,,,,,,,,,,,,,,,,,,,,,false,,,,,,,,,316216.3249999285,316214.414,315725.294,315740.54499994963,315757.975,316239.837,,,,
Rating,html.Form,2_4_2_1_17_1,2021-01-14T18:56:29.607Z,,,,,,,,,,,,,,,,,,,,,,,,,,,,,,,,,,,,,,,,,,,,,,,,,,,,,,,,,,,,,,,,,,,,,,,,,,,,,,,,,,,,,,,,,,,,,,,,,,,,,,,,,,,,,,,,,,,10545.347999927879,,form submission,,,,unhealthy,,chocolate.png,,,,,,,,,,,,,,,chocolate,,,,,,,,,,,,,,,,,,,,,,,,,,,,,,,,,,,,,,,,,,,,,,,,,,,,,,,,,false,,,,,,,,,326785.37499997765,326785.1849999279,316214.414,316216.6249998845,316239.837,326866.089,,,,41
rating_sequence,flow.Sequence,2_4_2_1_17,2021-01-14T18:56:29.607Z,,,,,,,,,,,,,,,,,,,,,,,,,,,,,,,,,,,,,,,,,,,,,,,,,,,,,,,,,,,,,,,,,,,,,,,,,,,,,,,,,,,,,,,,,,,,,,,,,,,,,,,,,,,,,,,,,,,11027.209999927902,,completion,,,,unhealthy,,chocolate.png,,,,,,,,,,,,,,,chocolate,,,,,,,,,,,,,,,,,,,,,,,,,,,,,,,,,,,,,,,,,,,,,,,,,,,,,,,,,false,,,,,,,,,326785.5400000699,326785.1849999279,315725.294,315740.50499964505,315757.975,326866.089,,,,
rating_loop,flow.Loop,2_4_2_1,2021-01-14T18:56:29.607Z,,,,,,,,,,,,,,,,,,,,,,,,,,,,,,,,,,,,,,,,,,,,,,,,,,,,,,,,,,,,,,,,,,,,,,,,,,,,,,,,,,,,,,,,,,,,,,,,,,,,,,,,,,,,,,,,,,,124041.11499992787,,completion,,,,,,,,,,,,,,,,,,,,,,,,,,,,,,,,,,,,,,,,,,,,,,,,,,,,,,,,,,,,,,,,,,,,,,,,,,,,,,false,,,,,,,,,326785.7200000435,326785.1849999279,202718.033,202725.80499993637,202744.07,326866.089,,,,
data_transmission,html.Screen,2_4_2_2,2021-01-14T18:56:29.613Z,,,,,,,,,,,,,,,,,,,,,,,,,,,,,,,,,,,,,,,,,,,,,,,,,,,,,,,,,,,,,,,,,,,,,,,,,,,,,,,,,,,,,,,,,,,,,,,,,,,,,,,,,,,,,,,,,,,NaN,,no compatible backend,,,,,,,,,,,,,,,Transferring data,,,,,,,,,,,,,,,,,,,,,,,,,,,,,,,,,,,,,,,,,,,,,,,,,,,,,,,,,,,,,,,false,,,Please wait a second…,,,,,,326791.9799997471,326791.7999997735,,326785.8150000684,,326866.089,,,,
instructions,html.Screen,2_4_2_3,2021-01-14T18:58:40.776Z,,,,,,,,,,,,,,,,,,,,,,,,,,,,,,,,,,,,,,,,,,,,,,,,,,,,,,,,,,,,,,,,,,,,,,,,,,,,,,,,,,,,,,,,,,,,,,,,,,,,,,,,,,,,,,,,,,,131082.34099987306,,done,,,,,,,,,,,,,,,,,,,,,,,,,,,,,,,,,,,,,,,,,,,,,,,,,,,,,,,,,,,,,,,,,,,,,,,,,,,,,,false,,,,,,,,,457949.0499999374,457948.42999987304,326772.87,326792.1400000341,326866.089,457972.444,,,,
Q1,html.Screen,2_4_2_4_0,2021-01-14T18:59:04.530Z,,,,,,,,,,,,,,,,,,,,,,,,,,,,,,,,,,,,,,,,,,,,,,,,,,,,,,,,,,,,,,,,,,,,,,,,,,,,,,,,,,,,,,,,,,,,,,,,,,,,,,,,,,,,,,,false,input_Q1==3,,,23728.66599979077,,response,,,,,,,,,,,,,,,,,,,,,,,,,Q1_i2,Q1_i4,Q1_i3,Q1_i1,2,4,3,1,false,false,correct,false,,,,,,,,,,,,,,,,,,,,,,,,,,,,,,,,,,,,,,,,,click #Q1_i3,false,,,,,,,,,481703.52499978617,481701.1099997908,457937.906,457949.51999979094,457972.444,481759.476,,,,
Q1_correct,html.Screen,2_4_2_4_1,2021-01-14T18:59:06.454Z,,,,,,,,,,,,,,,,,,,,,,,,,,,,,,,,,,,,,,,,,,,,,,,,,,,,,,,,,,,,,,,,,,,,,,,,,,,,,,,,,,,,,,,,,,,,,,,,,,,,,,,,,,,,,,,,,,,1865.6839998213109,,response,,,,,,,,,,,,,,,,,,,,,,,,,,,,,,,,,,,,,,,,,,,,,,,,,,,,,,,,,,,,,,,,,,,,,,,,,,,,,keypress,false,,,,,,,,,483627.33000004664,483625.15999982134,481726.644,481703.7100000307,481759.476,483650.593,,,,
Q2,html.Screen,2_4_2_4_2,2021-01-14T18:59:14.106Z,,,,,,,,,,,,,,,,,,,,,,,,,,,,,,,,,,,,,,,,,,,,,,,,,,,,,,,,,,,,,,,,,,,,,,,,,,,,,,,,,,,,,,,,,,,,,,,,,,,,,,,,,,,,,,,,,,,7628.331999758608,,response,,,,,,,,,,,,,,,,,,,,,,,,,,,,,,,,,,,,,Q2_i3,Q2_i2,Q2_i1,Same amount,Option 2,Option 1,same,opt2,correct,,,,,,,,,,,,,,,,,,,,,,,,,,,,,,,,click #Q2_i1,false,,,,,,,,,491279.8649999313,491278.9249997586,483625.681,483627.7350001037,483650.593,491312.291,,,,
Q2_correct,html.Screen,2_4_2_4_3,2021-01-14T18:59:16.031Z,,,,,,,,,,,,,,,,,,,,,,,,,,,,,,,,,,,,,,,,,,,,,,,,,,,,,,,,,,,,,,,,,,,,,,,,,,,,,,,,,,,,,,,,,,,,,,,,,,,,,,,,,,,,,,,,,,,1890.598999840382,,response,,,,,,,,,,,,,,,,,,,,,,,,,,,,,,,,,,,,,,,,,,,,,,,,,,,,,,,,,,,,,,,,,,,,,,,,,,,,,keypress,false,,,,,,,,,493204.564999789,493202.8899998404,491274.934,491280.08499974385,491312.291,493232.545,,,,
Q4,html.Screen,2_4_2_4_4,2021-01-14T18:59:29.534Z,,,,,,,,,,,,,,,,,,,,,,,,,,,,,,,,,,,,,,,,,,,,,,,,,,,,,,,,,,,,,,,,,,,,,,,,,,,,,,,,,,,,,,,,,,,,,,,,,,,,,,,,,,,,,,,,,,,13473.959999659972,,response,,,,,,,,,,,,,,,,,,,,,,,,,,,,,,,,,,,,,,,,,,,,,,Q4_i2,Q4_i3,Q4_i1,Q4_i4,Indicate the number of food items in each snack option,Press the arrow key that corresponds with the snack option with more food items,Press the arrow key that corresponds with the snack option I prefer,Press the space key,indicate,morefood,correct,pressspace,,,,,,,,,,,,,,,,,,,,click #Q4_i1,false,,,,,,,,,506707.30499969795,506706.50499965996,493201.927,493204.8749998212,493232.545,506730.211,,,,
Q4_correct,html.Screen,2_4_2_4_5,2021-01-14T18:59:30.697Z,,,,,,,,,,,,,,,,,,,,,,,,,,,,,,,,,,,,,,,,,,,,,,,,,,,,,,,,,,,,,,,,,,,,,,,,,,,,,,,,,,,,,,,,,,,,,,,,,,,,,,,,,,,,,,,,,,,1138.9789999976056,,response,,,,,,,,,,,,,,,,,,,,,,,,,,,,,,,,,,,,,,,,,,,,,,,,,,,,,,,,,,,,,,,,,,,,,,,,,,,,,keypress,false,,,,,,,,,507870.43999973685,507869.1899999976,506692.107,506707.5299997814,506730.211,507901.438,,,,
Q5,html.Screen,2_4_2_4_6,2021-01-14T18:59:41.806Z,,,,,,,,,,,,,,,,,,,,,,,,,,,,,,,,,,,,,,,,,,,,,,,,,,,,,,,,,,,,,,,,,,,,,,,,,,,,,,,,,,,,,,,,,,,,,,,,,,,,,,,,,,,,,,,,,,,11081.121999916679,,response,,,,,,,,,,,,,,,,,,,,,,,,,,,,,,,,,,,,,,,,,,,,,,,,,,,,,,,,,,Q5_i1,Q5_i3,Q5_i4,Q5_i2,Snack Option 2 has been chosen,There are more slices of kiwi in snack Option 1,Snack Option 1 has been chosen,There are more pieces of chocolate in snack Option 2,correct,morekiwi1,chose1,morechoc2,,,,,,,,click #Q5_i1,false,,,,,,,,,518983.3749998361,518982.5599999167,507860.814,507870.7999996841,507901.438,519007.111,,,,
Q5_correct,html.Screen,2_4_2_4_7,2021-01-14T18:59:42.942Z,,,,,,,,,,,,,,,,,,,,,,,,,,,,,,,,,,,,,,,,,,,,,,,,,,,,,,,,,,,,,,,,,,,,,,,,,,,,,,,,,,,,,,,,,,,,,,,,,,,,,,,,,,,,,,,,,,,1110.963999656553,,response,,,,,,,,,,,,,,,,,,,,,,,,,,,,,,,,,,,,,,,,,,,,,,,,,,,,,,,,,,,,,,,,,,,,,,,,,,,,,keypress,false,,,,,,,,,520119.85499970615,520118.0749996565,518970.322,518983.59999991953,519007.111,520151.69,,,,
practice_sequence,flow.Sequence,2_4_2_4,2021-01-14T18:59:42.943Z,,,,,,,,,,,,,,,,,,,,,,,,,,,,,,,,,,,,,,,,,,,,,,,,,,,,,,,,,,,,,,,,,,,,,,,,,,,,,,,,,,,,,,,,,,,,,,,,,,,,,,,,,,,,,,,,,,,62145.63099965651,,completion,,,,,,,,,,,,,,,,,,,,,,,,,,,,,,,,,,,,,,,,,,,,,,,,,,,,,,,,,,,,,,,,,,,,,,,,,,,,,,false,,,,,,,,,520120.6049998291,520118.0749996565,457937.906,457949.4199999608,457972.444,520151.69,,,,
final_instru,html.Screen,2_4_2_5,2021-01-14T19:00:22.530Z,,,,,,,,,,,,,,,,,,,,,,,,,,,,,,,,,,,,,,,,,,,,,,,,,,,,,,,,,,,,,,,,,,,,,,,,,,,,,,,,,,,,,,,,,,,,,,,,,,,,,,,,,,,,,,,,,,,39556.21999988094,,done,,,,,,,,,,,,,,,,,,,,,,,,,,,,,,,,,,,,,,,,,,,,,,,,,,,,,,,,,,,,,,,,,,,,,,,,,,,,,,false,,,,,,,,,559708.2799999043,559707.9099998809,520107.169,520121.0599998012,520151.69,559736.857,,,,
blank_screen,canvas.Screen,2_4_2_6_0,2021-01-14T19:00:24.521Z,,,,,,,,,,,,,,,,,,,,,,,,,,,,,,,,,,,,,,,,,,,,,,,,,,,,,,,,,,,,,,,,,,,,,,,,,,,,,,,,,,,,,,,,,,,,,,,,,,,,,,,,,,,,,,,,,,,2041.1970000000438,,timeout,,,,,,,,,,,,,,,,,,,,,,,,,,,,,,,,,,,,,,,,,,,,,,,,,,,,,,,,,,,,,,,,,,,,,,,,,,,,,,false,,,,,,,,,561699.229999911,561698.227,559697.127,559708.6749998853,559736.857,561778.054,,,,
fixCross,canvas.Screen,2_4_2_6_1_0_0_0_0_0_0,2021-01-14T19:00:25.054Z,,,blank.png,"[""maltesers.png""]",blank.png,blank.png,blank.png,blank.png,blank.png,blank.png,blank.png,blank.png,blank.png,blank.png,blank.png,,,,,,,,,,,,,,,,,,,,,,,,,,,,,"[""maltesers.png""]","[""pear.png""]",PB07.png,,,,,,,,,,,0,6,"[""pear.png""]","[""pear.png""]","[""pear.png""]","[""pear.png""]","[""pear.png""]","[""pear.png""]",blank.png,PB18.png,PB18.png,"[""pear.png""]",blank.png,blank.png,blank.png,blank.png,blank.png,"[""pear.png""]","[""pear.png""]","[""pear.png""]","[""pear.png""]","[""pear.png""]","[""pear.png""]",1,"[""maltesers.png""]",blank.png,blank.png,blank.png,1,"[""pear.png""]",blank.png,blank.png,blank.png,blank.png,blank.png,PB07.png,,,,,,,,,,,1,,,,,,,,,,,,1704.0590000000084,,timeout,,,,,,,,,,,,,3,,,,,,,,,,,,,,,,,,,,,,,,,,,,,,,,,,,,,,,,,,,,,,,,,,,,,,,,,"[""pear.png""]","[""maltesers.png""]",,,,5,,,false,,1,,,,,,,562232.1099997498,562230.805,561698.227,561788.8299999759,561778.054,563482.113,1,,,
timeout,canvas.Screen,2_4_2_6_1_0_0_0_0_0_1,2021-01-14T19:00:26.796Z,,,blank.png,"[""maltesers.png""]",blank.png,blank.png,blank.png,blank.png,blank.png,blank.png,blank.png,blank.png,blank.png,blank.png,blank.png,,,,,,,,,,,,,,,,,,,,,,,,,,,,,"[""maltesers.png""]","[""pear.png""]",PB07.png,,,,,,,,,,,0,6,"[""pear.png""]","[""pear.png""]","[""pear.png""]","[""pear.png""]","[""pear.png""]","[""pear.png""]",blank.png,PB18.png,PB18.png,"[""pear.png""]",blank.png,blank.png,blank.png,blank.png,blank.png,"[""pear.png""]","[""pear.png""]","[""pear.png""]","[""pear.png""]","[""pear.png""]","[""pear.png""]",1,"[""maltesers.png""]",blank.png,blank.png,blank.png,1,"[""pear.png""]",blank.png,blank.png,blank.png,blank.png,blank.png,PB07.png,,,,,,,,,,,1,,,,,,,,,,,,1218.3129999999655,,timeout,,,,,,,,,,,,,3,,,,,,,,,,,,,,,,,,,,,,,,,,,,,,,,,,,,,,,,,,,,,,,,,,,,,,,,,"[""pear.png""]","[""maltesers.png""]",,,,5,,,false,,1,,,,,,,563974.0049997345,563972.524,562230.805,563504.334999714,563482.113,564700.426,,,,
choice,canvas.Screen,2_4_2_6_1_0_0_0_0_0_2,2021-01-14T19:00:29.195Z,,,blank.png,"[""maltesers.png""]",blank.png,blank.png,blank.png,blank.png,blank.png,blank.png,blank.png,blank.png,blank.png,blank.png,blank.png,,,,,,,,,,,,,,,,,,,,,,,,,,,,,"[""maltesers.png""]","[""pear.png""]",PB07.png,,,,,,,,,,,0,6,"[""pear.png""]","[""pear.png""]","[""pear.png""]","[""pear.png""]","[""pear.png""]","[""pear.png""]",blank.png,PB18.png,PB18.png,"[""pear.png""]",blank.png,blank.png,blank.png,blank.png,blank.png,"[""pear.png""]","[""pear.png""]","[""pear.png""]","[""pear.png""]","[""pear.png""]","[""pear.png""]",1,"[""maltesers.png""]",blank.png,blank.png,blank.png,1,"[""pear.png""]",blank.png,blank.png,blank.png,blank.png,blank.png,PB07.png,,,,,,,,,,,1,,,,,,,,,,,,1670.4389999462292,,response,,,,,,,,,,,,,3,,,,,,,,,,,,,,,,,,,,,,,,,,,,,,,,,,,,,,,,,,,,,,,,,,,,,,,,,"[""pear.png""]","[""maltesers.png""]",,,,5,right,keydown(ArrowRight),false,,1,,,,,,,566372.549999971,566370.8649999462,563972.524,564733.9200000279,564700.426,567036.172,,1,,
square,canvas.Screen,2_4_2_6_1_0_0_0_0_0_3,2021-01-14T19:00:30.832Z,,,blank.png,"[""maltesers.png""]",blank.png,blank.png,blank.png,blank.png,blank.png,blank.png,blank.png,blank.png,blank.png,blank.png,blank.png,,,,,,,,,,,,,,,,,,,,,,,,,,,,,"[""maltesers.png""]","[""pear.png""]",PB07.png,,,,,,,,,,,0,6,"[""pear.png""]","[""pear.png""]","[""pear.png""]","[""pear.png""]","[""pear.png""]","[""pear.png""]",blank.png,PB18.png,PB18.png,"[""pear.png""]",blank.png,blank.png,blank.png,blank.png,blank.png,"[""pear.png""]","[""pear.png""]","[""pear.png""]","[""pear.png""]","[""pear.png""]","[""pear.png""]",1,"[""maltesers.png""]",blank.png,blank.png,blank.png,1,"[""pear.png""]",blank.png,blank.png,blank.png,blank.png,blank.png,PB07.png,,,,,,,,,,,1,,#808080,#33ff3f,,,,,,,,,1006.2369999999646,,timeout,,,,,,,,,,,,,3,,,,,,,,,,,,,,,,,,,,,,,,,,,,,,,,,,,,,,,,,,,,,,,,,,,,,,,,,"[""pear.png""]","[""maltesers.png""]",,,,5,,,false,,1,,,,,white,black,568010.1999999024,568009.389,566978.847,566982.7350000851,567036.172,568042.409,,,,
ITI_late,canvas.Screen,2_4_2_6_1_0_0_0_0_0_4,2021-01-14T19:00:31.098Z,,,blank.png,"[""maltesers.png""]",blank.png,blank.png,blank.png,blank.png,blank.png,blank.png,blank.png,blank.png,blank.png,blank.png,blank.png,,,,,,,,,,,,,,,,,,,,,,,,,,,,,"[""maltesers.png""]","[""pear.png""]",PB07.png,,,,,,,,,,,0,6,"[""pear.png""]","[""pear.png""]","[""pear.png""]","[""pear.png""]","[""pear.png""]","[""pear.png""]",blank.png,PB18.png,PB18.png,"[""pear.png""]",blank.png,blank.png,blank.png,blank.png,blank.png,"[""pear.png""]","[""pear.png""]","[""pear.png""]","[""pear.png""]","[""pear.png""]","[""pear.png""]",1,"[""maltesers.png""]",blank.png,blank.png,blank.png,1,"[""pear.png""]",blank.png,blank.png,blank.png,blank.png,blank.png,PB07.png,,,,,,,,,,,1,,,,,,,,,,,,256.46200000005774,,timeout,,,,,,,,,,,,white,3,,,,,,,,,,,,,,,,,,,,,,,,,,,,,,,,,,,,,,,,,,,,,,,,,,,,,,,,,"[""pear.png""]","[""maltesers.png""]",,,,5,,,false,,1,,,,,,,568275.5849999376,568274.244,568009.389,568012.9549996927,568042.409,568298.871,,,,
choice_sequence,flow.Sequence,2_4_2_6_1_0_0_0_0_0,2021-01-14T19:00:31.099Z,,,blank.png,"[""maltesers.png""]",blank.png,blank.png,blank.png,blank.png,blank.png,blank.png,blank.png,blank.png,blank.png,blank.png,blank.png,,,,,,,,,,,,,,,,,,,,,,,,,,,,,"[""maltesers.png""]","[""pear.png""]",PB07.png,,,,,,,,,,,0,6,"[""pear.png""]","[""pear.png""]","[""pear.png""]","[""pear.png""]","[""pear.png""]","[""pear.png""]",blank.png,PB18.png,PB18.png,"[""pear.png""]",blank.png,blank.png,blank.png,blank.png,blank.png,"[""pear.png""]","[""pear.png""]","[""pear.png""]","[""pear.png""]","[""pear.png""]","[""pear.png""]",1,"[""maltesers.png""]",blank.png,blank.png,blank.png,1,"[""pear.png""]",blank.png,blank.png,blank.png,blank.png,blank.png,PB07.png,,,,,,,,,,,1,,,,,,,,,,,,6496.189999999944,,completion,,,,,,,,,,,,,3,,,,,,,,,,,,,,,,,,,,,,,,,,,,,,,,,,,,,,,,,,,,,,,,,,,,,,,,,"[""pear.png""]","[""maltesers.png""]",,,,5,,,false,,1,,,,,,,568277.1099996753,568274.244,561698.227,561784.9699999206,561778.054,568298.871,,,,
fixCross,canvas.Screen,2_4_2_6_1_0_0_0_0_1_0,2021-01-14T19:00:31.798Z,,,blank.png,blank.png,blank.png,blank.png,blank.png,blank.png,blank.png,"[""maltesers.png""]",blank.png,blank.png,blank.png,blank.png,blank.png,,,,,,,,,,,,,,,,,,,,,,,,,,,,,"[""maltesers.png""]","[""pear.png""]",PB18.png,,,,,,,,,,,0,6,"[""pear.png""]","[""pear.png""]","[""pear.png""]","[""pear.png""]","[""pear.png""]","[""pear.png""]",blank.png,PB18.png,PB17.png,"[""pear.png""]","[""pear.png""]","[""pear.png""]","[""pear.png""]","[""pear.png""]","[""pear.png""]","[""pear.png""]","[""pear.png""]","[""pear.png""]","[""pear.png""]","[""pear.png""]","[""pear.png""]",1,"[""maltesers.png""]",blank.png,blank.png,blank.png,6,"[""pear.png""]","[""pear.png""]","[""pear.png""]","[""pear.png""]","[""pear.png""]","[""pear.png""]",PB17.png,,,,,,,,,,,1,,,,,,,,,,,,1299.1489999999758,,timeout,,,,,,,,,,,,,4,,,,,,,,,,,,,,,,,,,,,,,,,,,,,,,,,,,,,,,,,,,,,,,,,,,,,,,,,"[""pear.png""]","[""maltesers.png""]",,,,5,,,false,,1,,,,,,,568975.3899998032,568974.079,568274.244,568292.7749999799,568298.871,569598.02,2,,,
timeout,canvas.Screen,2_4_2_6_1_0_0_0_0_1_1,2021-01-14T19:00:32.922Z,,,blank.png,blank.png,blank.png,blank.png,blank.png,blank.png,blank.png,"[""maltesers.png""]",blank.png,blank.png,blank.png,blank.png,blank.png,,,,,,,,,,,,,,,,,,,,,,,,,,,,,"[""maltesers.png""]","[""pear.png""]",PB18.png,,,,,,,,,,,0,6,"[""pear.png""]","[""pear.png""]","[""pear.png""]","[""pear.png""]","[""pear.png""]","[""pear.png""]",blank.png,PB18.png,PB17.png,"[""pear.png""]","[""pear.png""]","[""pear.png""]","[""pear.png""]","[""pear.png""]","[""pear.png""]","[""pear.png""]","[""pear.png""]","[""pear.png""]","[""pear.png""]","[""pear.png""]","[""pear.png""]",1,"[""maltesers.png""]",blank.png,blank.png,blank.png,6,"[""pear.png""]","[""pear.png""]","[""pear.png""]","[""pear.png""]","[""pear.png""]","[""pear.png""]",PB17.png,,,,,,,,,,,1,,,,,,,,,,,,1356.371999999974,,timeout,,,,,,,,,,,,,4,,,,,,,,,,,,,,,,,,,,,,,,,,,,,,,,,,,,,,,,,,,,,,,,,,,,,,,,,"[""pear.png""]","[""maltesers.png""]",,,,5,,,false,,1,,,,,,,570099.9149996787,570098.583,568974.079,569610.1349997334,569598.02,570954.392,,,,
choice,canvas.Screen,2_4_2_6_1_0_0_0_0_1_2,2021-01-14T19:00:37.225Z,,,blank.png,blank.png,blank.png,blank.png,blank.png,blank.png,blank.png,"[""maltesers.png""]",blank.png,blank.png,blank.png,blank.png,blank.png,,,,,,,,,,,,,,,,,,,,,,,,,,,,,"[""maltesers.png""]","[""pear.png""]",PB18.png,,,,,,,,,,,0,6,"[""pear.png""]","[""pear.png""]","[""pear.png""]","[""pear.png""]","[""pear.png""]","[""pear.png""]",blank.png,PB18.png,PB17.png,"[""pear.png""]","[""pear.png""]","[""pear.png""]","[""pear.png""]","[""pear.png""]","[""pear.png""]","[""pear.png""]","[""pear.png""]","[""pear.png""]","[""pear.png""]","[""pear.png""]","[""pear.png""]",1,"[""maltesers.png""]",blank.png,blank.png,blank.png,6,"[""pear.png""]","[""pear.png""]","[""pear.png""]","[""pear.png""]","[""pear.png""]","[""pear.png""]",PB17.png,,,,,,,,,,,1,,,,,,,,,,,,3438.933000070043,,response,,,,,,,,,,,,,4,,,,,,,,,,,,,,,,,,,,,,,,,,,,,,,,,,,,,,,,,,,,,,,,,,,,,,,,,"[""pear.png""]","[""maltesers.png""]",,,,5,right,keydown(ArrowRight),false,,1,,,,,,,574403.3099999651,574393.32500007,570098.583,570884.2599997297,570954.392,574953.743,,2,,
square,canvas.Screen,2_4_2_6_1_0_0_0_0_1_3,2021-01-14T19:00:38.770Z,,,blank.png,blank.png,blank.png,blank.png,blank.png,blank.png,blank.png,"[""maltesers.png""]",blank.png,blank.png,blank.png,blank.png,blank.png,,,,,,,,,,,,,,,,,,,,,,,,,,,,,"[""maltesers.png""]","[""pear.png""]",PB18.png,,,,,,,,,,,0,6,"[""pear.png""]","[""pear.png""]","[""pear.png""]","[""pear.png""]","[""pear.png""]","[""pear.png""]",blank.png,PB18.png,PB17.png,"[""pear.png""]","[""pear.png""]","[""pear.png""]","[""pear.png""]","[""pear.png""]","[""pear.png""]","[""pear.png""]","[""pear.png""]","[""pear.png""]","[""pear.png""]","[""pear.png""]","[""pear.png""]",1,"[""maltesers.png""]",blank.png,blank.png,blank.png,6,"[""pear.png""]","[""pear.png""]","[""pear.png""]","[""pear.png""]","[""pear.png""]","[""pear.png""]",PB17.png,,,,,,,,,,,1,,#808080,#33ff3f,,,,,,,,,1017.277999999933,,timeout,,,,,,,,,,,,,4,,,,,,,,,,,,,,,,,,,,,,,,,,,,,,,,,,,,,,,,,,,,,,,,,,,,,,,,,"[""pear.png""]","[""maltesers.png""]",,,,5,,,false,,1,,,,,white,black,575947.3699997179,575945.683,574926.602,574931.4649999142,574953.743,575971.021,,,,
ITI_late,canvas.Screen,2_4_2_6_1_0_0_0_0_1_4,2021-01-14T19:00:39.253Z,,,blank.png,blank.png,blank.png,blank.png,blank.png,blank.png,blank.png,"[""maltesers.png""]",blank.png,blank.png,blank.png,blank.png,blank.png,,,,,,,,,,,,,,,,,,,,,,,,,,,,,"[""maltesers.png""]","[""pear.png""]",PB18.png,,,,,,,,,,,0,6,"[""pear.png""]","[""pear.png""]","[""pear.png""]","[""pear.png""]","[""pear.png""]","[""pear.png""]",blank.png,PB18.png,PB17.png,"[""pear.png""]","[""pear.png""]","[""pear.png""]","[""pear.png""]","[""pear.png""]","[""pear.png""]","[""pear.png""]","[""pear.png""]","[""pear.png""]","[""pear.png""]","[""pear.png""]","[""pear.png""]",1,"[""maltesers.png""]",blank.png,blank.png,blank.png,6,"[""pear.png""]","[""pear.png""]","[""pear.png""]","[""pear.png""]","[""pear.png""]","[""pear.png""]",PB17.png,,,,,,,,,,,1,,,,,,,,,,,,491.55200000002515,,timeout,,,,,,,,,,,,white,4,,,,,,,,,,,,,,,,,,,,,,,,,,,,,,,,,,,,,,,,,,,,,,,,,,,,,,,,,"[""pear.png""]","[""maltesers.png""]",,,,5,,,false,,1,,,,,,,576431.1099997722,576429.867,575945.683,575952.6999997906,575971.021,576462.573,,,,
choice_sequence,flow.Sequence,2_4_2_6_1_0_0_0_0_1,2021-01-14T19:00:39.255Z,,,blank.png,blank.png,blank.png,blank.png,blank.png,blank.png,blank.png,"[""maltesers.png""]",blank.png,blank.png,blank.png,blank.png,blank.png,,,,,,,,,,,,,,,,,,,,,,,,,,,,,"[""maltesers.png""]","[""pear.png""]",PB18.png,,,,,,,,,,,0,6,"[""pear.png""]","[""pear.png""]","[""pear.png""]","[""pear.png""]","[""pear.png""]","[""pear.png""]",blank.png,PB18.png,PB17.png,"[""pear.png""]","[""pear.png""]","[""pear.png""]","[""pear.png""]","[""pear.png""]","[""pear.png""]","[""pear.png""]","[""pear.png""]","[""pear.png""]","[""pear.png""]","[""pear.png""]","[""pear.png""]",1,"[""maltesers.png""]",blank.png,blank.png,blank.png,6,"[""pear.png""]","[""pear.png""]","[""pear.png""]","[""pear.png""]","[""pear.png""]","[""pear.png""]",PB17.png,,,,,,,,,,,1,,,,,,,,,,,,8130.995999999926,,completion,,,,,,,,,,,,,4,,,,,,,,,,,,,,,,,,,,,,,,,,,,,,,,,,,,,,,,,,,,,,,,,,,,,,,,,"[""pear.png""]","[""maltesers.png""]",,,,5,,,false,,1,,,,,,,576432.6549996622,576429.867,568274.244,568289.7250000387,568298.871,576462.573,,,,
fixCross,canvas.Screen,2_4_2_6_1_0_0_0_0_2_0,2021-01-14T19:00:39.940Z,,,blank.png,"[""maltesers.png""]",blank.png,blank.png,blank.png,blank.png,blank.png,blank.png,blank.png,blank.png,blank.png,blank.png,blank.png,,,,,,,,,,,,,,,,,,,,,,,,,,,,,"[""maltesers.png""]","[""pear.png""]",PB16.png,,,,,,,,,,,0,6,"[""pear.png""]","[""pear.png""]","[""pear.png""]","[""pear.png""]","[""pear.png""]","[""pear.png""]",blank.png,PB18.png,PB18.png,"[""pear.png""]","[""pear.png""]","[""pear.png""]","[""pear.png""]","[""pear.png""]",blank.png,"[""pear.png""]","[""pear.png""]","[""pear.png""]","[""pear.png""]","[""pear.png""]","[""pear.png""]",1,"[""maltesers.png""]",blank.png,blank.png,blank.png,5,"[""pear.png""]","[""pear.png""]","[""pear.png""]","[""pear.png""]","[""pear.png""]",blank.png,PB16.png,,,,,,,,,,,1,,,,,,,,,,,,1237.8030000000726,,timeout,,,,,,,,,,,,,3,,,,,,,,,,,,,,,,,,,,,,,,,,,,,,,,,,,,,,,,,,,,,,,,,,,,,,,,,"[""pear.png""]","[""maltesers.png""]",,,,5,,,false,,1,,,,,,,577117.7449999377,577116.476,576429.867,576450.4999998026,576462.573,577700.376,3,,,
timeout,canvas.Screen,2_4_2_6_1_0_0_0_0_2_1,2021-01-14T19:00:41.006Z,,,blank.png,"[""maltesers.png""]",blank.png,blank.png,blank.png,blank.png,blank.png,blank.png,blank.png,blank.png,blank.png,blank.png,blank.png,,,,,,,,,,,,,,,,,,,,,,,,,,,,,"[""maltesers.png""]","[""pear.png""]",PB16.png,,,,,,,,,,,0,6,"[""pear.png""]","[""pear.png""]","[""pear.png""]","[""pear.png""]","[""pear.png""]","[""pear.png""]",blank.png,PB18.png,PB18.png,"[""pear.png""]","[""pear.png""]","[""pear.png""]","[""pear.png""]","[""pear.png""]",blank.png,"[""pear.png""]","[""pear.png""]","[""pear.png""]","[""pear.png""]","[""pear.png""]","[""pear.png""]",1,"[""maltesers.png""]",blank.png,blank.png,blank.png,5,"[""pear.png""]","[""pear.png""]","[""pear.png""]","[""pear.png""]","[""pear.png""]",blank.png,PB16.png,,,,,,,,,,,1,,,,,,,,,,,,1258.0409999999683,,timeout,,,,,,,,,,,,,3,,,,,,,,,,,,,,,,,,,,,,,,,,,,,,,,,,,,,,,,,,,,,,,,,,,,,,,,,"[""pear.png""]","[""maltesers.png""]",,,,5,,,false,,1,,,,,,,578183.8400000706,578182.516,577116.476,577708.7449999526,577700.376,578958.417,,,,
choice,canvas.Screen,2_4_2_6_1_0_0_0_0_2_2,2021-01-14T19:00:45.808Z,,,blank.png,"[""maltesers.png""]",blank.png,blank.png,blank.png,blank.png,blank.png,blank.png,blank.png,blank.png,blank.png,blank.png,blank.png,,,,,,,,,,,,,,,,,,,,,,,,,,,,,"[""maltesers.png""]","[""pear.png""]",PB16.png,,,,,,,,,,,0,6,"[""pear.png""]","[""pear.png""]","[""pear.png""]","[""pear.png""]","[""pear.png""]","[""pear.png""]",blank.png,PB18.png,PB18.png,"[""pear.png""]","[""pear.png""]","[""pear.png""]","[""pear.png""]","[""pear.png""]",blank.png,"[""pear.png""]","[""pear.png""]","[""pear.png""]","[""pear.png""]","[""pear.png""]","[""pear.png""]",1,"[""maltesers.png""]",blank.png,blank.png,blank.png,5,"[""pear.png""]","[""pear.png""]","[""pear.png""]","[""pear.png""]","[""pear.png""]",blank.png,PB16.png,,,,,,,,,,,1,,,,,,,,,,,,4023.4629998611053,,response,,,,,,,,,,,,,3,,,,,,,,,,,,,,,,,,,,,,,,,,,,,,,,,,,,,,,,,,,,,,,,,,,,,,,,,"[""pear.png""]","[""maltesers.png""]",,,,5,left,keydown(ArrowLeft),false,,1,,,,,,,582987.1549997479,582981.8799998611,578182.516,578928.6400000565,578958.417,583566.831,,3,,
square,canvas.Screen,2_4_2_6_1_0_0_0_0_2_3,2021-01-14T19:00:47.357Z,,,blank.png,"[""maltesers.png""]",blank.png,blank.png,blank.png,blank.png,blank.png,blank.png,blank.png,blank.png,blank.png,blank.png,blank.png,,,,,,,,,,,,,,,,,,,,,,,,,,,,,"[""maltesers.png""]","[""pear.png""]",PB16.png,,,,,,,,,,,0,6,"[""pear.png""]","[""pear.png""]","[""pear.png""]","[""pear.png""]","[""pear.png""]","[""pear.png""]",blank.png,PB18.png,PB18.png,"[""pear.png""]","[""pear.png""]","[""pear.png""]","[""pear.png""]","[""pear.png""]",blank.png,"[""pear.png""]","[""pear.png""]","[""pear.png""]","[""pear.png""]","[""pear.png""]","[""pear.png""]",1,"[""maltesers.png""]",blank.png,blank.png,blank.png,5,"[""pear.png""]","[""pear.png""]","[""pear.png""]","[""pear.png""]","[""pear.png""]",blank.png,PB16.png,,,,,,,,,,,1,,#33ff3f,#808080,,,,,,,,,1001.0540000000037,,timeout,,,,,,,,,,,,,3,,,,,,,,,,,,,,,,,,,,,,,,,,,,,,,,,,,,,,,,,,,,,,,,,,,,,,,,,"[""pear.png""]","[""maltesers.png""]",,,,5,,,false,,1,,,,,black,white,584536.3199999556,584534.949,583522.05,583535.9199997038,583566.831,584567.885,,,,
ITI_late,canvas.Screen,2_4_2_6_1_0_0_0_0_2_4,2021-01-14T19:00:47.613Z,,,blank.png,"[""maltesers.png""]",blank.png,blank.png,blank.png,blank.png,blank.png,blank.png,blank.png,blank.png,blank.png,blank.png,blank.png,,,,,,,,,,,,,,,,,,,,,,,,,,,,,"[""maltesers.png""]","[""pear.png""]",PB16.png,,,,,,,,,,,0,6,"[""pear.png""]","[""pear.png""]","[""pear.png""]","[""pear.png""]","[""pear.png""]","[""pear.png""]",blank.png,PB18.png,PB18.png,"[""pear.png""]","[""pear.png""]","[""pear.png""]","[""pear.png""]","[""pear.png""]",blank.png,"[""pear.png""]","[""pear.png""]","[""pear.png""]","[""pear.png""]","[""pear.png""]","[""pear.png""]",1,"[""maltesers.png""]",blank.png,blank.png,blank.png,5,"[""pear.png""]","[""pear.png""]","[""pear.png""]","[""pear.png""]","[""pear.png""]",blank.png,PB16.png,,,,,,,,,,,1,,,,,,,,,,,,256.66500000003725,,timeout,,,,,,,,,,,,white,3,,,,,,,,,,,,,,,,,,,,,,,,,,,,,,,,,,,,,,,,,,,,,,,,,,,,,,,,,"[""pear.png""]","[""maltesers.png""]",,,,5,,,false,,1,,,,,,,584792.6699998789,584791.396,584534.949,584541.2599998526,584567.885,584824.55,,,,
choice_sequence,flow.Sequence,2_4_2_6_1_0_0_0_0_2,2021-01-14T19:00:47.615Z,,,blank.png,"[""maltesers.png""]",blank.png,blank.png,blank.png,blank.png,blank.png,blank.png,blank.png,blank.png,blank.png,blank.png,blank.png,,,,,,,,,,,,,,,,,,,,,,,,,,,,,"[""maltesers.png""]","[""pear.png""]",PB16.png,,,,,,,,,,,0,6,"[""pear.png""]","[""pear.png""]","[""pear.png""]","[""pear.png""]","[""pear.png""]","[""pear.png""]",blank.png,PB18.png,PB18.png,"[""pear.png""]","[""pear.png""]","[""pear.png""]","[""pear.png""]","[""pear.png""]",blank.png,"[""pear.png""]","[""pear.png""]","[""pear.png""]","[""pear.png""]","[""pear.png""]","[""pear.png""]",1,"[""maltesers.png""]",blank.png,blank.png,blank.png,5,"[""pear.png""]","[""pear.png""]","[""pear.png""]","[""pear.png""]","[""pear.png""]",blank.png,PB16.png,,,,,,,,,,,1,,,,,,,,,,,,8328.822999999975,,completion,,,,,,,,,,,,,3,,,,,,,,,,,,,,,,,,,,,,,,,,,,,,,,,,,,,,,,,,,,,,,,,,,,,,,,,"[""pear.png""]","[""maltesers.png""]",,,,5,,,false,,1,,,,,,,584794.2099999636,584791.396,576429.867,576445.6199998967,576462.573,584824.55,,,,
fixCross,canvas.Screen,2_4_2_6_1_0_0_0_0_3_0,2021-01-14T19:00:48.004Z,,,blank.png,"[""maltesers.png""]",blank.png,blank.png,blank.png,blank.png,blank.png,blank.png,blank.png,blank.png,blank.png,blank.png,blank.png,,,,,,,,,,,,,,,,,,,,,,,,,,,,,"[""maltesers.png""]","[""pear.png""]",PB01.png,,,,,,,,,,,0,6,"[""pear.png""]","[""pear.png""]","[""pear.png""]","[""pear.png""]","[""pear.png""]","[""pear.png""]",blank.png,PB18.png,PB18.png,blank.png,blank.png,blank.png,blank.png,blank.png,blank.png,"[""pear.png""]","[""pear.png""]","[""pear.png""]","[""pear.png""]","[""pear.png""]","[""pear.png""]",1,"[""maltesers.png""]",blank.png,blank.png,blank.png,0,blank.png,blank.png,blank.png,blank.png,blank.png,blank.png,PB01.png,,,,,,,,,,,1,,,,,,,,,,,,1197.5359999999637,,timeout,,,,,,,,,,,,,3,,,,,,,,,,,,,,,,,,,,,,,,,,,,,,,,,,,,,,,,,,,,,,,,,,,,,,,,,"[""pear.png""]","[""maltesers.png""]",,,,5,,,false,,1,,,,,,,585183.4700000472,585182.17,584791.396,584809.994999785,584824.55,586022.086,4,,,
timeout,canvas.Screen,2_4_2_6_1_0_0_0_0_3_1,2021-01-14T19:00:49.316Z,,,blank.png,"[""maltesers.png""]",blank.png,blank.png,blank.png,blank.png,blank.png,blank.png,blank.png,blank.png,blank.png,blank.png,blank.png,,,,,,,,,,,,,,,,,,,,,,,,,,,,,"[""maltesers.png""]","[""pear.png""]",PB01.png,,,,,,,,,,,0,6,"[""pear.png""]","[""pear.png""]","[""pear.png""]","[""pear.png""]","[""pear.png""]","[""pear.png""]",blank.png,PB18.png,PB18.png,blank.png,blank.png,blank.png,blank.png,blank.png,blank.png,"[""pear.png""]","[""pear.png""]","[""pear.png""]","[""pear.png""]","[""pear.png""]","[""pear.png""]",1,"[""maltesers.png""]",blank.png,blank.png,blank.png,0,blank.png,blank.png,blank.png,blank.png,blank.png,blank.png,PB01.png,,,,,,,,,,,1,,,,,,,,,,,,1087.8460000000196,,timeout,,,,,,,,,,,,,3,,,,,,,,,,,,,,,,,,,,,,,,,,,,,,,,,,,,,,,,,,,,,,,,,,,,,,,,,"[""pear.png""]","[""maltesers.png""]",,,,5,,,false,,1,,,,,,,586495.3850000165,586494.075,585182.17,586034.1499997303,586022.086,587109.932,,,,
choice,canvas.Screen,2_4_2_6_1_0_0_0_0_3_2,2021-01-14T19:00:52.666Z,,,blank.png,"[""maltesers.png""]",blank.png,blank.png,blank.png,blank.png,blank.png,blank.png,blank.png,blank.png,blank.png,blank.png,blank.png,,,,,,,,,,,,,,,,,,,,,,,,,,,,,"[""maltesers.png""]","[""pear.png""]",PB01.png,,,,,,,,,,,0,6,"[""pear.png""]","[""pear.png""]","[""pear.png""]","[""pear.png""]","[""pear.png""]","[""pear.png""]",blank.png,PB18.png,PB18.png,blank.png,blank.png,blank.png,blank.png,blank.png,blank.png,"[""pear.png""]","[""pear.png""]","[""pear.png""]","[""pear.png""]","[""pear.png""]","[""pear.png""]",1,"[""maltesers.png""]",blank.png,blank.png,blank.png,0,blank.png,blank.png,blank.png,blank.png,blank.png,blank.png,PB01.png,,,,,,,,,,,1,,,,,,,,,,,,2732.6429996676743,,response,,,,,,,,,,,,,3,,,,,,,,,,,,,,,,,,,,,,,,,,,,,,,,,,,,,,,,,,,,,,,,,,,,,,,,,"[""pear.png""]","[""maltesers.png""]",,,,5,right,keydown(ArrowRight),false,,1,,,,,,,589845.3599996865,589842.5749996677,586494.075,587088.8549997471,587109.932,590340.631,,4,,
square,canvas.Screen,2_4_2_6_1_0_0_0_0_3_3,2021-01-14T19:00:54.123Z,,,blank.png,"[""maltesers.png""]",blank.png,blank.png,blank.png,blank.png,blank.png,blank.png,blank.png,blank.png,blank.png,blank.png,blank.png,,,,,,,,,,,,,,,,,,,,,,,,,,,,,"[""maltesers.png""]","[""pear.png""]",PB01.png,,,,,,,,,,,0,6,"[""pear.png""]","[""pear.png""]","[""pear.png""]","[""pear.png""]","[""pear.png""]","[""pear.png""]",blank.png,PB18.png,PB18.png,blank.png,blank.png,blank.png,blank.png,blank.png,blank.png,"[""pear.png""]","[""pear.png""]","[""pear.png""]","[""pear.png""]","[""pear.png""]","[""pear.png""]",1,"[""maltesers.png""]",blank.png,blank.png,blank.png,0,blank.png,blank.png,blank.png,blank.png,blank.png,blank.png,PB01.png,,,,,,,,,,,1,,#808080,#33ff3f,,,,,,,,,984.0439999999944,,timeout,,,,,,,,,,,,,3,,,,,,,,,,,,,,,,,,,,,,,,,,,,,,,,,,,,,,,,,,,,,,,,,,,,,,,,,"[""pear.png""]","[""maltesers.png""]",,,,5,,,false,,1,,,,,white,black,591302.0199998282,591300.685,590306.941,590308.2200000063,590340.631,591324.675,,,,
ITI_late,canvas.Screen,2_4_2_6_1_0_0_0_0_3_4,2021-01-14T19:00:55.115Z,,,blank.png,"[""maltesers.png""]",blank.png,blank.png,blank.png,blank.png,blank.png,blank.png,blank.png,blank.png,blank.png,blank.png,blank.png,,,,,,,,,,,,,,,,,,,,,,,,,,,,,"[""maltesers.png""]","[""pear.png""]",PB01.png,,,,,,,,,,,0,6,"[""pear.png""]","[""pear.png""]","[""pear.png""]","[""pear.png""]","[""pear.png""]","[""pear.png""]",blank.png,PB18.png,PB18.png,blank.png,blank.png,blank.png,blank.png,blank.png,blank.png,"[""pear.png""]","[""pear.png""]","[""pear.png""]","[""pear.png""]","[""pear.png""]","[""pear.png""]",1,"[""maltesers.png""]",blank.png,blank.png,blank.png,0,blank.png,blank.png,blank.png,blank.png,blank.png,blank.png,PB01.png,,,,,,,,,,,1,,,,,,,,,,,,1000.4199999999255,,timeout,,,,,,,,,,,,white,3,,,,,,,,,,,,,,,,,,,,,,,,,,,,,,,,,,,,,,,,,,,,,,,,,,,,,,,,,"[""pear.png""]","[""maltesers.png""]",,,,5,,,false,,1,,,,,,,592294.3649999797,592293.052,591300.685,591306.5700000152,591324.675,592325.095,,,,
choice_sequence,flow.Sequence,2_4_2_6_1_0_0_0_0_3,2021-01-14T19:00:55.116Z,,,blank.png,"[""maltesers.png""]",blank.png,blank.png,blank.png,blank.png,blank.png,blank.png,blank.png,blank.png,blank.png,blank.png,blank.png,,,,,,,,,,,,,,,,,,,,,,,,,,,,,"[""maltesers.png""]","[""pear.png""]",PB01.png,,,,,,,,,,,0,6,"[""pear.png""]","[""pear.png""]","[""pear.png""]","[""pear.png""]","[""pear.png""]","[""pear.png""]",blank.png,PB18.png,PB18.png,blank.png,blank.png,blank.png,blank.png,blank.png,blank.png,"[""pear.png""]","[""pear.png""]","[""pear.png""]","[""pear.png""]","[""pear.png""]","[""pear.png""]",1,"[""maltesers.png""]",blank.png,blank.png,blank.png,0,blank.png,blank.png,blank.png,blank.png,blank.png,blank.png,PB01.png,,,,,,,,,,,1,,,,,,,,,,,,7468.501999999979,,completion,,,,,,,,,,,,,3,,,,,,,,,,,,,,,,,,,,,,,,,,,,,,,,,,,,,,,,,,,,,,,,,,,,,,,,,"[""pear.png""]","[""maltesers.png""]",,,,5,,,false,,1,,,,,,,592295.6849997863,592293.052,584791.396,584806.7950000986,584824.55,592325.095,,,,
fixCross,canvas.Screen,2_4_2_6_1_0_0_0_0_4_0,2021-01-14T19:00:55.372Z,,,blank.png,"[""maltesers.png""]",blank.png,blank.png,blank.png,blank.png,blank.png,blank.png,blank.png,blank.png,blank.png,blank.png,blank.png,,,,,,,,,,,,,,,,,,,,,,,,,,,,,"[""maltesers.png""]","[""pear.png""]",PB12.png,,,,,,,,,,,0,6,"[""pear.png""]","[""pear.png""]","[""pear.png""]","[""pear.png""]","[""pear.png""]","[""pear.png""]",blank.png,PB18.png,PB18.png,"[""pear.png""]","[""pear.png""]",blank.png,blank.png,blank.png,blank.png,"[""pear.png""]","[""pear.png""]","[""pear.png""]","[""pear.png""]","[""pear.png""]","[""pear.png""]",1,"[""maltesers.png""]",blank.png,blank.png,blank.png,2,"[""pear.png""]","[""pear.png""]",blank.png,blank.png,blank.png,blank.png,PB12.png,,,,,,,,,,,1,,,,,,,,,,,,687.4830000000075,,timeout,,,,,,,,,,,,,3,,,,,,,,,,,,,,,,,,,,,,,,,,,,,,,,,,,,,,,,,,,,,,,,,,,,,,,,,"[""pear.png""]","[""maltesers.png""]",,,,5,,,false,,1,,,,,,,592551.5350000933,592550.223,592293.052,592310.544999782,592325.095,593012.578,5,,,
timeout,canvas.Screen,2_4_2_6_1_0_0_0_0_4_1,2021-01-14T19:00:56.317Z,,,blank.png,"[""maltesers.png""]",blank.png,blank.png,blank.png,blank.png,blank.png,blank.png,blank.png,blank.png,blank.png,blank.png,blank.png,,,,,,,,,,,,,,,,,,,,,,,,,,,,,"[""maltesers.png""]","[""pear.png""]",PB12.png,,,,,,,,,,,0,6,"[""pear.png""]","[""pear.png""]","[""pear.png""]","[""pear.png""]","[""pear.png""]","[""pear.png""]",blank.png,PB18.png,PB18.png,"[""pear.png""]","[""pear.png""]",blank.png,blank.png,blank.png,blank.png,"[""pear.png""]","[""pear.png""]","[""pear.png""]","[""pear.png""]","[""pear.png""]","[""pear.png""]",1,"[""maltesers.png""]",blank.png,blank.png,blank.png,2,"[""pear.png""]","[""pear.png""]",blank.png,blank.png,blank.png,blank.png,PB12.png,,,,,,,,,,,1,,,,,,,,,,,,999.9520000000484,,timeout,,,,,,,,,,,,,3,,,,,,,,,,,,,,,,,,,,,,,,,,,,,,,,,,,,,,,,,,,,,,,,,,,,,,,,,"[""pear.png""]","[""maltesers.png""]",,,,5,,,false,,1,,,,,,,593496.5800000355,593495.252,592550.223,593022.7299998514,593012.578,594012.53,,,,
choice,canvas.Screen,2_4_2_6_1_0_0_0_0_4_2,2021-01-14T19:00:58.766Z,,,blank.png,"[""maltesers.png""]",blank.png,blank.png,blank.png,blank.png,blank.png,blank.png,blank.png,blank.png,blank.png,blank.png,blank.png,,,,,,,,,,,,,,,,,,,,,,,,,,,,,"[""maltesers.png""]","[""pear.png""]",PB12.png,,,,,,,,,,,0,6,"[""pear.png""]","[""pear.png""]","[""pear.png""]","[""pear.png""]","[""pear.png""]","[""pear.png""]",blank.png,PB18.png,PB18.png,"[""pear.png""]","[""pear.png""]",blank.png,blank.png,blank.png,blank.png,"[""pear.png""]","[""pear.png""]","[""pear.png""]","[""pear.png""]","[""pear.png""]","[""pear.png""]",1,"[""maltesers.png""]",blank.png,blank.png,blank.png,2,"[""pear.png""]","[""pear.png""]",blank.png,blank.png,blank.png,blank.png,PB12.png,,,,,,,,,,,1,,,,,,,,,,,,1930.4699999701697,,response,,,,,,,,,,,,,3,,,,,,,,,,,,,,,,,,,,,,,,,,,,,,,,,,,,,,,,,,,,,,,,,,,,,,,,,"[""pear.png""]","[""maltesers.png""]",,,,5,right,keydown(ArrowRight),false,,1,,,,,,,595945.3300000168,595942.9999999702,593495.252,594003.2799998298,594012.53,596378.129,,5,,
square,canvas.Screen,2_4_2_6_1_0_0_0_0_4_3,2021-01-14T19:01:00.189Z,,,blank.png,"[""maltesers.png""]",blank.png,blank.png,blank.png,blank.png,blank.png,blank.png,blank.png,blank.png,blank.png,blank.png,blank.png,,,,,,,,,,,,,,,,,,,,,,,,,,,,,"[""maltesers.png""]","[""pear.png""]",PB12.png,,,,,,,,,,,0,6,"[""pear.png""]","[""pear.png""]","[""pear.png""]","[""pear.png""]","[""pear.png""]","[""pear.png""]",blank.png,PB18.png,PB18.png,"[""pear.png""]","[""pear.png""]",blank.png,blank.png,blank.png,blank.png,"[""pear.png""]","[""pear.png""]","[""pear.png""]","[""pear.png""]","[""pear.png""]","[""pear.png""]",1,"[""maltesers.png""]",blank.png,blank.png,blank.png,2,"[""pear.png""]","[""pear.png""]",blank.png,blank.png,blank.png,blank.png,PB12.png,,,,,,,,,,,1,,#808080,#33ff3f,,,,,,,,,1020.5119999999879,,timeout,,,,,,,,,,,,,3,,,,,,,,,,,,,,,,,,,,,,,,,,,,,,,,,,,,,,,,,,,,,,,,,,,,,,,,,"[""pear.png""]","[""maltesers.png""]",,,,5,,,false,,1,,,,,white,black,597368.6799998395,597366.743,596351.773,596357.1150000207,596378.129,597398.641,,,,
ITI_late,canvas.Screen,2_4_2_6_1_0_0_0_0_4_4,2021-01-14T19:01:00.689Z,,,blank.png,"[""maltesers.png""]",blank.png,blank.png,blank.png,blank.png,blank.png,blank.png,blank.png,blank.png,blank.png,blank.png,blank.png,,,,,,,,,,,,,,,,,,,,,,,,,,,,,"[""maltesers.png""]","[""pear.png""]",PB12.png,,,,,,,,,,,0,6,"[""pear.png""]","[""pear.png""]","[""pear.png""]","[""pear.png""]","[""pear.png""]","[""pear.png""]",blank.png,PB18.png,PB18.png,"[""pear.png""]","[""pear.png""]",blank.png,blank.png,blank.png,blank.png,"[""pear.png""]","[""pear.png""]","[""pear.png""]","[""pear.png""]","[""pear.png""]","[""pear.png""]",1,"[""maltesers.png""]",blank.png,blank.png,blank.png,2,"[""pear.png""]","[""pear.png""]",blank.png,blank.png,blank.png,blank.png,PB12.png,,,,,,,,,,,1,,,,,,,,,,,,500.35000000009313,,timeout,,,,,,,,,,,,white,3,,,,,,,,,,,,,,,,,,,,,,,,,,,,,,,,,,,,,,,,,,,,,,,,,,,,,,,,,"[""pear.png""]","[""maltesers.png""]",,,,5,,,false,,1,,,,,,,597868.0449998938,597866.36,597366.743,597373.7800000235,597398.641,597898.991,,,,
choice_sequence,flow.Sequence,2_4_2_6_1_0_0_0_0_4,2021-01-14T19:01:00.692Z,,,blank.png,"[""maltesers.png""]",blank.png,blank.png,blank.png,blank.png,blank.png,blank.png,blank.png,blank.png,blank.png,blank.png,blank.png,,,,,,,,,,,,,,,,,,,,,,,,,,,,,"[""maltesers.png""]","[""pear.png""]",PB12.png,,,,,,,,,,,0,6,"[""pear.png""]","[""pear.png""]","[""pear.png""]","[""pear.png""]","[""pear.png""]","[""pear.png""]",blank.png,PB18.png,PB18.png,"[""pear.png""]","[""pear.png""]",blank.png,blank.png,blank.png,blank.png,"[""pear.png""]","[""pear.png""]","[""pear.png""]","[""pear.png""]","[""pear.png""]","[""pear.png""]",1,"[""maltesers.png""]",blank.png,blank.png,blank.png,2,"[""pear.png""]","[""pear.png""]",blank.png,blank.png,blank.png,blank.png,PB12.png,,,,,,,,,,,1,,,,,,,,,,,,5541.265000000014,,completion,,,,,,,,,,,,,3,,,,,,,,,,,,,,,,,,,,,,,,,,,,,,,,,,,,,,,,,,,,,,,,,,,,,,,,,"[""pear.png""]","[""maltesers.png""]",,,,5,,,false,,1,,,,,,,597871.2249998935,597866.36,592293.052,592307.4849997647,592325.095,597898.991,,,,
fixCross,canvas.Screen,2_4_2_6_1_0_0_0_0_5_0,2021-01-14T19:01:01.024Z,,,blank.png,blank.png,blank.png,blank.png,blank.png,blank.png,blank.png,"[""maltesers.png""]",blank.png,blank.png,blank.png,blank.png,blank.png,,,,,,,,,,,,,,,,,,,,,,,,,,,,,"[""maltesers.png""]","[""pear.png""]",PB18.png,,,,,,,,,,,0,6,"[""pear.png""]","[""pear.png""]","[""pear.png""]","[""pear.png""]","[""pear.png""]","[""pear.png""]",blank.png,PB18.png,PB15.png,"[""pear.png""]","[""pear.png""]","[""pear.png""]","[""pear.png""]","[""pear.png""]","[""pear.png""]","[""pear.png""]","[""pear.png""]","[""pear.png""]","[""pear.png""]",blank.png,blank.png,1,"[""maltesers.png""]",blank.png,blank.png,blank.png,4,"[""pear.png""]","[""pear.png""]","[""pear.png""]","[""pear.png""]",blank.png,blank.png,PB15.png,,,,,,,,,,,1,,,,,,,,,,,,1063.280999999959,,timeout,,,,,,,,,,,,,4,,,,,,,,,,,,,,,,,,,,,,,,,,,,,,,,,,,,,,,,,,,,,,,,,,,,,,,,,"[""pear.png""]","[""maltesers.png""]",,,,5,,,false,,1,,,,,,,598203.674999997,598202.344,597866.36,597890.0399999693,597898.991,598962.272,6,,,
timeout,canvas.Screen,2_4_2_6_1_0_0_0_0_5_1,2021-01-14T19:01:02.249Z,,,blank.png,blank.png,blank.png,blank.png,blank.png,blank.png,blank.png,"[""maltesers.png""]",blank.png,blank.png,blank.png,blank.png,blank.png,,,,,,,,,,,,,,,,,,,,,,,,,,,,,"[""maltesers.png""]","[""pear.png""]",PB18.png,,,,,,,,,,,0,6,"[""pear.png""]","[""pear.png""]","[""pear.png""]","[""pear.png""]","[""pear.png""]","[""pear.png""]",blank.png,PB18.png,PB15.png,"[""pear.png""]","[""pear.png""]","[""pear.png""]","[""pear.png""]","[""pear.png""]","[""pear.png""]","[""pear.png""]","[""pear.png""]","[""pear.png""]","[""pear.png""]",blank.png,blank.png,1,"[""maltesers.png""]",blank.png,blank.png,blank.png,4,"[""pear.png""]","[""pear.png""]","[""pear.png""]","[""pear.png""]",blank.png,blank.png,PB15.png,,,,,,,,,,,1,,,,,,,,,,,,1247.6990000000224,,timeout,,,,,,,,,,,,,4,,,,,,,,,,,,,,,,,,,,,,,,,,,,,,,,,,,,,,,,,,,,,,,,,,,,,,,,,"[""pear.png""]","[""maltesers.png""]",,,,5,,,false,,1,,,,,,,599427.9999998398,599426.235,598202.344,598974.3699999526,598962.272,600209.971,,,,
choice,canvas.Screen,2_4_2_6_1_0_0_0_0_5_2,2021-01-14T19:01:07.903Z,,,blank.png,blank.png,blank.png,blank.png,blank.png,blank.png,blank.png,"[""maltesers.png""]",blank.png,blank.png,blank.png,blank.png,blank.png,,,,,,,,,,,,,,,,,,,,,,,,,,,,,"[""maltesers.png""]","[""pear.png""]",PB18.png,,,,,,,,,,,0,6,"[""pear.png""]","[""pear.png""]","[""pear.png""]","[""pear.png""]","[""pear.png""]","[""pear.png""]",blank.png,PB18.png,PB15.png,"[""pear.png""]","[""pear.png""]","[""pear.png""]","[""pear.png""]","[""pear.png""]","[""pear.png""]","[""pear.png""]","[""pear.png""]","[""pear.png""]","[""pear.png""]",blank.png,blank.png,1,"[""maltesers.png""]",blank.png,blank.png,blank.png,4,"[""pear.png""]","[""pear.png""]","[""pear.png""]","[""pear.png""]",blank.png,blank.png,PB15.png,,,,,,,,,,,1,,,,,,,,,,,,4865.263999880175,,response,,,,,,,,,,,,,4,,,,,,,,,,,,,,,,,,,,,,,,,,,,,,,,,,,,,,,,,,,,,,,,,,,,,,,,,"[""pear.png""]","[""maltesers.png""]",,,,5,right,keydown(ArrowRight),false,,1,,,,,,,605082.0800000802,605075.2349998802,599426.235,600163.6049998924,600209.971,605588.613,,6,,
square,canvas.Screen,2_4_2_6_1_0_0_0_0_5_3,2021-01-14T19:01:09.375Z,,,blank.png,blank.png,blank.png,blank.png,blank.png,blank.png,blank.png,"[""maltesers.png""]",blank.png,blank.png,blank.png,blank.png,blank.png,,,,,,,,,,,,,,,,,,,,,,,,,,,,,"[""maltesers.png""]","[""pear.png""]",PB18.png,,,,,,,,,,,0,6,"[""pear.png""]","[""pear.png""]","[""pear.png""]","[""pear.png""]","[""pear.png""]","[""pear.png""]",blank.png,PB18.png,PB15.png,"[""pear.png""]","[""pear.png""]","[""pear.png""]","[""pear.png""]","[""pear.png""]","[""pear.png""]","[""pear.png""]","[""pear.png""]","[""pear.png""]","[""pear.png""]",blank.png,blank.png,1,"[""maltesers.png""]",blank.png,blank.png,blank.png,4,"[""pear.png""]","[""pear.png""]","[""pear.png""]","[""pear.png""]",blank.png,blank.png,PB15.png,,,,,,,,,,,1,,#808080,#33ff3f,,,,,,,,,987.9379999999655,,timeout,,,,,,,,,,,,,4,,,,,,,,,,,,,,,,,,,,,,,,,,,,,,,,,,,,,,,,,,,,,,,,,,,,,,,,,"[""pear.png""]","[""maltesers.png""]",,,,5,,,false,,1,,,,,white,black,606553.9949997328,606552.678,605556.96,605560.3849999607,605588.613,606576.551,,,,
ITI_late,canvas.Screen,2_4_2_6_1_0_0_0_0_5_4,2021-01-14T19:01:10.121Z,,,blank.png,blank.png,blank.png,blank.png,blank.png,blank.png,blank.png,"[""maltesers.png""]",blank.png,blank.png,blank.png,blank.png,blank.png,,,,,,,,,,,,,,,,,,,,,,,,,,,,,"[""maltesers.png""]","[""pear.png""]",PB18.png,,,,,,,,,,,0,6,"[""pear.png""]","[""pear.png""]","[""pear.png""]","[""pear.png""]","[""pear.png""]","[""pear.png""]",blank.png,PB18.png,PB15.png,"[""pear.png""]","[""pear.png""]","[""pear.png""]","[""pear.png""]","[""pear.png""]","[""pear.png""]","[""pear.png""]","[""pear.png""]","[""pear.png""]","[""pear.png""]",blank.png,blank.png,1,"[""maltesers.png""]",blank.png,blank.png,blank.png,4,"[""pear.png""]","[""pear.png""]","[""pear.png""]","[""pear.png""]",blank.png,blank.png,PB15.png,,,,,,,,,,,1,,,,,,,,,,,,754.1670000000158,,timeout,,,,,,,,,,,,white,4,,,,,,,,,,,,,,,,,,,,,,,,,,,,,,,,,,,,,,,,,,,,,,,,,,,,,,,,,"[""pear.png""]","[""maltesers.png""]",,,,5,,,false,,1,,,,,,,607300.059999805,607298.809,606552.678,606558.9000000618,606576.551,607330.718,,,,
choice_sequence,flow.Sequence,2_4_2_6_1_0_0_0_0_5,2021-01-14T19:01:10.122Z,,,blank.png,blank.png,blank.png,blank.png,blank.png,blank.png,blank.png,"[""maltesers.png""]",blank.png,blank.png,blank.png,blank.png,blank.png,,,,,,,,,,,,,,,,,,,,,,,,,,,,,"[""maltesers.png""]","[""pear.png""]",PB18.png,,,,,,,,,,,0,6,"[""pear.png""]","[""pear.png""]","[""pear.png""]","[""pear.png""]","[""pear.png""]","[""pear.png""]",blank.png,PB18.png,PB15.png,"[""pear.png""]","[""pear.png""]","[""pear.png""]","[""pear.png""]","[""pear.png""]","[""pear.png""]","[""pear.png""]","[""pear.png""]","[""pear.png""]","[""pear.png""]",blank.png,blank.png,1,"[""maltesers.png""]",blank.png,blank.png,blank.png,4,"[""pear.png""]","[""pear.png""]","[""pear.png""]","[""pear.png""]",blank.png,blank.png,PB15.png,,,,,,,,,,,1,,,,,,,,,,,,9399.81799999997,,completion,,,,,,,,,,,,,4,,,,,,,,,,,,,,,,,,,,,,,,,,,,,,,,,,,,,,,,,,,,,,,,,,,,,,,,,"[""pear.png""]","[""maltesers.png""]",,,,5,,,false,,1,,,,,,,607301.5600000508,607298.809,597866.36,597887.3099996708,597898.991,607330.718,,,,
fixCross,canvas.Screen,2_4_2_6_1_0_0_0_0_6_0,2021-01-14T19:01:10.848Z,,,blank.png,blank.png,blank.png,blank.png,blank.png,blank.png,blank.png,"[""maltesers.png""]",blank.png,blank.png,blank.png,blank.png,blank.png,,,,,,,,,,,,,,,,,,,,,,,,,,,,,"[""maltesers.png""]","[""pear.png""]",PB18.png,,,,,,,,,,,0,6,"[""pear.png""]","[""pear.png""]","[""pear.png""]","[""pear.png""]","[""pear.png""]","[""pear.png""]",blank.png,PB18.png,PB14.png,"[""pear.png""]","[""pear.png""]","[""pear.png""]","[""pear.png""]","[""pear.png""]","[""pear.png""]","[""pear.png""]","[""pear.png""]","[""pear.png""]",blank.png,blank.png,blank.png,1,"[""maltesers.png""]",blank.png,blank.png,blank.png,3,"[""pear.png""]","[""pear.png""]","[""pear.png""]",blank.png,blank.png,blank.png,PB14.png,,,,,,,,,,,1,,,,,,,,,,,,1047.8860000000568,,timeout,,,,,,,,,,,,,4,,,,,,,,,,,,,,,,,,,,,,,,,,,,,,,,,,,,,,,,,,,,,,,,,,,,,,,,,"[""pear.png""]","[""maltesers.png""]",,,,5,,,false,,1,,,,,,,608027.1499999799,608026.568,607298.809,607316.784999799,607330.718,608378.604,7,,,
timeout,canvas.Screen,2_4_2_6_1_0_0_0_0_6_1,2021-01-14T19:01:11.654Z,,,blank.png,blank.png,blank.png,blank.png,blank.png,blank.png,blank.png,"[""maltesers.png""]",blank.png,blank.png,blank.png,blank.png,blank.png,,,,,,,,,,,,,,,,,,,,,,,,,,,,,"[""maltesers.png""]","[""pear.png""]",PB18.png,,,,,,,,,,,0,6,"[""pear.png""]","[""pear.png""]","[""pear.png""]","[""pear.png""]","[""pear.png""]","[""pear.png""]",blank.png,PB18.png,PB14.png,"[""pear.png""]","[""pear.png""]","[""pear.png""]","[""pear.png""]","[""pear.png""]","[""pear.png""]","[""pear.png""]","[""pear.png""]","[""pear.png""]",blank.png,blank.png,blank.png,1,"[""maltesers.png""]",blank.png,blank.png,blank.png,3,"[""pear.png""]","[""pear.png""]","[""pear.png""]",blank.png,blank.png,blank.png,PB14.png,,,,,,,,,,,1,,,,,,,,,,,,1178.1059999999125,,timeout,,,,,,,,,,,,,4,,,,,,,,,,,,,,,,,,,,,,,,,,,,,,,,,,,,,,,,,,,,,,,,,,,,,,,,,"[""pear.png""]","[""maltesers.png""]",,,,5,,,false,,1,,,,,,,608833.9450000785,608832.586,608026.568,608383.7250000797,608378.604,609556.71,,,,
choice,canvas.Screen,2_4_2_6_1_0_0_0_0_6_2,2021-01-14T19:01:15.501Z,,,blank.png,blank.png,blank.png,blank.png,blank.png,blank.png,blank.png,"[""maltesers.png""]",blank.png,blank.png,blank.png,blank.png,blank.png,,,,,,,,,,,,,,,,,,,,,,,,,,,,,"[""maltesers.png""]","[""pear.png""]",PB18.png,,,,,,,,,,,0,6,"[""pear.png""]","[""pear.png""]","[""pear.png""]","[""pear.png""]","[""pear.png""]","[""pear.png""]",blank.png,PB18.png,PB14.png,"[""pear.png""]","[""pear.png""]","[""pear.png""]","[""pear.png""]","[""pear.png""]","[""pear.png""]","[""pear.png""]","[""pear.png""]","[""pear.png""]",blank.png,blank.png,blank.png,1,"[""maltesers.png""]",blank.png,blank.png,blank.png,3,"[""pear.png""]","[""pear.png""]","[""pear.png""]",blank.png,blank.png,blank.png,PB14.png,,,,,,,,,,,1,,,,,,,,,,,,3118.5549997361377,,response,,,,,,,,,,,,,4,,,,,,,,,,,,,,,,,,,,,,,,,,,,,,,,,,,,,,,,,,,,,,,,,,,,,,,,,"[""pear.png""]","[""maltesers.png""]",,,,5,left,keydown(ArrowLeft),false,,1,,,,,,,612680.459999945,612675.2649997361,608832.586,609565.1099998504,609556.71,613342.551,,7,,
square,canvas.Screen,2_4_2_6_1_0_0_0_0_6_3,2021-01-14T19:01:17.136Z,,,blank.png,blank.png,blank.png,blank.png,blank.png,blank.png,blank.png,"[""maltesers.png""]",blank.png,blank.png,blank.png,blank.png,blank.png,,,,,,,,,,,,,,,,,,,,,,,,,,,,,"[""maltesers.png""]","[""pear.png""]",PB18.png,,,,,,,,,,,0,6,"[""pear.png""]","[""pear.png""]","[""pear.png""]","[""pear.png""]","[""pear.png""]","[""pear.png""]",blank.png,PB18.png,PB14.png,"[""pear.png""]","[""pear.png""]","[""pear.png""]","[""pear.png""]","[""pear.png""]","[""pear.png""]","[""pear.png""]","[""pear.png""]","[""pear.png""]",blank.png,blank.png,blank.png,1,"[""maltesers.png""]",blank.png,blank.png,blank.png,3,"[""pear.png""]","[""pear.png""]","[""pear.png""]",blank.png,blank.png,blank.png,PB14.png,,,,,,,,,,,1,,#33ff3f,#808080,,,,,,,,,1004.1190000000643,,timeout,,,,,,,,,,,,,4,,,,,,,,,,,,,,,,,,,,,,,,,,,,,,,,,,,,,,,,,,,,,,,,,,,,,,,,,"[""pear.png""]","[""maltesers.png""]",,,,5,,,false,,1,,,,,black,white,614315.9900000319,614314.623,613296.462,613311.1099996604,613342.551,614346.67,,,,
ITI_late,canvas.Screen,2_4_2_6_1_0_0_0_0_6_4,2021-01-14T19:01:17.886Z,,,blank.png,blank.png,blank.png,blank.png,blank.png,blank.png,blank.png,"[""maltesers.png""]",blank.png,blank.png,blank.png,blank.png,blank.png,,,,,,,,,,,,,,,,,,,,,,,,,,,,,"[""maltesers.png""]","[""pear.png""]",PB18.png,,,,,,,,,,,0,6,"[""pear.png""]","[""pear.png""]","[""pear.png""]","[""pear.png""]","[""pear.png""]","[""pear.png""]",blank.png,PB18.png,PB14.png,"[""pear.png""]","[""pear.png""]","[""pear.png""]","[""pear.png""]","[""pear.png""]","[""pear.png""]","[""pear.png""]","[""pear.png""]","[""pear.png""]",blank.png,blank.png,blank.png,1,"[""maltesers.png""]",blank.png,blank.png,blank.png,3,"[""pear.png""]","[""pear.png""]","[""pear.png""]",blank.png,blank.png,blank.png,PB14.png,,,,,,,,,,,1,,,,,,,,,,,,805.564000000013,,timeout,,,,,,,,,,,,white,4,,,,,,,,,,,,,,,,,,,,,,,,,,,,,,,,,,,,,,,,,,,,,,,,,,,,,,,,,"[""pear.png""]","[""maltesers.png""]",,,,5,,,false,,1,,,,,,,615065.7099997625,615064.408,614314.623,614320.8449999802,614346.67,615152.234,,,,
choice_sequence,flow.Sequence,2_4_2_6_1_0_0_0_0_6,2021-01-14T19:01:17.888Z,,,blank.png,blank.png,blank.png,blank.png,blank.png,blank.png,blank.png,"[""maltesers.png""]",blank.png,blank.png,blank.png,blank.png,blank.png,,,,,,,,,,,,,,,,,,,,,,,,,,,,,"[""maltesers.png""]","[""pear.png""]",PB18.png,,,,,,,,,,,0,6,"[""pear.png""]","[""pear.png""]","[""pear.png""]","[""pear.png""]","[""pear.png""]","[""pear.png""]",blank.png,PB18.png,PB14.png,"[""pear.png""]","[""pear.png""]","[""pear.png""]","[""pear.png""]","[""pear.png""]","[""pear.png""]","[""pear.png""]","[""pear.png""]","[""pear.png""]",blank.png,blank.png,blank.png,1,"[""maltesers.png""]",blank.png,blank.png,blank.png,3,"[""pear.png""]","[""pear.png""]","[""pear.png""]",blank.png,blank.png,blank.png,PB14.png,,,,,,,,,,,1,,,,,,,,,,,,7733.6900000000605,,completion,,,,,,,,,,,,,4,,,,,,,,,,,,,,,,,,,,,,,,,,,,,,,,,,,,,,,,,,,,,,,,,,,,,,,,,"[""pear.png""]","[""maltesers.png""]",,,,5,,,false,,1,,,,,,,615067.229999695,615064.408,607298.809,607313.8649999164,607330.718,615152.234,,,,
choice_loop,flow.Loop,2_4_2_6_1_0_0_0_0,2021-01-14T19:01:17.889Z,,,,,,,,,,,,,,,,,,,,,,,,,,,,,,,,,,,,,,,,,,,,"[""maltesers.png""]","[""pear.png""]",,,,,,,,,,,,,,,,,,,,,,,,,,,,,,,,,,,,,,,,,,,,,,,,,,,,,,,,,,,,,,,,,,,,,,53286.35400000005,,completion,,,,,,,,,,,,,,,,,,,,,,,,,,,,,,,,,,,,,,,,,,,,,,,,,,,,,,,,,,,,,,,,,,,,,,"[""pear.png""]","[""maltesers.png""]",,,,5,,,false,,,,,,,,,615068.2449997403,615064.408,561698.227,561777.8249997646,561778.054,615152.234,,,,
choice_frame,html.Frame,2_4_2_6_1_0_0_0,2021-01-14T19:01:17.889Z,,,,,,,,,,,,,,,,,,,,,,,,,,,,,,,,,,,,,,,,,,,,,,,,,,,,,,,,,,,,,,,,,,,,,,,,,,,,,,,,,,,,,,,,,,,,,,,,,,,,,,,,,,,,,,,,,,,53290.53100000089,,,,,,,,,,,,,,,,,,,,,,,,,,,,,,,,,,,,,,,,,,,,,,,,,,,,,,,,,,,,,,,,,,,,,,,,,,,,,5,,,false,,,,,,,,,615068.9749997109,615068.5850000009,561698.227,561699.8549997807,561778.054,615184.344,,,,
sublock_1,flow.Sequence,2_4_2_6_1_0_0,2021-01-14T19:01:17.890Z,,,,,,,,,,,,,,,,,,,,,,,,,,,,,,,,,,,,,,,,,,,,,,,,,,,,,,,,,,,,,,,,,,,,,,,,,,,,,,,,,,,,,,,,,,,,,,,,,,,,,,,,,,,,,,,,,,,53290.53100000089,,completion,,,,,,,,,,,,,,,,,,,,,,,,,,,,,,,,,,,,,,,,,,,,,,,,,,,,,,,,,,,,,,,,,,,,,,,,,,,5,,,false,,,,,,,,,615069.3850000389,615068.5850000009,561698.227,561699.7249997221,561778.054,615184.344,,,,
fixCross,canvas.Screen,2_4_2_6_1_0_1_0_0_0_0,2021-01-14T19:01:18.644Z,,,blank.png,"[""maltesers.png""]",blank.png,blank.png,blank.png,blank.png,blank.png,blank.png,blank.png,blank.png,blank.png,blank.png,blank.png,,,,,,,,,,,,,,,,,,,,,,,,,,,,,"[""maltesers.png""]","[""pear.png""]",PB14.png,,,,,,,,,,,0,6,"[""pear.png""]","[""pear.png""]","[""pear.png""]","[""pear.png""]","[""pear.png""]","[""pear.png""]",blank.png,PB18.png,PB18.png,"[""pear.png""]","[""pear.png""]","[""pear.png""]",blank.png,blank.png,blank.png,"[""pear.png""]","[""pear.png""]","[""pear.png""]","[""pear.png""]","[""pear.png""]","[""pear.png""]",1,"[""maltesers.png""]",blank.png,blank.png,blank.png,3,"[""pear.png""]","[""pear.png""]","[""pear.png""]",blank.png,blank.png,blank.png,PB14.png,,,,,,,,,,,1,,,,,,,,,,,,1058.7669999999925,,timeout,,,,,,,,,,,,,3,,,,,,,,,,,,,,,,,,,,,,,,,,,,,,,,,,,,,,,,,,,,,,,,,,,,,,,,,"[""pear.png""]","[""maltesers.png""]",,,,6,,,false,,1,,,,,,,615823.5700000077,615822.303,615152.234,615158.5599998944,615184.344,616243.111,8,,,
timeout,canvas.Screen,2_4_2_6_1_0_1_0_0_0_1,2021-01-14T19:01:19.546Z,,,blank.png,"[""maltesers.png""]",blank.png,blank.png,blank.png,blank.png,blank.png,blank.png,blank.png,blank.png,blank.png,blank.png,blank.png,,,,,,,,,,,,,,,,,,,,,,,,,,,,,"[""maltesers.png""]","[""pear.png""]",PB14.png,,,,,,,,,,,0,6,"[""pear.png""]","[""pear.png""]","[""pear.png""]","[""pear.png""]","[""pear.png""]","[""pear.png""]",blank.png,PB18.png,PB18.png,"[""pear.png""]","[""pear.png""]","[""pear.png""]",blank.png,blank.png,blank.png,"[""pear.png""]","[""pear.png""]","[""pear.png""]","[""pear.png""]","[""pear.png""]","[""pear.png""]",1,"[""maltesers.png""]",blank.png,blank.png,blank.png,3,"[""pear.png""]","[""pear.png""]","[""pear.png""]",blank.png,blank.png,blank.png,PB14.png,,,,,,,,,,,1,,,,,,,,,,,,861.6670000000158,,timeout,,,,,,,,,,,,,3,,,,,,,,,,,,,,,,,,,,,,,,,,,,,,,,,,,,,,,,,,,,,,,,,,,,,,,,,"[""pear.png""]","[""maltesers.png""]",,,,6,,,false,,1,,,,,,,616725.6649998017,616724.305,615822.303,616236.4399996586,616243.111,617104.778,,,,
choice,canvas.Screen,2_4_2_6_1_0_1_0_0_0_2,2021-01-14T19:01:21.232Z,,,blank.png,"[""maltesers.png""]",blank.png,blank.png,blank.png,blank.png,blank.png,blank.png,blank.png,blank.png,blank.png,blank.png,blank.png,,,,,,,,,,,,,,,,,,,,,,,,,,,,,"[""maltesers.png""]","[""pear.png""]",PB14.png,,,,,,,,,,,0,6,"[""pear.png""]","[""pear.png""]","[""pear.png""]","[""pear.png""]","[""pear.png""]","[""pear.png""]",blank.png,PB18.png,PB18.png,"[""pear.png""]","[""pear.png""]","[""pear.png""]",blank.png,blank.png,blank.png,"[""pear.png""]","[""pear.png""]","[""pear.png""]","[""pear.png""]","[""pear.png""]","[""pear.png""]",1,"[""maltesers.png""]",blank.png,blank.png,blank.png,3,"[""pear.png""]","[""pear.png""]","[""pear.png""]",blank.png,blank.png,blank.png,PB14.png,,,,,,,,,,,1,,,,,,,,,,,,1304.0170000538928,,response,,,,,,,,,,,,,3,,,,,,,,,,,,,,,,,,,,,,,,,,,,,,,,,,,,,,,,,,,,,,,,,,,,,,,,,"[""pear.png""]","[""maltesers.png""]",,,,6,right,keydown(ArrowRight),false,,1,,,,,,,618411.4500000142,618408.795000054,616724.305,617103.0749999918,617104.778,619203.564,,8,,
square,canvas.Screen,2_4_2_6_1_0_1_0_0_0_3,2021-01-14T19:01:23.017Z,,,blank.png,"[""maltesers.png""]",blank.png,blank.png,blank.png,blank.png,blank.png,blank.png,blank.png,blank.png,blank.png,blank.png,blank.png,,,,,,,,,,,,,,,,,,,,,,,,,,,,,"[""maltesers.png""]","[""pear.png""]",PB14.png,,,,,,,,,,,0,6,"[""pear.png""]","[""pear.png""]","[""pear.png""]","[""pear.png""]","[""pear.png""]","[""pear.png""]",blank.png,PB18.png,PB18.png,"[""pear.png""]","[""pear.png""]","[""pear.png""]",blank.png,blank.png,blank.png,"[""pear.png""]","[""pear.png""]","[""pear.png""]","[""pear.png""]","[""pear.png""]","[""pear.png""]",1,"[""maltesers.png""]",blank.png,blank.png,blank.png,3,"[""pear.png""]","[""pear.png""]","[""pear.png""]",blank.png,blank.png,blank.png,PB14.png,,,,,,,,,,,1,,#808080,#33ff3f,,,,,,,,,1023.1790000000037,,timeout,,,,,,,,,,,,,3,,,,,,,,,,,,,,,,,,,,,,,,,,,,,,,,,,,,,,,,,,,,,,,,,,,,,,,,,"[""pear.png""]","[""maltesers.png""]",,,,6,,,false,,1,,,,,white,black,620196.1550000124,620194.834,619169.73,619184.4999999739,619203.564,620226.743,,,,
ITI_late,canvas.Screen,2_4_2_6_1_0_1_0_0_0_4,2021-01-14T19:01:23.526Z,,,blank.png,"[""maltesers.png""]",blank.png,blank.png,blank.png,blank.png,blank.png,blank.png,blank.png,blank.png,blank.png,blank.png,blank.png,,,,,,,,,,,,,,,,,,,,,,,,,,,,,"[""maltesers.png""]","[""pear.png""]",PB14.png,,,,,,,,,,,0,6,"[""pear.png""]","[""pear.png""]","[""pear.png""]","[""pear.png""]","[""pear.png""]","[""pear.png""]",blank.png,PB18.png,PB18.png,"[""pear.png""]","[""pear.png""]","[""pear.png""]",blank.png,blank.png,blank.png,"[""pear.png""]","[""pear.png""]","[""pear.png""]","[""pear.png""]","[""pear.png""]","[""pear.png""]",1,"[""maltesers.png""]",blank.png,blank.png,blank.png,3,"[""pear.png""]","[""pear.png""]","[""pear.png""]",blank.png,blank.png,blank.png,PB14.png,,,,,,,,,,,1,,,,,,,,,,,,499.9320000000298,,timeout,,,,,,,,,,,,white,3,,,,,,,,,,,,,,,,,,,,,,,,,,,,,,,,,,,,,,,,,,,,,,,,,,,,,,,,,"[""pear.png""]","[""maltesers.png""]",,,,6,,,false,,1,,,,,,,620705.7149996981,620702.807,620194.834,620200.5599997938,620226.743,620726.675,,,,
choice_sequence,flow.Sequence,2_4_2_6_1_0_1_0_0_0,2021-01-14T19:01:23.528Z,,,blank.png,"[""maltesers.png""]",blank.png,blank.png,blank.png,blank.png,blank.png,blank.png,blank.png,blank.png,blank.png,blank.png,blank.png,,,,,,,,,,,,,,,,,,,,,,,,,,,,,"[""maltesers.png""]","[""pear.png""]",PB14.png,,,,,,,,,,,0,6,"[""pear.png""]","[""pear.png""]","[""pear.png""]","[""pear.png""]","[""pear.png""]","[""pear.png""]",blank.png,PB18.png,PB18.png,"[""pear.png""]","[""pear.png""]","[""pear.png""]",blank.png,blank.png,blank.png,"[""pear.png""]","[""pear.png""]","[""pear.png""]","[""pear.png""]","[""pear.png""]","[""pear.png""]",1,"[""maltesers.png""]",blank.png,blank.png,blank.png,3,"[""pear.png""]","[""pear.png""]","[""pear.png""]",blank.png,blank.png,blank.png,PB14.png,,,,,,,,,,,1,,,,,,,,,,,,5518.462999999989,,completion,,,,,,,,,,,,,3,,,,,,,,,,,,,,,,,,,,,,,,,,,,,,,,,,,,,,,,,,,,,,,,,,,,,,,,,"[""pear.png""]","[""maltesers.png""]",,,,6,,,false,,1,,,,,,,620707.0049997419,620702.807,615152.234,615156.905000098,615184.344,620726.675,,,,
fixCross,canvas.Screen,2_4_2_6_1_0_1_0_0_1_0,2021-01-14T19:01:23.984Z,,,blank.png,"[""maltesers.png""]",blank.png,blank.png,blank.png,blank.png,blank.png,blank.png,blank.png,blank.png,blank.png,blank.png,blank.png,,,,,,,,,,,,,,,,,,,,,,,,,,,,,"[""maltesers.png""]","[""pear.png""]",PB12.png,,,,,,,,,,,0,6,"[""pear.png""]","[""pear.png""]","[""pear.png""]","[""pear.png""]","[""pear.png""]","[""pear.png""]",blank.png,PB18.png,PB18.png,"[""pear.png""]","[""pear.png""]",blank.png,blank.png,blank.png,blank.png,"[""pear.png""]","[""pear.png""]","[""pear.png""]","[""pear.png""]","[""pear.png""]","[""pear.png""]",1,"[""maltesers.png""]",blank.png,blank.png,blank.png,2,"[""pear.png""]","[""pear.png""]",blank.png,blank.png,blank.png,blank.png,PB12.png,,,,,,,,,,,1,,,,,,,,,,,,1259.5219999999972,,timeout,,,,,,,,,,,,,3,,,,,,,,,,,,,,,,,,,,,,,,,,,,,,,,,,,,,,,,,,,,,,,,,,,,,,,,,"[""pear.png""]","[""maltesers.png""]",,,,6,,,false,,1,,,,,,,621163.6449997313,621162.364,620702.807,620721.1050000042,620726.675,621986.197,9,,,
timeout,canvas.Screen,2_4_2_6_1_0_1_0_0_1_1,2021-01-14T19:01:25.264Z,,,blank.png,"[""maltesers.png""]",blank.png,blank.png,blank.png,blank.png,blank.png,blank.png,blank.png,blank.png,blank.png,blank.png,blank.png,,,,,,,,,,,,,,,,,,,,,,,,,,,,,"[""maltesers.png""]","[""pear.png""]",PB12.png,,,,,,,,,,,0,6,"[""pear.png""]","[""pear.png""]","[""pear.png""]","[""pear.png""]","[""pear.png""]","[""pear.png""]",blank.png,PB18.png,PB18.png,"[""pear.png""]","[""pear.png""]",blank.png,blank.png,blank.png,blank.png,"[""pear.png""]","[""pear.png""]","[""pear.png""]","[""pear.png""]","[""pear.png""]","[""pear.png""]",1,"[""maltesers.png""]",blank.png,blank.png,blank.png,2,"[""pear.png""]","[""pear.png""]",blank.png,blank.png,blank.png,blank.png,PB12.png,,,,,,,,,,,1,,,,,,,,,,,,1087.8310000000056,,timeout,,,,,,,,,,,,,3,,,,,,,,,,,,,,,,,,,,,,,,,,,,,,,,,,,,,,,,,,,,,,,,,,,,,,,,,"[""pear.png""]","[""maltesers.png""]",,,,6,,,false,,1,,,,,,,622443.6099999584,622442.277,621162.364,621973.4899997711,621986.197,623074.028,,,,
choice,canvas.Screen,2_4_2_6_1_0_1_0_0_1_2,2021-01-14T19:01:27.447Z,,,blank.png,"[""maltesers.png""]",blank.png,blank.png,blank.png,blank.png,blank.png,blank.png,blank.png,blank.png,blank.png,blank.png,blank.png,,,,,,,,,,,,,,,,,,,,,,,,,,,,,"[""maltesers.png""]","[""pear.png""]",PB12.png,,,,,,,,,,,0,6,"[""pear.png""]","[""pear.png""]","[""pear.png""]","[""pear.png""]","[""pear.png""]","[""pear.png""]",blank.png,PB18.png,PB18.png,"[""pear.png""]","[""pear.png""]",blank.png,blank.png,blank.png,blank.png,"[""pear.png""]","[""pear.png""]","[""pear.png""]","[""pear.png""]","[""pear.png""]","[""pear.png""]",1,"[""maltesers.png""]",blank.png,blank.png,blank.png,2,"[""pear.png""]","[""pear.png""]",blank.png,blank.png,blank.png,blank.png,PB12.png,,,,,,,,,,,1,,,,,,,,,,,,1550.926999890129,,response,,,,,,,,,,,,,3,,,,,,,,,,,,,,,,,,,,,,,,,,,,,,,,,,,,,,,,,,,,,,,,,,,,,,,,,"[""pear.png""]","[""maltesers.png""]",,,,6,right,keydown(ArrowRight),false,,1,,,,,,,624626.5949998051,624624.9549998902,622442.277,623064.3750000745,623074.028,625120.9,,9,,
square,canvas.Screen,2_4_2_6_1_0_1_0_0_1_3,2021-01-14T19:01:28.907Z,,,blank.png,"[""maltesers.png""]",blank.png,blank.png,blank.png,blank.png,blank.png,blank.png,blank.png,blank.png,blank.png,blank.png,blank.png,,,,,,,,,,,,,,,,,,,,,,,,,,,,,"[""maltesers.png""]","[""pear.png""]",PB12.png,,,,,,,,,,,0,6,"[""pear.png""]","[""pear.png""]","[""pear.png""]","[""pear.png""]","[""pear.png""]","[""pear.png""]",blank.png,PB18.png,PB18.png,"[""pear.png""]","[""pear.png""]",blank.png,blank.png,blank.png,blank.png,"[""pear.png""]","[""pear.png""]","[""pear.png""]","[""pear.png""]","[""pear.png""]","[""pear.png""]",1,"[""maltesers.png""]",blank.png,blank.png,blank.png,2,"[""pear.png""]","[""pear.png""]",blank.png,blank.png,blank.png,blank.png,PB12.png,,,,,,,,,,,1,,#808080,#33ff3f,,,,,,,,,989.1110000000335,,timeout,,,,,,,,,,,,,3,,,,,,,,,,,,,,,,,,,,,,,,,,,,,,,,,,,,,,,,,,,,,,,,,,,,,,,,,"[""pear.png""]","[""maltesers.png""]",,,,6,,,false,,1,,,,,white,black,626086.9849999435,626085.479,625096.664,625100.1549996436,625120.9,626110.011,,,,
ITI_late,canvas.Screen,2_4_2_6_1_0_1_0_0_1_4,2021-01-14T19:01:29.646Z,,,blank.png,"[""maltesers.png""]",blank.png,blank.png,blank.png,blank.png,blank.png,blank.png,blank.png,blank.png,blank.png,blank.png,blank.png,,,,,,,,,,,,,,,,,,,,,,,,,,,,,"[""maltesers.png""]","[""pear.png""]",PB12.png,,,,,,,,,,,0,6,"[""pear.png""]","[""pear.png""]","[""pear.png""]","[""pear.png""]","[""pear.png""]","[""pear.png""]",blank.png,PB18.png,PB18.png,"[""pear.png""]","[""pear.png""]",blank.png,blank.png,blank.png,blank.png,"[""pear.png""]","[""pear.png""]","[""pear.png""]","[""pear.png""]","[""pear.png""]","[""pear.png""]",1,"[""maltesers.png""]",blank.png,blank.png,blank.png,2,"[""pear.png""]","[""pear.png""]",blank.png,blank.png,blank.png,blank.png,PB12.png,,,,,,,,,,,1,,,,,,,,,,,,747.6139999999432,,timeout,,,,,,,,,,,,white,3,,,,,,,,,,,,,,,,,,,,,,,,,,,,,,,,,,,,,,,,,,,,,,,,,,,,,,,,,"[""pear.png""]","[""maltesers.png""]",,,,6,,,false,,1,,,,,,,626825.6649998948,626824.418,626085.479,626093.499999959,626110.011,626857.625,,,,
choice_sequence,flow.Sequence,2_4_2_6_1_0_1_0_0_1,2021-01-14T19:01:29.647Z,,,blank.png,"[""maltesers.png""]",blank.png,blank.png,blank.png,blank.png,blank.png,blank.png,blank.png,blank.png,blank.png,blank.png,blank.png,,,,,,,,,,,,,,,,,,,,,,,,,,,,,"[""maltesers.png""]","[""pear.png""]",PB12.png,,,,,,,,,,,0,6,"[""pear.png""]","[""pear.png""]","[""pear.png""]","[""pear.png""]","[""pear.png""]","[""pear.png""]",blank.png,PB18.png,PB18.png,"[""pear.png""]","[""pear.png""]",blank.png,blank.png,blank.png,blank.png,"[""pear.png""]","[""pear.png""]","[""pear.png""]","[""pear.png""]","[""pear.png""]","[""pear.png""]",1,"[""maltesers.png""]",blank.png,blank.png,blank.png,2,"[""pear.png""]","[""pear.png""]",blank.png,blank.png,blank.png,blank.png,PB12.png,,,,,,,,,,,1,,,,,,,,,,,,6097.7429999999,,completion,,,,,,,,,,,,,3,,,,,,,,,,,,,,,,,,,,,,,,,,,,,,,,,,,,,,,,,,,,,,,,,,,,,,,,,"[""pear.png""]","[""maltesers.png""]",,,,6,,,false,,1,,,,,,,626826.864999719,626824.418,620702.807,620718.2299997658,620726.675,626857.625,,,,
fixCross,canvas.Screen,2_4_2_6_1_0_1_0_0_2_0,2021-01-14T19:01:30.154Z,,,blank.png,blank.png,blank.png,blank.png,blank.png,blank.png,blank.png,"[""maltesers.png""]",blank.png,blank.png,blank.png,blank.png,blank.png,,,,,,,,,,,,,,,,,,,,,,,,,,,,,"[""maltesers.png""]","[""pear.png""]",PB18.png,,,,,,,,,,,0,6,"[""pear.png""]","[""pear.png""]","[""pear.png""]","[""pear.png""]","[""pear.png""]","[""pear.png""]",blank.png,PB18.png,PB07.png,"[""pear.png""]","[""pear.png""]","[""pear.png""]","[""pear.png""]","[""pear.png""]","[""pear.png""]","[""pear.png""]",blank.png,blank.png,blank.png,blank.png,blank.png,1,"[""maltesers.png""]",blank.png,blank.png,blank.png,1,"[""pear.png""]",blank.png,blank.png,blank.png,blank.png,blank.png,PB07.png,,,,,,,,,,,1,,,,,,,,,,,,1146.5509999999776,,timeout,,,,,,,,,,,,,4,,,,,,,,,,,,,,,,,,,,,,,,,,,,,,,,,,,,,,,,,,,,,,,,,,,,,,,,,"[""pear.png""]","[""maltesers.png""]",,,,6,,,false,,1,,,,,,,627333.654999733,627332.395,626824.418,626839.7599998862,626857.625,628004.176,10,,,
timeout,canvas.Screen,2_4_2_6_1_0_1_0_0_2_1,2021-01-14T19:01:31.285Z,,,blank.png,blank.png,blank.png,blank.png,blank.png,blank.png,blank.png,"[""maltesers.png""]",blank.png,blank.png,blank.png,blank.png,blank.png,,,,,,,,,,,,,,,,,,,,,,,,,,,,,"[""maltesers.png""]","[""pear.png""]",PB18.png,,,,,,,,,,,0,6,"[""pear.png""]","[""pear.png""]","[""pear.png""]","[""pear.png""]","[""pear.png""]","[""pear.png""]",blank.png,PB18.png,PB07.png,"[""pear.png""]","[""pear.png""]","[""pear.png""]","[""pear.png""]","[""pear.png""]","[""pear.png""]","[""pear.png""]",blank.png,blank.png,blank.png,blank.png,blank.png,1,"[""maltesers.png""]",blank.png,blank.png,blank.png,1,"[""pear.png""]",blank.png,blank.png,blank.png,blank.png,blank.png,PB07.png,,,,,,,,,,,1,,,,,,,,,,,,1082.4610000000102,,timeout,,,,,,,,,,,,,4,,,,,,,,,,,,,,,,,,,,,,,,,,,,,,,,,,,,,,,,,,,,,,,,,,,,,,,,,"[""pear.png""]","[""maltesers.png""]",,,,6,,,false,,1,,,,,,,628464.2199999653,628462.887,627332.395,628011.8350000121,628004.176,629086.637,,,,
choice,canvas.Screen,2_4_2_6_1_0_1_0_0_2_2,2021-01-14T19:01:33.613Z,,,blank.png,blank.png,blank.png,blank.png,blank.png,blank.png,blank.png,"[""maltesers.png""]",blank.png,blank.png,blank.png,blank.png,blank.png,,,,,,,,,,,,,,,,,,,,,,,,,,,,,"[""maltesers.png""]","[""pear.png""]",PB18.png,,,,,,,,,,,0,6,"[""pear.png""]","[""pear.png""]","[""pear.png""]","[""pear.png""]","[""pear.png""]","[""pear.png""]",blank.png,PB18.png,PB07.png,"[""pear.png""]","[""pear.png""]","[""pear.png""]","[""pear.png""]","[""pear.png""]","[""pear.png""]","[""pear.png""]",blank.png,blank.png,blank.png,blank.png,blank.png,1,"[""maltesers.png""]",blank.png,blank.png,blank.png,1,"[""pear.png""]",blank.png,blank.png,blank.png,blank.png,blank.png,PB07.png,,,,,,,,,,,1,,,,,,,,,,,,1703.262999741477,,response,,,,,,,,,,,,,4,,,,,,,,,,,,,,,,,,,,,,,,,,,,,,,,,,,,,,,,,,,,,,,,,,,,,,,,,"[""pear.png""]","[""maltesers.png""]",,,,6,left,keydown(ArrowLeft),false,,1,,,,,,,630792.5450000912,630789.8999997415,628462.887,629087.5349999405,629086.637,631198.988,,10,,
square,canvas.Screen,2_4_2_6_1_0_1_0_0_2_3,2021-01-14T19:01:35.002Z,,,blank.png,blank.png,blank.png,blank.png,blank.png,blank.png,blank.png,"[""maltesers.png""]",blank.png,blank.png,blank.png,blank.png,blank.png,,,,,,,,,,,,,,,,,,,,,,,,,,,,,"[""maltesers.png""]","[""pear.png""]",PB18.png,,,,,,,,,,,0,6,"[""pear.png""]","[""pear.png""]","[""pear.png""]","[""pear.png""]","[""pear.png""]","[""pear.png""]",blank.png,PB18.png,PB07.png,"[""pear.png""]","[""pear.png""]","[""pear.png""]","[""pear.png""]","[""pear.png""]","[""pear.png""]","[""pear.png""]",blank.png,blank.png,blank.png,blank.png,blank.png,1,"[""maltesers.png""]",blank.png,blank.png,blank.png,1,"[""pear.png""]",blank.png,blank.png,blank.png,blank.png,blank.png,PB07.png,,,,,,,,,,,1,,#33ff3f,#808080,,,,,,,,,1013.9379999999655,,timeout,,,,,,,,,,,,,4,,,,,,,,,,,,,,,,,,,,,,,,,,,,,,,,,,,,,,,,,,,,,,,,,,,,,,,,,"[""pear.png""]","[""maltesers.png""]",,,,6,,,false,,1,,,,,black,white,632181.9849996828,632180.771,631175.882,631180.6999999098,631198.988,632212.926,,,,
ITI_late,canvas.Screen,2_4_2_6_1_0_1_0_0_2_4,2021-01-14T19:01:35.260Z,,,blank.png,blank.png,blank.png,blank.png,blank.png,blank.png,blank.png,"[""maltesers.png""]",blank.png,blank.png,blank.png,blank.png,blank.png,,,,,,,,,,,,,,,,,,,,,,,,,,,,,"[""maltesers.png""]","[""pear.png""]",PB18.png,,,,,,,,,,,0,6,"[""pear.png""]","[""pear.png""]","[""pear.png""]","[""pear.png""]","[""pear.png""]","[""pear.png""]",blank.png,PB18.png,PB07.png,"[""pear.png""]","[""pear.png""]","[""pear.png""]","[""pear.png""]","[""pear.png""]","[""pear.png""]","[""pear.png""]",blank.png,blank.png,blank.png,blank.png,blank.png,1,"[""maltesers.png""]",blank.png,blank.png,blank.png,1,"[""pear.png""]",blank.png,blank.png,blank.png,blank.png,blank.png,PB07.png,,,,,,,,,,,1,,,,,,,,,,,,257.26899999997113,,timeout,,,,,,,,,,,,white,4,,,,,,,,,,,,,,,,,,,,,,,,,,,,,,,,,,,,,,,,,,,,,,,,,,,,,,,,,"[""pear.png""]","[""maltesers.png""]",,,,6,,,false,,1,,,,,,,632439.3899999559,632438.179,632180.771,632186.4700000733,632212.926,632470.195,,,,
choice_sequence,flow.Sequence,2_4_2_6_1_0_1_0_0_2,2021-01-14T19:01:35.261Z,,,blank.png,blank.png,blank.png,blank.png,blank.png,blank.png,blank.png,"[""maltesers.png""]",blank.png,blank.png,blank.png,blank.png,blank.png,,,,,,,,,,,,,,,,,,,,,,,,,,,,,"[""maltesers.png""]","[""pear.png""]",PB18.png,,,,,,,,,,,0,6,"[""pear.png""]","[""pear.png""]","[""pear.png""]","[""pear.png""]","[""pear.png""]","[""pear.png""]",blank.png,PB18.png,PB07.png,"[""pear.png""]","[""pear.png""]","[""pear.png""]","[""pear.png""]","[""pear.png""]","[""pear.png""]","[""pear.png""]",blank.png,blank.png,blank.png,blank.png,blank.png,1,"[""maltesers.png""]",blank.png,blank.png,blank.png,1,"[""pear.png""]",blank.png,blank.png,blank.png,blank.png,blank.png,PB07.png,,,,,,,,,,,1,,,,,,,,,,,,5580.554000000004,,completion,,,,,,,,,,,,,4,,,,,,,,,,,,,,,,,,,,,,,,,,,,,,,,,,,,,,,,,,,,,,,,,,,,,,,,,"[""pear.png""]","[""maltesers.png""]",,,,6,,,false,,1,,,,,,,632440.5849999748,632438.179,626824.418,626837.2200001031,626857.625,632470.195,,,,
fixCross,canvas.Screen,2_4_2_6_1_0_1_0_0_3_0,2021-01-14T19:01:35.706Z,,,blank.png,blank.png,blank.png,blank.png,blank.png,blank.png,blank.png,"[""maltesers.png""]",blank.png,blank.png,blank.png,blank.png,blank.png,,,,,,,,,,,,,,,,,,,,,,,,,,,,,"[""maltesers.png""]","[""pear.png""]",PB18.png,,,,,,,,,,,0,6,"[""pear.png""]","[""pear.png""]","[""pear.png""]","[""pear.png""]","[""pear.png""]","[""pear.png""]",blank.png,PB18.png,PB01.png,"[""pear.png""]","[""pear.png""]","[""pear.png""]","[""pear.png""]","[""pear.png""]","[""pear.png""]",blank.png,blank.png,blank.png,blank.png,blank.png,blank.png,1,"[""maltesers.png""]",blank.png,blank.png,blank.png,0,blank.png,blank.png,blank.png,blank.png,blank.png,blank.png,PB01.png,,,,,,,,,,,1,,,,,,,,,,,,974.1360000000568,,timeout,,,,,,,,,,,,,4,,,,,,,,,,,,,,,,,,,,,,,,,,,,,,,,,,,,,,,,,,,,,,,,,,,,,,,,,"[""pear.png""]","[""maltesers.png""]",,,,6,,,false,,1,,,,,,,632885.7799996622,632884.528,632438.179,632454.6099998988,632470.195,633444.331,11,,,
