sender,sender_type,sender_id,timestamp,meta,,Blank,DownLeft1,DownLeft2,DownLeft3,DownLeft4,DownLeft5,DownLeft6,DownRight1,DownRight2,DownRight3,DownRight4,DownRight5,DownRight6,FoodHabits_Fru_item1,FoodHabits_Fru_item2,FoodHabits_Fru_item3,FoodHabits_Fru_item4,FoodHabits_Fru_item5,FoodHabits_Fru_item6,FoodHabits_Fru_item7,FoodHabits_Meat_item1,FoodHabits_Meat_item2,FoodHabits_Meat_item3,FoodHabits_Meat_item4,FoodHabits_Meat_item5,FoodHabits_Meat_item6,FoodHabits_Meat_item7,FoodHabits_Swe_item1,FoodHabits_Swe_item2,FoodHabits_Swe_item3,FoodHabits_Swe_item4,FoodHabits_Swe_item5,FoodHabits_Swe_item6,FoodHabits_Swe_item7,FoodHabits_Veg_item1,FoodHabits_Veg_item2,FoodHabits_Veg_item3,FoodHabits_Veg_item4,FoodHabits_Veg_item5,FoodHabits_Veg_item6,FoodHabits_Veg_item7,ImgA,ImgB,LeftBar,PSS_item01,PSS_item02,PSS_item03,PSS_item04,PSS_item05,PSS_item06,PSS_item07,PSS_item08,PSS_item09,PSS_item10,RefA,RefB,RefB1,RefB2,RefB3,RefB4,RefB5,RefB6,RefB7,Ref_PB,RightBar,UpLeft1,UpLeft2,UpLeft3,UpLeft4,UpLeft5,UpLeft6,UpRight1,UpRight2,UpRight3,UpRight4,UpRight5,UpRight6,VarA,VarA1,VarA2,VarA3,VarA4,VarB,VarB1,VarB2,VarB3,VarB4,VarB5,VarB6,Var_PB,attCheck_fileA,attCheck_fileB,attCheck_fileC,attCheck_fileD,attCheck_options,attCheck_valueA,attCheck_valueB,attCheck_valueC,attCheck_valueD,attention_check,block,break1,browser_name,choseL,choseR,consent_form1,consent_form2,consentconfirmation_form1,consentconfirmation_form2,correct,correctResponse,diet,disorder,duration,edu,ended_on,enjoy,full_version,gender,group,hunger,img,imgTask,input_age,input_meal,input_occ,input_remark,lateRespFeed,list,major_version,message,mixQ_item1,mixQ_item2,mixQ_item3,mixQ_item4,mixQ_item5,name,navigator_appName,navigator_userAgent,os,pracQ1_IDa,pracQ1_IDb,pracQ1_IDc,pracQ1_IDd,pracQ1_optionA,pracQ1_optionB,pracQ1_optionC,pracQ1_optionD,pracQ1_valueA,pracQ1_valueB,pracQ1_valueC,pracQ1_valueD,pracQ2_IDa,pracQ2_IDb,pracQ2_IDc,pracQ2_optionA,pracQ2_optionB,pracQ2_optionC,pracQ2_valueA,pracQ2_valueB,pracQ2_valueC,pracQ4_IDa,pracQ4_IDb,pracQ4_IDc,pracQ4_IDd,pracQ4_optionA,pracQ4_optionB,pracQ4_optionC,pracQ4_optionD,pracQ4_valueA,pracQ4_valueB,pracQ4_valueC,pracQ4_valueD,pracQ5_IDa,pracQ5_IDb,pracQ5_IDc,pracQ5_IDd,pracQ5_optionA,pracQ5_optionB,pracQ5_optionC,pracQ5_optionD,pracQ5_valueA,pracQ5_valueB,pracQ5_valueC,pracQ5_valueD,prefHealty,prefUnhealthy,prolific_ID,psessionID,pstudyID,rep,response,response_action,skip,snack,sublock,subtitle,task_difficulty,task_engagement,task_focus,textL,textR,time_commit,time_end,time_render,time_run,time_show,time_switch,trial_count,trial_countO,url,valence
Title,html.Page,0,2021-05-24T15:46:17.632Z,"{""labjs_version"":""20.2.2"",""labjs_build"":{""flavor"":""production"",""commit"":""a25486e0c714a0ae2ce03ff94b7bb6896854dcfa""},""location"":""https://run.pavlovia.org/E3lab/rebund/html/?PROLIFIC_PID=5d956ec78fde480017a3368f&STUDY_ID=60008f34cd719d13b0d706dd&SESSION_ID=60abca38dd3b28fbc009b0d1"",""userAgent"":""Mozilla/5.0 (Windows NT 10.0; Win64; x64) AppleWebKit/537.36 (KHTML, like Gecko) Chrome/90.0.4430.212 Safari/537.36"",""platform"":""Win32"",""language"":""en-US"",""locale"":""en-US"",""timeZone"":""America/New_York"",""timezoneOffset"":240,""screen_width"":1280,""screen_height"":720,""scroll_width"":1280,""scroll_height"":591,""window_innerWidth"":1280,""window_innerHeight"":591,""devicePixelRatio"":1.5}",,,,,,,,,,,,,,,,,,,,,,,,,,,,,,,,,,,,,,,,,,,,,,,,,,,,,,,,,,,,,,,,,,,,,,,,,,,,,,,,,,,,,,,,,,,,,,,,,,,,,,,,,,,,,,,,,,,1895.3270000000084,,form submission,,,,,,,,,,,,,,,,,,,,,,,,,,,,,,,,,,,,,,,,,,,,,,,,,,,,,,,,,,,,,,,,,,,,,,,,,,,,,,,,,,,,,,,7162.334999999985,7161.335000000008,5232.669,5236.494999999991,5266.008,7164.133,,,"{""PROLIFIC_PID"":""5d956ec78fde480017a3368f"",""STUDY_ID"":""60008f34cd719d13b0d706dd"",""SESSION_ID"":""60abca38dd3b28fbc009b0d1""}",
get_systemInfo,canvas.Screen,1,2021-05-24T15:46:17.650Z,,,,,,,,,,,,,,,,,,,,,,,,,,,,,,,,,,,,,,,,,,,,,,,,,,,,,,,,,,,,,,,,,,,,,,,,,,,,,,,,,,,,,,,,,,,,,,,,,,,,,,,,,Chrome,,,,,,,,,,,5777.889999999999,,timeout,,90.0.4430.212,,,,,,,,,,,,90,,,,,,,,Netscape,"Mozilla/5.0 (Windows NT 10.0; Win64; x64) AppleWebKit/537.36 (KHTML, like Gecko) Chrome/90.0.4430.212 Safari/537.36",Windows,,,,,,,,,,,,,,,,,,,,,,,,,,,,,,,,,,,,,,,,,,,,,,,,5d956ec78fde480017a3368f,,60008f34cd719d13b0d706dd,,,,,,,,,,,,,7180.369999999983,7179.944999999975,7147.47,7164.614999999969,7164.133,12942.023,,,,
ConsentForm,html.Form,2_0,2021-05-24T15:46:42.613Z,,,,,,,,,,,,,,,,,,,,,,,,,,,,,,,,,,,,,,,,,,,,,,,,,,,,,,,,,,,,,,,,,,,,,,,,,,,,,,,,,,,,,,,,,,,,,,,,,,,,,,,,,,,,true,true,,,,,,,19200.92699999999,,form submission,,,,,,,,,,,,,,,,,,,,,,,,,,,,,,,,,,,,,,,,,,,,,,,,,,,,,,,,,,,,,,,,,,,,,,,,,,,,,,,,,,,,,,,32143.50000000002,32142.949999999986,7179.944999999975,12956.819999999992,12942.023,32158.412,,,,
PepTalk,html.Page,2_1,2021-05-24T15:47:01.666Z,,,,,,,,,,,,,,,,,,,,,,,,,,,,,,,,,,,,,,,,,,,,,,,,,,,,,,,,,,,,,,,,,,,,,,,,,,,,,,,,,,,,,,,,,,,,,,,,,,,,,,,,,,,,,,,,,,,,19037.34800000001,,form submission,,,,,,,,,,,,,,,,,,,,,,,,,,,,,,,,,,,,,,,,,,,,,,,,,,,,,,,,,,,,,,,,,,,,,,,,,,,,,,,,,,,,,,,51196.215,51195.76000000001,32123.974,32143.804999999986,32158.412,51205.998,,,,
Demographics,html.Form,2_2,2021-05-24T15:47:12.286Z,,,,,,,,,,,,,,,,,,,,,,,,,,,,,,,,,,,,,,,,,,,,,,,,,,,,,,,,,,,,,,,,,,,,,,,,,,,,,,,,,,,,,,,,,,,,,,,,,,,,,,,,,,,,,,,,,,,,10610.266999999985,3,form submission,,,1,,,,,31,,Business owner,,,,,,,,,,,,,,,,,,,,,,,,,,,,,,,,,,,,,,,,,,,,,,,,,,,,,,,,,,,,,,,,,,,,,,,,,,,,,61816.565000000024,61816.264999999985,51190.551,51196.41999999999,51205.998,61829.388,,,,
InclusionCrit,html.Form,2_3,2021-05-24T15:47:28.458Z,,,,,,,,,,,,,,,,,,,,,,,,,,,,,,,,,,,,,,,,,,,,,,,,,,,,,,,,,,,,,,,,,,,,,,,,,,,,,,,,,,,,,,,,,,,,,,,,,,,,,,,,,,,,,,,,,,1,1,16158.306999999979,,form submission,1,,,,,,,,,,,,,,,,,,,,,,,,,,,,,,,,,,,,,,,,,,,,,,,,,,,,,,,,,,,,,,,,,,,,,,,,,,,,,,,,,,,,,,77988.06999999999,77987.69499999998,61812.737,61816.79000000002,61829.388,77997.579,,,,
Selection,html.Page,2_4_0,2021-05-24T15:47:35.376Z,,,,,,,,,,,,,,,,,,,,,,,,,,,,,,,,,,,,,,,,,,,,,,,,,,,,,,,,,,,,,,,,,,,,,,,,,,,,,,,,,,,,,,,,,,,,,,,,,,,,,,,,,,,,,,,,,,,,6908.61099999999,,form submission,,,,,,,,,,,,,,,,,,,,,,,,,,,,,,,,,,,,,,,,,,,,,,,,,,,,,,,,,,,,,,,,,,,,,,,,,,,,,,,0,,,,,,,,84906.60000000002,84906.18999999999,77980.783,77988.32499999997,77997.579,84907.596,,,,
Load,html.Page,2_4_1,2021-05-24T15:47:35.382Z,,,,,,,,,,,,,,,,,,,,,,,,,,,,,,,,,,,,,,,,,,,,,,,,,,,,,,,,,,,,,,,,,,,,,,,,,,,,,,,,,,,,,,,,,,,,,,,,,,,,,,,,,,,,,,,,,,,,11505.828999999998,,timeout,,,,,,,,,,,,,,,,,,,,,,,,,,,,,,,,,,,,,,,,,,,,,,,,,,,,,,,,,,,,,,,,,,,,,,,,,,,,,,,,,,,,,,,84911.83499999999,84911.31000000001,84890.982,84906.79499999998,84907.596,96413.425,,,,
ratings_instructions,html.Screen,2_4_2_0,2021-05-24T15:48:11.239Z,,,,,,,,,,,,,,,,,,,,,,,,,,,,,,,,,,,,,,,,,,,,,,,,,,,,,,,,,,,,,,,,,,,,,,,,,,,,,,,,,,,,,,,,,,,,,,,,,,,,,,,,,,,,,,,,,,,,24352.325000000026,,response,,,,,,,,,,,,,,,,,,,,,,,,,,,,,,,,,,,,,,,,,,,,,,,,,,,,,,,,,,,,,,,,,,,,,,,,,,,,continue,keypress(Space),false,,,,,,,,,120769.205,120765.75000000003,84911.31000000001,96452.01500000001,96413.425,120773.828,0,0,,
fixCross,canvas.Screen,2_4_2_1_0_0,2021-05-24T15:48:11.727Z,,,,,,,,,,,,,,,,,,,,,,,,,,,,,,,,,,,,,,,,,,,,,,,,,,,,,,,,,,,,,,,,,,,,,,,,,,,,,,,,,,,,,,,,,,,,,,,,,,,,,,,,,,,,,,,,,,,,499.55500000000757,,timeout,,,,unhealthy,,praline.png,,,,,,,,,,,,,,,praline,,,,,,,,,,,,,,,,,,,,,,,,,,,,,,,,,,,,,,,,,,,,,,,,,,,,,,,,,false,,,,,,,,,121257.695,121256.706,120757.235,120769.80000000003,120773.828,121273.383,,,,
Rating,html.Form,2_4_2_1_0_1,2021-05-24T15:48:22.698Z,,,,,,,,,,,,,,,,,,,,,,,,,,,,,,,,,,,,,,,,,,,,,,,,,,,,,,,,,,,,,,,,,,,,,,,,,,,,,,,,,,,,,,,,,,,,,,,,,,,,,,,,,,,,,,,,,,,,10954.857000000018,,form submission,,,,unhealthy,,praline.png,,,,,,,,,,,,,,,praline,,,,,,,,,,,,,,,,,,,,,,,,,,,,,,,,,,,,,,,,,,,,,,,,,,,,,,,,,false,,,,,,,,,132228.72,132228.24000000002,121256.706,121257.95,121273.383,132229.721,,,,42
rating_sequence,flow.Sequence,2_4_2_1_0,2021-05-24T15:48:22.699Z,,,,,,,,,,,,,,,,,,,,,,,,,,,,,,,,,,,,,,,,,,,,,,,,,,,,,,,,,,,,,,,,,,,,,,,,,,,,,,,,,,,,,,,,,,,,,,,,,,,,,,,,,,,,,,,,,,,,11454.412000000026,,completion,,,,unhealthy,,praline.png,,,,,,,,,,,,,,,praline,,,,,,,,,,,,,,,,,,,,,,,,,,,,,,,,,,,,,,,,,,,,,,,,,,,,,,,,,false,,,,,,,,,132229.205,132228.24000000002,120757.235,120769.72499999999,120773.828,132229.721,,,,
fixCross,canvas.Screen,2_4_2_1_1_0,2021-05-24T15:48:23.183Z,,,,,,,,,,,,,,,,,,,,,,,,,,,,,,,,,,,,,,,,,,,,,,,,,,,,,,,,,,,,,,,,,,,,,,,,,,,,,,,,,,,,,,,,,,,,,,,,,,,,,,,,,,,,,,,,,,,,499.5200000000186,,timeout,,,,healthy,,grape.png,,,,,,,,,,,,,,,grape,,,,,,,,,,,,,,,,,,,,,,,,,,,,,,,,,,,,,,,,,,,,,,,,,,,,,,,,,false,,,,,,,,,132713.16999999998,132712.588,132213.14,132229.49,132229.721,132729.241,,,,
Rating,html.Form,2_4_2_1_1_1,2021-05-24T15:48:31.334Z,,,,,,,,,,,,,,,,,,,,,,,,,,,,,,,,,,,,,,,,,,,,,,,,,,,,,,,,,,,,,,,,,,,,,,,,,,,,,,,,,,,,,,,,,,,,,,,,,,,,,,,,,,,,,,,,,,,,8134.673999999999,,form submission,,,,healthy,,grape.png,,,,,,,,,,,,,,,grape,,,,,,,,,,,,,,,,,,,,,,,,,,,,,,,,,,,,,,,,,,,,,,,,,,,,,,,,,false,,,,,,,,,140864.21000000002,140863.915,132712.588,132713.38000000003,132729.241,140871.775,,,,75
rating_sequence,flow.Sequence,2_4_2_1_1,2021-05-24T15:48:31.334Z,,,,,,,,,,,,,,,,,,,,,,,,,,,,,,,,,,,,,,,,,,,,,,,,,,,,,,,,,,,,,,,,,,,,,,,,,,,,,,,,,,,,,,,,,,,,,,,,,,,,,,,,,,,,,,,,,,,,8634.194000000018,,completion,,,,healthy,,grape.png,,,,,,,,,,,,,,,grape,,,,,,,,,,,,,,,,,,,,,,,,,,,,,,,,,,,,,,,,,,,,,,,,,,,,,,,,,false,,,,,,,,,140864.43000000002,140863.915,132213.14,132229.39500000002,132229.721,140871.775,,,,
fixCross,canvas.Screen,2_4_2_1_2_0,2021-05-24T15:48:31.825Z,,,,,,,,,,,,,,,,,,,,,,,,,,,,,,,,,,,,,,,,,,,,,,,,,,,,,,,,,,,,,,,,,,,,,,,,,,,,,,,,,,,,,,,,,,,,,,,,,,,,,,,,,,,,,,,,,,,,499.3179999999993,,timeout,,,,unhealthy,,chocolate.png,,,,,,,,,,,,,,,chocolate,,,,,,,,,,,,,,,,,,,,,,,,,,,,,,,,,,,,,,,,,,,,,,,,,,,,,,,,,false,,,,,,,,,141354.93000000002,141354.446,140854.91,140864.61000000002,140871.775,141371.093,,,,
Rating,html.Form,2_4_2_1_2_1,2021-05-24T15:48:37.166Z,,,,,,,,,,,,,,,,,,,,,,,,,,,,,,,,,,,,,,,,,,,,,,,,,,,,,,,,,,,,,,,,,,,,,,,,,,,,,,,,,,,,,,,,,,,,,,,,,,,,,,,,,,,,,,,,,,,,5325.0470000000205,,form submission,,,,unhealthy,,chocolate.png,,,,,,,,,,,,,,,chocolate,,,,,,,,,,,,,,,,,,,,,,,,,,,,,,,,,,,,,,,,,,,,,,,,,,,,,,,,,false,,,,,,,,,146696.51500000004,146696.14,141354.446,141355.1,141371.093,146699.42,,,,93
rating_sequence,flow.Sequence,2_4_2_1_2,2021-05-24T15:48:37.166Z,,,,,,,,,,,,,,,,,,,,,,,,,,,,,,,,,,,,,,,,,,,,,,,,,,,,,,,,,,,,,,,,,,,,,,,,,,,,,,,,,,,,,,,,,,,,,,,,,,,,,,,,,,,,,,,,,,,,5824.36500000002,,completion,,,,unhealthy,,chocolate.png,,,,,,,,,,,,,,,chocolate,,,,,,,,,,,,,,,,,,,,,,,,,,,,,,,,,,,,,,,,,,,,,,,,,,,,,,,,,false,,,,,,,,,146696.895,146696.14,140854.91,140864.55000000002,140871.775,146699.42,,,,
fixCross,canvas.Screen,2_4_2_1_3_0,2021-05-24T15:48:37.653Z,,,,,,,,,,,,,,,,,,,,,,,,,,,,,,,,,,,,,,,,,,,,,,,,,,,,,,,,,,,,,,,,,,,,,,,,,,,,,,,,,,,,,,,,,,,,,,,,,,,,,,,,,,,,,,,,,,,,499.5669999999809,,timeout,,,,unhealthy,,candy.png,,,,,,,,,,,,,,,candy,,,,,,,,,,,,,,,,,,,,,,,,,,,,,,,,,,,,,,,,,,,,,,,,,,,,,,,,,false,,,,,,,,,147183.325,147182.313,146682.768,146697.17500000002,146699.42,147198.987,,,,
Rating,html.Form,2_4_2_1_3_1,2021-05-24T15:48:50.516Z,,,,,,,,,,,,,,,,,,,,,,,,,,,,,,,,,,,,,,,,,,,,,,,,,,,,,,,,,,,,,,,,,,,,,,,,,,,,,,,,,,,,,,,,,,,,,,,,,,,,,,,,,,,,,,,,,,,,12846.73800000007,,form submission,,,,unhealthy,,candy.png,,,,,,,,,,,,,,,candy,,,,,,,,,,,,,,,,,,,,,,,,,,,,,,,,,,,,,,,,,,,,,,,,,,,,,,,,,false,,,,,,,,,160046.18500000003,160045.72500000006,147182.313,147183.47,147198.987,160053.602,,,,14
rating_sequence,flow.Sequence,2_4_2_1_3,2021-05-24T15:48:50.517Z,,,,,,,,,,,,,,,,,,,,,,,,,,,,,,,,,,,,,,,,,,,,,,,,,,,,,,,,,,,,,,,,,,,,,,,,,,,,,,,,,,,,,,,,,,,,,,,,,,,,,,,,,,,,,,,,,,,,13346.305000000051,,completion,,,,unhealthy,,candy.png,,,,,,,,,,,,,,,candy,,,,,,,,,,,,,,,,,,,,,,,,,,,,,,,,,,,,,,,,,,,,,,,,,,,,,,,,,false,,,,,,,,,160047.15999999997,160045.72500000006,146682.768,146697.10000000003,146699.42,160053.602,,,,
fixCross,canvas.Screen,2_4_2_1_4_0,2021-05-24T15:48:51.006Z,,,,,,,,,,,,,,,,,,,,,,,,,,,,,,,,,,,,,,,,,,,,,,,,,,,,,,,,,,,,,,,,,,,,,,,,,,,,,,,,,,,,,,,,,,,,,,,,,,,,,,,,,,,,,,,,,,,,499.4419999999809,,timeout,,,,healthy,,cherry.png,,,,,,,,,,,,,,,cherry,,,,,,,,,,,,,,,,,,,,,,,,,,,,,,,,,,,,,,,,,,,,,,,,,,,,,,,,,false,,,,,,,,,160536.88499999998,160536.386,160036.892,160047.53000000006,160053.602,160553.044,,,,
Rating,html.Form,2_4_2_1_4_1,2021-05-24T15:49:01.065Z,,,,,,,,,,,,,,,,,,,,,,,,,,,,,,,,,,,,,,,,,,,,,,,,,,,,,,,,,,,,,,,,,,,,,,,,,,,,,,,,,,,,,,,,,,,,,,,,,,,,,,,,,,,,,,,,,,,,10041.941000000079,,form submission,,,,healthy,,cherry.png,,,,,,,,,,,,,,,cherry,,,,,,,,,,,,,,,,,,,,,,,,,,,,,,,,,,,,,,,,,,,,,,,,,,,,,,,,,false,,,,,,,,,170595.30000000008,170594.98500000007,160536.386,160537.02999999997,160553.044,170610.296,,,,89
rating_sequence,flow.Sequence,2_4_2_1_4,2021-05-24T15:49:01.065Z,,,,,,,,,,,,,,,,,,,,,,,,,,,,,,,,,,,,,,,,,,,,,,,,,,,,,,,,,,,,,,,,,,,,,,,,,,,,,,,,,,,,,,,,,,,,,,,,,,,,,,,,,,,,,,,,,,,,10541.38300000006,,completion,,,,healthy,,cherry.png,,,,,,,,,,,,,,,cherry,,,,,,,,,,,,,,,,,,,,,,,,,,,,,,,,,,,,,,,,,,,,,,,,,,,,,,,,,false,,,,,,,,,170595.52500000005,170594.98500000007,160036.892,160047.46,160053.602,170610.296,,,,
fixCross,canvas.Screen,2_4_2_1_5_0,2021-05-24T15:49:01.563Z,,,,,,,,,,,,,,,,,,,,,,,,,,,,,,,,,,,,,,,,,,,,,,,,,,,,,,,,,,,,,,,,,,,,,,,,,,,,,,,,,,,,,,,,,,,,,,,,,,,,,,,,,,,,,,,,,,,,499.4679999999935,,timeout,,,,healthy,,coconut.png,,,,,,,,,,,,,,,coconut,,,,,,,,,,,,,,,,,,,,,,,,,,,,,,,,,,,,,,,,,,,,,,,,,,,,,,,,,false,,,,,,,,,171093.62,171093.118,170593.611,170595.71500000005,170610.296,171109.764,,,,
Rating,html.Form,2_4_2_1_5_1,2021-05-24T15:49:12.524Z,,,,,,,,,,,,,,,,,,,,,,,,,,,,,,,,,,,,,,,,,,,,,,,,,,,,,,,,,,,,,,,,,,,,,,,,,,,,,,,,,,,,,,,,,,,,,,,,,,,,,,,,,,,,,,,,,,,,10944.671000000002,,form submission,,,,healthy,,coconut.png,,,,,,,,,,,,,,,coconut,,,,,,,,,,,,,,,,,,,,,,,,,,,,,,,,,,,,,,,,,,,,,,,,,,,,,,,,,false,,,,,,,,,182054.74000000005,182054.435,171093.118,171093.79,171109.764,182066.217,,,,62
rating_sequence,flow.Sequence,2_4_2_1_5,2021-05-24T15:49:12.524Z,,,,,,,,,,,,,,,,,,,,,,,,,,,,,,,,,,,,,,,,,,,,,,,,,,,,,,,,,,,,,,,,,,,,,,,,,,,,,,,,,,,,,,,,,,,,,,,,,,,,,,,,,,,,,,,,,,,,11444.138999999996,,completion,,,,healthy,,coconut.png,,,,,,,,,,,,,,,coconut,,,,,,,,,,,,,,,,,,,,,,,,,,,,,,,,,,,,,,,,,,,,,,,,,,,,,,,,,false,,,,,,,,,182054.92500000002,182054.435,170593.611,170595.65499999997,170610.296,182066.217,,,,
fixCross,canvas.Screen,2_4_2_1_6_0,2021-05-24T15:49:13.019Z,,,,,,,,,,,,,,,,,,,,,,,,,,,,,,,,,,,,,,,,,,,,,,,,,,,,,,,,,,,,,,,,,,,,,,,,,,,,,,,,,,,,,,,,,,,,,,,,,,,,,,,,,,,,,,,,,,,,499.44999999998254,,timeout,,,,unhealthy,,m&m.png,,,,,,,,,,,,,,,m&m,,,,,,,,,,,,,,,,,,,,,,,,,,,,,,,,,,,,,,,,,,,,,,,,,,,,,,,,,false,,,,,,,,,182549.625,182549.021,182049.457,182055.04500000007,182066.217,182565.667,,,,
Rating,html.Form,2_4_2_1_6_1,2021-05-24T15:49:30.979Z,,,,,,,,,,,,,,,,,,,,,,,,,,,,,,,,,,,,,,,,,,,,,,,,,,,,,,,,,,,,,,,,,,,,,,,,,,,,,,,,,,,,,,,,,,,,,,,,,,,,,,,,,,,,,,,,,,,,17943.293000000005,,form submission,,,,unhealthy,,m&m.png,,,,,,,,,,,,,,,m&m,,,,,,,,,,,,,,,,,,,,,,,,,,,,,,,,,,,,,,,,,,,,,,,,,,,,,,,,,false,,,,,,,,,200509.225,200508.96,182549.021,182549.75999999998,182565.667,200515.673,,,,44
rating_sequence,flow.Sequence,2_4_2_1_6,2021-05-24T15:49:30.979Z,,,,,,,,,,,,,,,,,,,,,,,,,,,,,,,,,,,,,,,,,,,,,,,,,,,,,,,,,,,,,,,,,,,,,,,,,,,,,,,,,,,,,,,,,,,,,,,,,,,,,,,,,,,,,,,,,,,,18442.742999999988,,completion,,,,unhealthy,,m&m.png,,,,,,,,,,,,,,,m&m,,,,,,,,,,,,,,,,,,,,,,,,,,,,,,,,,,,,,,,,,,,,,,,,,,,,,,,,,false,,,,,,,,,200509.54,200508.96,182049.457,182055.00500000006,182066.217,200515.673,,,,
fixCross,canvas.Screen,2_4_2_1_7_0,2021-05-24T15:49:31.469Z,,,,,,,,,,,,,,,,,,,,,,,,,,,,,,,,,,,,,,,,,,,,,,,,,,,,,,,,,,,,,,,,,,,,,,,,,,,,,,,,,,,,,,,,,,,,,,,,,,,,,,,,,,,,,,,,,,,,499.32600000000093,,timeout,,,,unhealthy,,chocolate_truffle.png,,,,,,,,,,,,,,,chocolate truffle,,,,,,,,,,,,,,,,,,,,,,,,,,,,,,,,,,,,,,,,,,,,,,,,,,,,,,,,,false,,,,,,,,,200999.28999999998,200998.342,200499.288,200509.68,200515.673,201014.999,,,,
Rating,html.Form,2_4_2_1_7_1,2021-05-24T15:49:36.042Z,,,,,,,,,,,,,,,,,,,,,,,,,,,,,,,,,,,,,,,,,,,,,,,,,,,,,,,,,,,,,,,,,,,,,,,,,,,,,,,,,,,,,,,,,,,,,,,,,,,,,,,,,,,,,,,,,,,,4557.246000000043,,form submission,,,,unhealthy,,chocolate_truffle.png,,,,,,,,,,,,,,,chocolate truffle,,,,,,,,,,,,,,,,,,,,,,,,,,,,,,,,,,,,,,,,,,,,,,,,,,,,,,,,,false,,,,,,,,,205572.50999999995,205572.24500000005,200998.342,200999.87499999997,201014.999,205577.674,,,,100
rating_sequence,flow.Sequence,2_4_2_1_7,2021-05-24T15:49:36.042Z,,,,,,,,,,,,,,,,,,,,,,,,,,,,,,,,,,,,,,,,,,,,,,,,,,,,,,,,,,,,,,,,,,,,,,,,,,,,,,,,,,,,,,,,,,,,,,,,,,,,,,,,,,,,,,,,,,,,5056.572000000044,,completion,,,,unhealthy,,chocolate_truffle.png,,,,,,,,,,,,,,,chocolate truffle,,,,,,,,,,,,,,,,,,,,,,,,,,,,,,,,,,,,,,,,,,,,,,,,,,,,,,,,,false,,,,,,,,,205572.71500000003,205572.24500000005,200499.288,200509.645,200515.673,205577.674,,,,
fixCross,canvas.Screen,2_4_2_1_8_0,2021-05-24T15:49:36.531Z,,,,,,,,,,,,,,,,,,,,,,,,,,,,,,,,,,,,,,,,,,,,,,,,,,,,,,,,,,,,,,,,,,,,,,,,,,,,,,,,,,,,,,,,,,,,,,,,,,,,,,,,,,,,,,,,,,,,499.2140000000072,,timeout,,,,unhealthy,,gummybear.png,,,,,,,,,,,,,,,gummybear,,,,,,,,,,,,,,,,,,,,,,,,,,,,,,,,,,,,,,,,,,,,,,,,,,,,,,,,,false,,,,,,,,,206061.53000000006,206060.421,205560.738,205572.84500000003,205577.674,206076.888,,,,
Rating,html.Form,2_4_2_1_8_1,2021-05-24T15:49:49.462Z,,,,,,,,,,,,,,,,,,,,,,,,,,,,,,,,,,,,,,,,,,,,,,,,,,,,,,,,,,,,,,,,,,,,,,,,,,,,,,,,,,,,,,,,,,,,,,,,,,,,,,,,,,,,,,,,,,,,12915.767000000022,,form submission,,,,unhealthy,,gummybear.png,,,,,,,,,,,,,,,gummybear,,,,,,,,,,,,,,,,,,,,,,,,,,,,,,,,,,,,,,,,,,,,,,,,,,,,,,,,,false,,,,,,,,,218993.04000000007,218992.65500000003,206060.421,206061.96,206076.888,218998.019,,,,77
rating_sequence,flow.Sequence,2_4_2_1_8,2021-05-24T15:49:49.463Z,,,,,,,,,,,,,,,,,,,,,,,,,,,,,,,,,,,,,,,,,,,,,,,,,,,,,,,,,,,,,,,,,,,,,,,,,,,,,,,,,,,,,,,,,,,,,,,,,,,,,,,,,,,,,,,,,,,,13414.981000000029,,completion,,,,unhealthy,,gummybear.png,,,,,,,,,,,,,,,gummybear,,,,,,,,,,,,,,,,,,,,,,,,,,,,,,,,,,,,,,,,,,,,,,,,,,,,,,,,,false,,,,,,,,,218993.37000000002,218992.65500000003,205560.738,205572.80500000002,205577.674,218998.019,,,,
fixCross,canvas.Screen,2_4_2_1_9_0,2021-05-24T15:49:49.951Z,,,,,,,,,,,,,,,,,,,,,,,,,,,,,,,,,,,,,,,,,,,,,,,,,,,,,,,,,,,,,,,,,,,,,,,,,,,,,,,,,,,,,,,,,,,,,,,,,,,,,,,,,,,,,,,,,,,,499.627999999997,,timeout,,,,healthy,,blueberry.png,,,,,,,,,,,,,,,blueberry,,,,,,,,,,,,,,,,,,,,,,,,,,,,,,,,,,,,,,,,,,,,,,,,,,,,,,,,,false,,,,,,,,,219482.24500000002,219481.084,218981.532,218993.52,218998.019,219497.647,,,,
Rating,html.Form,2_4_2_1_9_1,2021-05-24T15:50:04.225Z,,,,,,,,,,,,,,,,,,,,,,,,,,,,,,,,,,,,,,,,,,,,,,,,,,,,,,,,,,,,,,,,,,,,,,,,,,,,,,,,,,,,,,,,,,,,,,,,,,,,,,,,,,,,,,,,,,,,14258.103000000032,,form submission,,,,healthy,,blueberry.png,,,,,,,,,,,,,,,blueberry,,,,,,,,,,,,,,,,,,,,,,,,,,,,,,,,,,,,,,,,,,,,,,,,,,,,,,,,,false,,,,,,,,,233756.035,233755.75000000003,219481.084,219482.51500000004,219497.647,233767.588,,,,90
rating_sequence,flow.Sequence,2_4_2_1_9,2021-05-24T15:50:04.225Z,,,,,,,,,,,,,,,,,,,,,,,,,,,,,,,,,,,,,,,,,,,,,,,,,,,,,,,,,,,,,,,,,,,,,,,,,,,,,,,,,,,,,,,,,,,,,,,,,,,,,,,,,,,,,,,,,,,,14757.731000000029,,completion,,,,healthy,,blueberry.png,,,,,,,,,,,,,,,blueberry,,,,,,,,,,,,,,,,,,,,,,,,,,,,,,,,,,,,,,,,,,,,,,,,,,,,,,,,,false,,,,,,,,,233756.24000000005,233755.75000000003,218981.532,218993.47499999998,218998.019,233767.588,,,,
fixCross,canvas.Screen,2_4_2_1_10_0,2021-05-24T15:50:04.720Z,,,,,,,,,,,,,,,,,,,,,,,,,,,,,,,,,,,,,,,,,,,,,,,,,,,,,,,,,,,,,,,,,,,,,,,,,,,,,,,,,,,,,,,,,,,,,,,,,,,,,,,,,,,,,,,,,,,,499.58600000001024,,timeout,,,,healthy,,apple.png,,,,,,,,,,,,,,,apple,,,,,,,,,,,,,,,,,,,,,,,,,,,,,,,,,,,,,,,,,,,,,,,,,,,,,,,,,false,,,,,,,,,234251.14500000008,234250.34,233751.039,233756.36499999996,233767.588,234267.174,,,,
Rating,html.Form,2_4_2_1_10_1,2021-05-24T15:50:12.750Z,,,,,,,,,,,,,,,,,,,,,,,,,,,,,,,,,,,,,,,,,,,,,,,,,,,,,,,,,,,,,,,,,,,,,,,,,,,,,,,,,,,,,,,,,,,,,,,,,,,,,,,,,,,,,,,,,,,,8013.531000000017,,form submission,,,,healthy,,apple.png,,,,,,,,,,,,,,,apple,,,,,,,,,,,,,,,,,,,,,,,,,,,,,,,,,,,,,,,,,,,,,,,,,,,,,,,,,false,,,,,,,,,242280.96000000005,242280.70500000002,234250.34,234251.42000000004,234267.174,242292.905,,,,77
rating_sequence,flow.Sequence,2_4_2_1_10,2021-05-24T15:50:12.750Z,,,,,,,,,,,,,,,,,,,,,,,,,,,,,,,,,,,,,,,,,,,,,,,,,,,,,,,,,,,,,,,,,,,,,,,,,,,,,,,,,,,,,,,,,,,,,,,,,,,,,,,,,,,,,,,,,,,,8513.117000000027,,completion,,,,healthy,,apple.png,,,,,,,,,,,,,,,apple,,,,,,,,,,,,,,,,,,,,,,,,,,,,,,,,,,,,,,,,,,,,,,,,,,,,,,,,,false,,,,,,,,,242281.21499999997,242280.70500000002,233751.039,233756.32500000007,233767.588,242292.905,,,,
fixCross,canvas.Screen,2_4_2_1_11_0,2021-05-24T15:50:13.246Z,,,,,,,,,,,,,,,,,,,,,,,,,,,,,,,,,,,,,,,,,,,,,,,,,,,,,,,,,,,,,,,,,,,,,,,,,,,,,,,,,,,,,,,,,,,,,,,,,,,,,,,,,,,,,,,,,,,,499.3960000000079,,timeout,,,,healthy,,pear.png,,,,,,,,,,,,,,,pear,,,,,,,,,,,,,,,,,,,,,,,,,,,,,,,,,,,,,,,,,,,,,,,,,,,,,,,,,false,,,,,,,,,242776.34,242775.774,242276.152,242281.34999999998,242292.905,242792.301,,,,
Rating,html.Form,2_4_2_1_11_1,2021-05-24T15:50:18.568Z,,,,,,,,,,,,,,,,,,,,,,,,,,,,,,,,,,,,,,,,,,,,,,,,,,,,,,,,,,,,,,,,,,,,,,,,,,,,,,,,,,,,,,,,,,,,,,,,,,,,,,,,,,,,,,,,,,,,5306.394,,form submission,,,,healthy,,pear.png,,,,,,,,,,,,,,,pear,,,,,,,,,,,,,,,,,,,,,,,,,,,,,,,,,,,,,,,,,,,,,,,,,,,,,,,,,false,,,,,,,,,248098.97,248098.695,242775.774,242776.515,242792.301,248120.692,,,,77
rating_sequence,flow.Sequence,2_4_2_1_11,2021-05-24T15:50:18.568Z,,,,,,,,,,,,,,,,,,,,,,,,,,,,,,,,,,,,,,,,,,,,,,,,,,,,,,,,,,,,,,,,,,,,,,,,,,,,,,,,,,,,,,,,,,,,,,,,,,,,,,,,,,,,,,,,,,,,5805.790000000008,,completion,,,,healthy,,pear.png,,,,,,,,,,,,,,,pear,,,,,,,,,,,,,,,,,,,,,,,,,,,,,,,,,,,,,,,,,,,,,,,,,,,,,,,,,false,,,,,,,,,248099.18000000005,248098.695,242276.152,242281.30499999996,242292.905,248120.692,,,,
fixCross,canvas.Screen,2_4_2_1_12_0,2021-05-24T15:50:19.074Z,,,,,,,,,,,,,,,,,,,,,,,,,,,,,,,,,,,,,,,,,,,,,,,,,,,,,,,,,,,,,,,,,,,,,,,,,,,,,,,,,,,,,,,,,,,,,,,,,,,,,,,,,,,,,,,,,,,,499.49099999998,,timeout,,,,healthy,,strawberry.png,,,,,,,,,,,,,,,strawberry,,,,,,,,,,,,,,,,,,,,,,,,,,,,,,,,,,,,,,,,,,,,,,,,,,,,,,,,,false,,,,,,,,,248604.465,248603.564,248104.015,248099.31000000006,248120.692,248620.183,,,,
Rating,html.Form,2_4_2_1_12_1,2021-05-24T15:50:23.184Z,,,,,,,,,,,,,,,,,,,,,,,,,,,,,,,,,,,,,,,,,,,,,,,,,,,,,,,,,,,,,,,,,,,,,,,,,,,,,,,,,,,,,,,,,,,,,,,,,,,,,,,,,,,,,,,,,,,,4094.06700000001,,form submission,,,,healthy,,strawberry.png,,,,,,,,,,,,,,,strawberry,,,,,,,,,,,,,,,,,,,,,,,,,,,,,,,,,,,,,,,,,,,,,,,,,,,,,,,,,false,,,,,,,,,252714.65999999997,252714.25,248603.564,248604.83999999997,248620.183,252716.28,,,,100
rating_sequence,flow.Sequence,2_4_2_1_12,2021-05-24T15:50:23.184Z,,,,,,,,,,,,,,,,,,,,,,,,,,,,,,,,,,,,,,,,,,,,,,,,,,,,,,,,,,,,,,,,,,,,,,,,,,,,,,,,,,,,,,,,,,,,,,,,,,,,,,,,,,,,,,,,,,,,4593.55799999999,,completion,,,,healthy,,strawberry.png,,,,,,,,,,,,,,,strawberry,,,,,,,,,,,,,,,,,,,,,,,,,,,,,,,,,,,,,,,,,,,,,,,,,,,,,,,,,false,,,,,,,,,252715.08000000005,252714.25,248104.015,248099.27000000005,248120.692,252716.28,,,,
fixCross,canvas.Screen,2_4_2_1_13_0,2021-05-24T15:50:23.669Z,,,,,,,,,,,,,,,,,,,,,,,,,,,,,,,,,,,,,,,,,,,,,,,,,,,,,,,,,,,,,,,,,,,,,,,,,,,,,,,,,,,,,,,,,,,,,,,,,,,,,,,,,,,,,,,,,,,,499.5340000000142,,timeout,,,,unhealthy,,marshmallow.png,,,,,,,,,,,,,,,marshmallow,,,,,,,,,,,,,,,,,,,,,,,,,,,,,,,,,,,,,,,,,,,,,,,,,,,,,,,,,false,,,,,,,,,253200.18500000003,253199.307,252699.731,252715.335,252716.28,253215.814,,,,
Rating,html.Form,2_4_2_1_13_1,2021-05-24T15:50:28.328Z,,,,,,,,,,,,,,,,,,,,,,,,,,,,,,,,,,,,,,,,,,,,,,,,,,,,,,,,,,,,,,,,,,,,,,,,,,,,,,,,,,,,,,,,,,,,,,,,,,,,,,,,,,,,,,,,,,,,4642.601000000024,,form submission,,,,unhealthy,,marshmallow.png,,,,,,,,,,,,,,,marshmallow,,,,,,,,,,,,,,,,,,,,,,,,,,,,,,,,,,,,,,,,,,,,,,,,,,,,,,,,,false,,,,,,,,,257858.65999999997,257858.41500000004,253199.307,253200.58500000005,253215.814,257861.418,,,,62
rating_sequence,flow.Sequence,2_4_2_1_13,2021-05-24T15:50:28.328Z,,,,,,,,,,,,,,,,,,,,,,,,,,,,,,,,,,,,,,,,,,,,,,,,,,,,,,,,,,,,,,,,,,,,,,,,,,,,,,,,,,,,,,,,,,,,,,,,,,,,,,,,,,,,,,,,,,,,5142.135000000038,,completion,,,,unhealthy,,marshmallow.png,,,,,,,,,,,,,,,marshmallow,,,,,,,,,,,,,,,,,,,,,,,,,,,,,,,,,,,,,,,,,,,,,,,,,,,,,,,,,false,,,,,,,,,257858.84499999997,257858.41500000004,252699.731,252715.26000000007,252716.28,257861.418,,,,
fixCross,canvas.Screen,2_4_2_1_14_0,2021-05-24T15:50:28.814Z,,,,,,,,,,,,,,,,,,,,,,,,,,,,,,,,,,,,,,,,,,,,,,,,,,,,,,,,,,,,,,,,,,,,,,,,,,,,,,,,,,,,,,,,,,,,,,,,,,,,,,,,,,,,,,,,,,,,499.5350000000035,,timeout,,,,healthy,,raspberry.png,,,,,,,,,,,,,,,raspberry,,,,,,,,,,,,,,,,,,,,,,,,,,,,,,,,,,,,,,,,,,,,,,,,,,,,,,,,,false,,,,,,,,,258344.95000000004,258344.334,257844.804,257858.96000000002,257861.418,258360.953,,,,
Rating,html.Form,2_4_2_1_14_1,2021-05-24T15:50:32.747Z,,,,,,,,,,,,,,,,,,,,,,,,,,,,,,,,,,,,,,,,,,,,,,,,,,,,,,,,,,,,,,,,,,,,,,,,,,,,,,,,,,,,,,,,,,,,,,,,,,,,,,,,,,,,,,,,,,,,3916.7419999999984,,form submission,,,,healthy,,raspberry.png,,,,,,,,,,,,,,,raspberry,,,,,,,,,,,,,,,,,,,,,,,,,,,,,,,,,,,,,,,,,,,,,,,,,,,,,,,,,false,,,,,,,,,262277.9800000001,262277.695,258344.334,258345.18000000002,258360.953,262290.68,,,,100
rating_sequence,flow.Sequence,2_4_2_1_14,2021-05-24T15:50:32.747Z,,,,,,,,,,,,,,,,,,,,,,,,,,,,,,,,,,,,,,,,,,,,,,,,,,,,,,,,,,,,,,,,,,,,,,,,,,,,,,,,,,,,,,,,,,,,,,,,,,,,,,,,,,,,,,,,,,,,4416.277000000002,,completion,,,,healthy,,raspberry.png,,,,,,,,,,,,,,,raspberry,,,,,,,,,,,,,,,,,,,,,,,,,,,,,,,,,,,,,,,,,,,,,,,,,,,,,,,,,false,,,,,,,,,262278.185,262277.695,257844.804,257858.92,257861.418,262290.68,,,,
fixCross,canvas.Screen,2_4_2_1_15_0,2021-05-24T15:50:33.243Z,,,,,,,,,,,,,,,,,,,,,,,,,,,,,,,,,,,,,,,,,,,,,,,,,,,,,,,,,,,,,,,,,,,,,,,,,,,,,,,,,,,,,,,,,,,,,,,,,,,,,,,,,,,,,,,,,,,,499.5219999999972,,timeout,,,,unhealthy,,maltesers.png,,,,,,,,,,,,,,,malteser,,,,,,,,,,,,,,,,,,,,,,,,,,,,,,,,,,,,,,,,,,,,,,,,,,,,,,,,,false,,,,,,,,,262774.25500000006,262773.636,262274.105,262278.32999999996,262290.68,262790.202,,,,
Rating,html.Form,2_4_2_1_15_1,2021-05-24T15:50:49.336Z,,,,,,,,,,,,,,,,,,,,,,,,,,,,,,,,,,,,,,,,,,,,,,,,,,,,,,,,,,,,,,,,,,,,,,,,,,,,,,,,,,,,,,,,,,,,,,,,,,,,,,,,,,,,,,,,,,,,16076.718000000052,,form submission,,,,unhealthy,,maltesers.png,,,,,,,,,,,,,,,malteser,,,,,,,,,,,,,,,,,,,,,,,,,,,,,,,,,,,,,,,,,,,,,,,,,,,,,,,,,false,,,,,,,,,278867.23000000004,278866.92000000004,262773.636,262774.405,262790.202,278875.126,,,,39
rating_sequence,flow.Sequence,2_4_2_1_15,2021-05-24T15:50:49.337Z,,,,,,,,,,,,,,,,,,,,,,,,,,,,,,,,,,,,,,,,,,,,,,,,,,,,,,,,,,,,,,,,,,,,,,,,,,,,,,,,,,,,,,,,,,,,,,,,,,,,,,,,,,,,,,,,,,,,16576.24000000005,,completion,,,,unhealthy,,maltesers.png,,,,,,,,,,,,,,,malteser,,,,,,,,,,,,,,,,,,,,,,,,,,,,,,,,,,,,,,,,,,,,,,,,,,,,,,,,,false,,,,,,,,,278867.4550000001,278866.92000000004,262274.105,262278.285,262290.68,278875.126,,,,
fixCross,canvas.Screen,2_4_2_1_16_0,2021-05-24T15:50:49.828Z,,,,,,,,,,,,,,,,,,,,,,,,,,,,,,,,,,,,,,,,,,,,,,,,,,,,,,,,,,,,,,,,,,,,,,,,,,,,,,,,,,,,,,,,,,,,,,,,,,,,,,,,,,,,,,,,,,,,499.37200000003213,,timeout,,,,healthy,,orange.png,,,,,,,,,,,,,,,orange,,,,,,,,,,,,,,,,,,,,,,,,,,,,,,,,,,,,,,,,,,,,,,,,,,,,,,,,,false,,,,,,,,,279358.2650000001,279357.868,278858.356,278867.61,278875.126,279374.498,,,,
Rating,html.Form,2_4_2_1_16_1,2021-05-24T15:50:54.949Z,,,,,,,,,,,,,,,,,,,,,,,,,,,,,,,,,,,,,,,,,,,,,,,,,,,,,,,,,,,,,,,,,,,,,,,,,,,,,,,,,,,,,,,,,,,,,,,,,,,,,,,,,,,,,,,,,,,,5104.722000000009,,form submission,,,,healthy,,orange.png,,,,,,,,,,,,,,,orange,,,,,,,,,,,,,,,,,,,,,,,,,,,,,,,,,,,,,,,,,,,,,,,,,,,,,,,,,false,,,,,,,,,284479.56,284479.22000000003,279357.868,279358.3550000001,279374.498,284503.066,,,,100
rating_sequence,flow.Sequence,2_4_2_1_16,2021-05-24T15:50:54.949Z,,,,,,,,,,,,,,,,,,,,,,,,,,,,,,,,,,,,,,,,,,,,,,,,,,,,,,,,,,,,,,,,,,,,,,,,,,,,,,,,,,,,,,,,,,,,,,,,,,,,,,,,,,,,,,,,,,,,5604.094000000041,,completion,,,,healthy,,orange.png,,,,,,,,,,,,,,,orange,,,,,,,,,,,,,,,,,,,,,,,,,,,,,,,,,,,,,,,,,,,,,,,,,,,,,,,,,false,,,,,,,,,284479.795,284479.22000000003,278858.356,278867.56,278875.126,284503.066,,,,
fixCross,canvas.Screen,2_4_2_1_17_0,2021-05-24T15:50:55.457Z,,,,,,,,,,,,,,,,,,,,,,,,,,,,,,,,,,,,,,,,,,,,,,,,,,,,,,,,,,,,,,,,,,,,,,,,,,,,,,,,,,,,,,,,,,,,,,,,,,,,,,,,,,,,,,,,,,,,499.5470000000205,,timeout,,,,unhealthy,,liqorice.png,,,,,,,,,,,,,,,liquorice,,,,,,,,,,,,,,,,,,,,,,,,,,,,,,,,,,,,,,,,,,,,,,,,,,,,,,,,,false,,,,,,,,,284987.26999999996,284986.09,284486.478,284479.96499999997,284503.066,285002.613,,,,
Rating,html.Form,2_4_2_1_17_1,2021-05-24T15:51:00.692Z,,,,,,,,,,,,,,,,,,,,,,,,,,,,,,,,,,,,,,,,,,,,,,,,,,,,,,,,,,,,,,,,,,,,,,,,,,,,,,,,,,,,,,,,,,,,,,,,,,,,,,,,,,,,,,,,,,,,5220.132000000041,,form submission,,,,unhealthy,,liqorice.png,,,,,,,,,,,,,,,liquorice,,,,,,,,,,,,,,,,,,,,,,,,,,,,,,,,,,,,,,,,,,,,,,,,,,,,,,,,,false,,,,,,,,,290223.0900000001,290222.74500000005,284986.09,284987.54,285002.613,290247.612,,,,0
rating_sequence,flow.Sequence,2_4_2_1_17,2021-05-24T15:51:00.693Z,,,,,,,,,,,,,,,,,,,,,,,,,,,,,,,,,,,,,,,,,,,,,,,,,,,,,,,,,,,,,,,,,,,,,,,,,,,,,,,,,,,,,,,,,,,,,,,,,,,,,,,,,,,,,,,,,,,,5719.679000000062,,completion,,,,unhealthy,,liqorice.png,,,,,,,,,,,,,,,liquorice,,,,,,,,,,,,,,,,,,,,,,,,,,,,,,,,,,,,,,,,,,,,,,,,,,,,,,,,,false,,,,,,,,,290223.355,290222.74500000005,284486.478,284479.905,284503.066,290247.612,,,,
rating_loop,flow.Loop,2_4_2_1,2021-05-24T15:51:00.693Z,,,,,,,,,,,,,,,,,,,,,,,,,,,,,,,,,,,,,,,,,,,,,,,,,,,,,,,,,,,,,,,,,,,,,,,,,,,,,,,,,,,,,,,,,,,,,,,,,,,,,,,,,,,,,,,,,,,,169448.91700000007,,completion,,,,,,,,,,,,,,,,,,,,,,,,,,,,,,,,,,,,,,,,,,,,,,,,,,,,,,,,,,,,,,,,,,,,,,,,,,,,,,false,,,,,,,,,290223.57499999995,290222.74500000005,120757.235,120769.64500000002,120773.828,290247.612,,,,
data_transmission,html.Screen,2_4_2_2,2021-05-24T15:51:00.705Z,,,,,,,,,,,,,,,,,,,,,,,,,,,,,,,,,,,,,,,,,,,,,,,,,,,,,,,,,,,,,,,,,,,,,,,,,,,,,,,,,,,,,,,,,,,,,,,,,,,,,,,,,,,,,,,,,,,,NaN,,no compatible backend,,,,,,,,,,,,,,,Transferring data,,,,,,,,,,,,,,,,,,,,,,,,,,,,,,,,,,,,,,,,,,,,,,,,,,,,,,,,,,,,,,,false,,,Please wait a second…,,,,,,290235.45,290235.265,,290223.705,,290247.612,,,,
instructions,html.Screen,2_4_2_3,2021-05-24T15:52:50.708Z,,,,,,,,,,,,,,,,,,,,,,,,,,,,,,,,,,,,,,,,,,,,,,,,,,,,,,,,,,,,,,,,,,,,,,,,,,,,,,,,,,,,,,,,,,,,,,,,,,,,,,,,,,,,,,,,,,,,109990.11300000007,,done,,,,,,,,,,,,,,,,,,,,,,,,,,,,,,,,,,,,,,,,,,,,,,,,,,,,,,,,,,,,,,,,,,,,,,,,,,,,,,false,,,,,,,,,400238.115,400237.7250000001,290230.965,290235.57000000007,290247.612,400244.071,,,,
Q1,html.Screen,2_4_2_4_0,2021-05-24T15:52:57.434Z,,,,,,,,,,,,,,,,,,,,,,,,,,,,,,,,,,,,,,,,,,,,,,,,,,,,,,,,,,,,,,,,,,,,,,,,,,,,,,,,,,,,,,,,,,,,,,,,,,,,,,,,,,,,,,,,false,input_Q1==3,,,6716.694000000018,,response,,,,,,,,,,,,,,,,,,,,,,,,,Q1_i3,Q1_i1,Q1_i4,Q1_i2,3,1,4,2,correct,false,false,false,,,,,,,,,,,,,,,,,,,,,,,,,,,,,,,,,,,,,,,,,click #Q1_i3,false,,,,,,,,,406964.36500000005,406960.765,400227.609,400238.41000000003,400244.071,406971.093,,,,
Q1_correct,html.Screen,2_4_2_4_1,2021-05-24T15:52:58.622Z,,,,,,,,,,,,,,,,,,,,,,,,,,,,,,,,,,,,,,,,,,,,,,,,,,,,,,,,,,,,,,,,,,,,,,,,,,,,,,,,,,,,,,,,,,,,,,,,,,,,,,,,,,,,,,,,,,,,1180.2870000000112,,response,,,,,,,,,,,,,,,,,,,,,,,,,,,,,,,,,,,,,,,,,,,,,,,,,,,,,,,,,,,,,,,,,,,,,,,,,,,,,keypress,false,,,,,,,,,408152.43,408151.38,406954.589,406964.52,406971.093,408169.964,,,,
Q2,html.Screen,2_4_2_4_2,2021-05-24T15:53:03.077Z,,,,,,,,,,,,,,,,,,,,,,,,,,,,,,,,,,,,,,,,,,,,,,,,,,,,,,,,,,,,,,,,,,,,,,,,,,,,,,,,,,,,,,,,,,,,,,,,,,,,,,,,,,,,,,,,,,,,4435.386000000057,,response,,,,,,,,,,,,,,,,,,,,,,,,,,,,,,,,,,,,,Q2_i3,Q2_i1,Q2_i2,Same amount,Option 1,Option 2,same,correct,opt2,,,,,,,,,,,,,,,,,,,,,,,,,,,,,,,,click #Q2_i1,false,,,,,,,,,412606.92500000005,412605.35000000003,408153.536,408152.7050000001,408169.964,412616.001,,,,
Q2_correct,html.Screen,2_4_2_4_3,2021-05-24T15:53:03.943Z,,,,,,,,,,,,,,,,,,,,,,,,,,,,,,,,,,,,,,,,,,,,,,,,,,,,,,,,,,,,,,,,,,,,,,,,,,,,,,,,,,,,,,,,,,,,,,,,,,,,,,,,,,,,,,,,,,,,855.6190000000643,,response,,,,,,,,,,,,,,,,,,,,,,,,,,,,,,,,,,,,,,,,,,,,,,,,,,,,,,,,,,,,,,,,,,,,,,,,,,,,,keypress,false,,,,,,,,,413472.985,413471.62000000005,412599.358,412607.05000000005,412616.001,413481.649,,,,
Q4,html.Screen,2_4_2_4_4,2021-05-24T15:53:10.274Z,,,,,,,,,,,,,,,,,,,,,,,,,,,,,,,,,,,,,,,,,,,,,,,,,,,,,,,,,,,,,,,,,,,,,,,,,,,,,,,,,,,,,,,,,,,,,,,,,,,,,,,,,,,,,,,,,,,,6318.901000000071,,response,,,,,,,,,,,,,,,,,,,,,,,,,,,,,,,,,,,,,,,,,,,,,,Q4_i1,Q4_i3,Q4_i4,Q4_i2,Press the arrow key that corresponds with the snack option I prefer,Press the arrow key that corresponds with the snack option with more food items,Press the space key,Indicate the number of food items in each snack option,correct,morefood,pressspace,indicate,,,,,,,,,,,,,,,,,,,,click #Q4_i1,false,,,,,,,,,419803.85000000003,419800.55000000005,413465.132,413473.21499999997,413481.649,419808.98,,,,
Q4_correct,html.Screen,2_4_2_4_5,2021-05-24T15:53:11.196Z,,,,,,,,,,,,,,,,,,,,,,,,,,,,,,,,,,,,,,,,,,,,,,,,,,,,,,,,,,,,,,,,,,,,,,,,,,,,,,,,,,,,,,,,,,,,,,,,,,,,,,,,,,,,,,,,,,,,915.9350000000559,,response,,,,,,,,,,,,,,,,,,,,,,,,,,,,,,,,,,,,,,,,,,,,,,,,,,,,,,,,,,,,,,,,,,,,,,,,,,,,,keypress,false,,,,,,,,,420726.00999999995,420724.91500000004,419792.536,419804.155,419808.98,420741.474,,,,
Q5,html.Screen,2_4_2_4_6,2021-05-24T15:53:29.258Z,,,,,,,,,,,,,,,,,,,,,,,,,,,,,,,,,,,,,,,,,,,,,,,,,,,,,,,,,,,,,,,,,,,,,,,,,,,,,,,,,,,,,,,,,,,,,,,,,,,,,,,,,,,,,,,,,,,,18044.81600000005,,response,,,,,,,,,,,,,,,,,,,,,,,,,,,,,,,,,,,,,,,,,,,,,,,,,,,,,,,,,,Q5_i2,Q5_i3,Q5_i4,Q5_i1,There are more pieces of chocolate in snack Option 2,There are more slices of kiwi in snack Option 1,Snack Option 1 has been chosen,Snack Option 2 has been chosen,morechoc2,morekiwi1,chose1,correct,,,,,,,,click #Q5_i1,false,,,,,,,,,438788.17000000004,438786.29000000004,420724.877,420726.24000000005,420741.474,438791.077,,,,
Q5_correct,html.Screen,2_4_2_4_7,2021-05-24T15:53:30.112Z,,,,,,,,,,,,,,,,,,,,,,,,,,,,,,,,,,,,,,,,,,,,,,,,,,,,,,,,,,,,,,,,,,,,,,,,,,,,,,,,,,,,,,,,,,,,,,,,,,,,,,,,,,,,,,,,,,,,849.8430000000517,,response,,,,,,,,,,,,,,,,,,,,,,,,,,,,,,,,,,,,,,,,,,,,,,,,,,,,,,,,,,,,,,,,,,,,,,,,,,,,,keypress,false,,,,,,,,,439642.63000000006,439640.92000000004,438774.67,438788.325,438791.077,439656.977,,,,
practice_sequence,flow.Sequence,2_4_2_4,2021-05-24T15:53:30.113Z,,,,,,,,,,,,,,,,,,,,,,,,,,,,,,,,,,,,,,,,,,,,,,,,,,,,,,,,,,,,,,,,,,,,,,,,,,,,,,,,,,,,,,,,,,,,,,,,,,,,,,,,,,,,,,,,,,,,39396.849000000046,,completion,,,,,,,,,,,,,,,,,,,,,,,,,,,,,,,,,,,,,,,,,,,,,,,,,,,,,,,,,,,,,,,,,,,,,,,,,,,,,,false,,,,,,,,,439643.4750000001,439640.92000000004,400227.609,400238.33,400244.071,439656.977,,,,
final_instru,html.Screen,2_4_2_5,2021-05-24T15:53:50.718Z,,,,,,,,,,,,,,,,,,,,,,,,,,,,,,,,,,,,,,,,,,,,,,,,,,,,,,,,,,,,,,,,,,,,,,,,,,,,,,,,,,,,,,,,,,,,,,,,,,,,,,,,,,,,,,,,,,,,20590.88300000003,,done,,,,,,,,,,,,,,,,,,,,,,,,,,,,,,,,,,,,,,,,,,,,,,,,,,,,,,,,,,,,,,,,,,,,,,,,,,,,,,false,,,,,,,,,460248.245,460247.86000000004,439640.59,439643.86000000004,439656.977,460254.316,,,,
blank_screen,canvas.Screen,2_4_2_6_0,2021-05-24T15:53:52.706Z,,,,,,,,,,,,,,,,,,,,,,,,,,,,,,,,,,,,,,,,,,,,,,,,,,,,,,,,,,,,,,,,,,,,,,,,,,,,,,,,,,,,,,,,,,,,,,,,,,,,,,,,,,,,,,,,,,,,2047.9799999999814,,timeout,,,,,,,,,,,,,,,,,,,,,,,,,,,,,,,,,,,,,,,,,,,,,,,,,,,,,,,,,,,,,,,,,,,,,,,,,,,,,,false,,,,,,,,,462236.6450000001,462235.753,460238.43,460248.55000000005,460254.316,462302.296,,,,
fixCross,canvas.Screen,2_4_2_6_1_0_0_0_0_0_0,2021-05-24T15:53:53.407Z,,,blank.png,blank.png,blank.png,blank.png,blank.png,blank.png,blank.png,"[""chocolate_truffle.png""]",blank.png,blank.png,blank.png,blank.png,blank.png,,,,,,,,,,,,,,,,,,,,,,,,,,,,,"[""chocolate_truffle.png""]","[""strawberry.png""]",PB18.png,,,,,,,,,,,0,6,"[""strawberry.png""]","[""strawberry.png""]","[""strawberry.png""]","[""strawberry.png""]","[""strawberry.png""]","[""strawberry.png""]",blank.png,PB18.png,PB16.png,"[""strawberry.png""]","[""strawberry.png""]","[""strawberry.png""]","[""strawberry.png""]","[""strawberry.png""]","[""strawberry.png""]","[""strawberry.png""]","[""strawberry.png""]","[""strawberry.png""]","[""strawberry.png""]","[""strawberry.png""]",blank.png,1,"[""chocolate_truffle.png""]",blank.png,blank.png,blank.png,5,"[""strawberry.png""]","[""strawberry.png""]","[""strawberry.png""]","[""strawberry.png""]","[""strawberry.png""]",blank.png,PB16.png,,,,,,,,,,,1,,,,,,,,,,,,,1198.9130000000005,,timeout,,,,,,,,,,,,,4,,,,,,,,,,,,,,,,,,,,,,,,,,,,,,,,,,,,,,,,,,,,,,,,,,,,,,,,,"[""strawberry.png""]","[""chocolate_truffle.png""]",,,,3,,,false,,1,,,,,,,462937.725,462935.174,462235.753,462300.52499999997,462302.296,463501.209,1,,,
timeout,canvas.Screen,2_4_2_6_1_0_0_0_0_0_1,2021-05-24T15:53:54.455Z,,,blank.png,blank.png,blank.png,blank.png,blank.png,blank.png,blank.png,"[""chocolate_truffle.png""]",blank.png,blank.png,blank.png,blank.png,blank.png,,,,,,,,,,,,,,,,,,,,,,,,,,,,,"[""chocolate_truffle.png""]","[""strawberry.png""]",PB18.png,,,,,,,,,,,0,6,"[""strawberry.png""]","[""strawberry.png""]","[""strawberry.png""]","[""strawberry.png""]","[""strawberry.png""]","[""strawberry.png""]",blank.png,PB18.png,PB16.png,"[""strawberry.png""]","[""strawberry.png""]","[""strawberry.png""]","[""strawberry.png""]","[""strawberry.png""]","[""strawberry.png""]","[""strawberry.png""]","[""strawberry.png""]","[""strawberry.png""]","[""strawberry.png""]","[""strawberry.png""]",blank.png,1,"[""chocolate_truffle.png""]",blank.png,blank.png,blank.png,5,"[""strawberry.png""]","[""strawberry.png""]","[""strawberry.png""]","[""strawberry.png""]","[""strawberry.png""]",blank.png,PB16.png,,,,,,,,,,,1,,,,,,,,,,,,,1182.1920000000391,,timeout,,,,,,,,,,,,,4,,,,,,,,,,,,,,,,,,,,,,,,,,,,,,,,,,,,,,,,,,,,,,,,,,,,,,,,,"[""strawberry.png""]","[""chocolate_truffle.png""]",,,,3,,,false,,1,,,,,,,463985.45,463984.234,462935.174,463635.63,463501.209,464683.401,,,,
choice,canvas.Screen,2_4_2_6_1_0_0_0_0_0_2,2021-05-24T15:54:04.463Z,,,blank.png,blank.png,blank.png,blank.png,blank.png,blank.png,blank.png,"[""chocolate_truffle.png""]",blank.png,blank.png,blank.png,blank.png,blank.png,,,,,,,,,,,,,,,,,,,,,,,,,,,,,"[""chocolate_truffle.png""]","[""strawberry.png""]",PB18.png,,,,,,,,,,,0,6,"[""strawberry.png""]","[""strawberry.png""]","[""strawberry.png""]","[""strawberry.png""]","[""strawberry.png""]","[""strawberry.png""]",blank.png,PB18.png,PB16.png,"[""strawberry.png""]","[""strawberry.png""]","[""strawberry.png""]","[""strawberry.png""]","[""strawberry.png""]","[""strawberry.png""]","[""strawberry.png""]","[""strawberry.png""]","[""strawberry.png""]","[""strawberry.png""]","[""strawberry.png""]",blank.png,1,"[""chocolate_truffle.png""]",blank.png,blank.png,blank.png,5,"[""strawberry.png""]","[""strawberry.png""]","[""strawberry.png""]","[""strawberry.png""]","[""strawberry.png""]",blank.png,PB16.png,,,,,,,,,,,1,,,,,,,,,,,,,9303.969000000041,,response,,,,,,,,,,,,,4,,,,,,,,,,,,,,,,,,,,,,,,,,,,,,,,,,,,,,,,,,,,,,,,,,,,,,,,,"[""strawberry.png""]","[""chocolate_truffle.png""]",,,,3,right,keydown(ArrowRight),false,,1,,,,,,,473993.3450000001,473987.37000000005,463984.234,464697.12000000005,464683.401,474690.701,,1,,
square,canvas.Screen,2_4_2_6_1_0_0_0_0_0_3,2021-05-24T15:54:06.145Z,,,blank.png,blank.png,blank.png,blank.png,blank.png,blank.png,blank.png,"[""chocolate_truffle.png""]",blank.png,blank.png,blank.png,blank.png,blank.png,,,,,,,,,,,,,,,,,,,,,,,,,,,,,"[""chocolate_truffle.png""]","[""strawberry.png""]",PB18.png,,,,,,,,,,,0,6,"[""strawberry.png""]","[""strawberry.png""]","[""strawberry.png""]","[""strawberry.png""]","[""strawberry.png""]","[""strawberry.png""]",blank.png,PB18.png,PB16.png,"[""strawberry.png""]","[""strawberry.png""]","[""strawberry.png""]","[""strawberry.png""]","[""strawberry.png""]","[""strawberry.png""]","[""strawberry.png""]","[""strawberry.png""]","[""strawberry.png""]","[""strawberry.png""]","[""strawberry.png""]",blank.png,1,"[""chocolate_truffle.png""]",blank.png,blank.png,blank.png,5,"[""strawberry.png""]","[""strawberry.png""]","[""strawberry.png""]","[""strawberry.png""]","[""strawberry.png""]",blank.png,PB16.png,,,,,,,,,,,1,,,#808080,#33ff3f,,,,,,,,,999.0189999999711,,timeout,,,,,,,,,,,,,4,,,,,,,,,,,,,,,,,,,,,,,,,,,,,,,,,,,,,,,,,,,,,,,,,,,,,,,,,"[""strawberry.png""]","[""chocolate_truffle.png""]",,,,3,,,false,,1,,,,,white,black,475675.04500000004,475673.068,474657.559,474666.2700000001,474690.701,475689.72,,,,
ITI_late,canvas.Screen,2_4_2_6_1_0_0_0_0_0_4,2021-05-24T15:54:06.893Z,,,blank.png,blank.png,blank.png,blank.png,blank.png,blank.png,blank.png,"[""chocolate_truffle.png""]",blank.png,blank.png,blank.png,blank.png,blank.png,,,,,,,,,,,,,,,,,,,,,,,,,,,,,"[""chocolate_truffle.png""]","[""strawberry.png""]",PB18.png,,,,,,,,,,,0,6,"[""strawberry.png""]","[""strawberry.png""]","[""strawberry.png""]","[""strawberry.png""]","[""strawberry.png""]","[""strawberry.png""]",blank.png,PB18.png,PB16.png,"[""strawberry.png""]","[""strawberry.png""]","[""strawberry.png""]","[""strawberry.png""]","[""strawberry.png""]","[""strawberry.png""]","[""strawberry.png""]","[""strawberry.png""]","[""strawberry.png""]","[""strawberry.png""]","[""strawberry.png""]",blank.png,1,"[""chocolate_truffle.png""]",blank.png,blank.png,blank.png,5,"[""strawberry.png""]","[""strawberry.png""]","[""strawberry.png""]","[""strawberry.png""]","[""strawberry.png""]",blank.png,PB16.png,,,,,,,,,,,1,,,,,,,,,,,,,749.2700000000186,,timeout,,,,,,,,,,,,black,4,,,,,,,,,,,,,,,,,,,,,,,,,,,,,,,,,,,,,,,,,,,,,,,,,,,,,,,,,"[""strawberry.png""]","[""chocolate_truffle.png""]",,,,3,,,false,,1,,,,,,,476423.93500000006,476422.495,475673.068,475681.47,475689.72,476438.99,,,,
choice_sequence,flow.Sequence,2_4_2_6_1_0_0_0_0_0,2021-05-24T15:54:06.895Z,,,blank.png,blank.png,blank.png,blank.png,blank.png,blank.png,blank.png,"[""chocolate_truffle.png""]",blank.png,blank.png,blank.png,blank.png,blank.png,,,,,,,,,,,,,,,,,,,,,,,,,,,,,"[""chocolate_truffle.png""]","[""strawberry.png""]",PB18.png,,,,,,,,,,,0,6,"[""strawberry.png""]","[""strawberry.png""]","[""strawberry.png""]","[""strawberry.png""]","[""strawberry.png""]","[""strawberry.png""]",blank.png,PB18.png,PB16.png,"[""strawberry.png""]","[""strawberry.png""]","[""strawberry.png""]","[""strawberry.png""]","[""strawberry.png""]","[""strawberry.png""]","[""strawberry.png""]","[""strawberry.png""]","[""strawberry.png""]","[""strawberry.png""]","[""strawberry.png""]",blank.png,1,"[""chocolate_truffle.png""]",blank.png,blank.png,blank.png,5,"[""strawberry.png""]","[""strawberry.png""]","[""strawberry.png""]","[""strawberry.png""]","[""strawberry.png""]",blank.png,PB16.png,,,,,,,,,,,1,,,,,,,,,,,,,14120.199000000022,,completion,,,,,,,,,,,,,4,,,,,,,,,,,,,,,,,,,,,,,,,,,,,,,,,,,,,,,,,,,,,,,,,,,,,,,,,"[""strawberry.png""]","[""chocolate_truffle.png""]",,,,3,,,false,,1,,,,,,,476425.115,476422.495,462235.753,462299.07,462302.296,476438.99,,,,
fixCross,canvas.Screen,2_4_2_6_1_0_0_0_0_1_0,2021-05-24T15:54:07.193Z,,,blank.png,"[""chocolate_truffle.png""]",blank.png,blank.png,blank.png,blank.png,blank.png,blank.png,blank.png,blank.png,blank.png,blank.png,blank.png,,,,,,,,,,,,,,,,,,,,,,,,,,,,,"[""chocolate_truffle.png""]","[""strawberry.png""]",PB01.png,,,,,,,,,,,0,6,"[""strawberry.png""]","[""strawberry.png""]","[""strawberry.png""]","[""strawberry.png""]","[""strawberry.png""]","[""strawberry.png""]",blank.png,PB18.png,PB18.png,blank.png,blank.png,blank.png,blank.png,blank.png,blank.png,"[""strawberry.png""]","[""strawberry.png""]","[""strawberry.png""]","[""strawberry.png""]","[""strawberry.png""]","[""strawberry.png""]",1,"[""chocolate_truffle.png""]",blank.png,blank.png,blank.png,0,blank.png,blank.png,blank.png,blank.png,blank.png,blank.png,PB01.png,,,,,,,,,,,1,,,,,,,,,,,,,815.8640000000014,,timeout,,,,,,,,,,,,,3,,,,,,,,,,,,,,,,,,,,,,,,,,,,,,,,,,,,,,,,,,,,,,,,,,,,,,,,,"[""strawberry.png""]","[""chocolate_truffle.png""]",,,,3,,,false,,1,,,,,,,476723.245,476722.138,476422.495,476442.91,476438.99,477254.854,2,,,
timeout,canvas.Screen,2_4_2_6_1_0_0_0_0_1_1,2021-05-24T15:54:08.208Z,,,blank.png,"[""chocolate_truffle.png""]",blank.png,blank.png,blank.png,blank.png,blank.png,blank.png,blank.png,blank.png,blank.png,blank.png,blank.png,,,,,,,,,,,,,,,,,,,,,,,,,,,,,"[""chocolate_truffle.png""]","[""strawberry.png""]",PB01.png,,,,,,,,,,,0,6,"[""strawberry.png""]","[""strawberry.png""]","[""strawberry.png""]","[""strawberry.png""]","[""strawberry.png""]","[""strawberry.png""]",blank.png,PB18.png,PB18.png,blank.png,blank.png,blank.png,blank.png,blank.png,blank.png,"[""strawberry.png""]","[""strawberry.png""]","[""strawberry.png""]","[""strawberry.png""]","[""strawberry.png""]","[""strawberry.png""]",1,"[""chocolate_truffle.png""]",blank.png,blank.png,blank.png,0,blank.png,blank.png,blank.png,blank.png,blank.png,blank.png,PB01.png,,,,,,,,,,,1,,,,,,,,,,,,,999.0819999999949,,timeout,,,,,,,,,,,,,3,,,,,,,,,,,,,,,,,,,,,,,,,,,,,,,,,,,,,,,,,,,,,,,,,,,,,,,,,"[""strawberry.png""]","[""chocolate_truffle.png""]",,,,3,,,false,,1,,,,,,,477738.52,477737.807,476722.138,477261.4550000001,477254.854,478253.936,,,,
choice,canvas.Screen,2_4_2_6_1_0_0_0_0_1_2,2021-05-24T15:54:09.418Z,,,blank.png,"[""chocolate_truffle.png""]",blank.png,blank.png,blank.png,blank.png,blank.png,blank.png,blank.png,blank.png,blank.png,blank.png,blank.png,,,,,,,,,,,,,,,,,,,,,,,,,,,,,"[""chocolate_truffle.png""]","[""strawberry.png""]",PB01.png,,,,,,,,,,,0,6,"[""strawberry.png""]","[""strawberry.png""]","[""strawberry.png""]","[""strawberry.png""]","[""strawberry.png""]","[""strawberry.png""]",blank.png,PB18.png,PB18.png,blank.png,blank.png,blank.png,blank.png,blank.png,blank.png,"[""strawberry.png""]","[""strawberry.png""]","[""strawberry.png""]","[""strawberry.png""]","[""strawberry.png""]","[""strawberry.png""]",1,"[""chocolate_truffle.png""]",blank.png,blank.png,blank.png,0,blank.png,blank.png,blank.png,blank.png,blank.png,blank.png,PB01.png,,,,,,,,,,,1,,,,,,,,,,,,,692.1890000000712,,response,,,,,,,,,,,,,3,,,,,,,,,,,,,,,,,,,,,,,,,,,,,,,,,,,,,,,,,,,,,,,,,,,,,,,,,"[""strawberry.png""]","[""chocolate_truffle.png""]",,,,3,left,keydown(ArrowLeft),false,,1,,,,,,,478948.74500000005,478946.12500000006,477737.807,478245.715,478253.936,479469.478,,2,,
square,canvas.Screen,2_4_2_6_1_0_0_0_0_1_3,2021-05-24T15:54:10.924Z,,,blank.png,"[""chocolate_truffle.png""]",blank.png,blank.png,blank.png,blank.png,blank.png,blank.png,blank.png,blank.png,blank.png,blank.png,blank.png,,,,,,,,,,,,,,,,,,,,,,,,,,,,,"[""chocolate_truffle.png""]","[""strawberry.png""]",PB01.png,,,,,,,,,,,0,6,"[""strawberry.png""]","[""strawberry.png""]","[""strawberry.png""]","[""strawberry.png""]","[""strawberry.png""]","[""strawberry.png""]",blank.png,PB18.png,PB18.png,blank.png,blank.png,blank.png,blank.png,blank.png,blank.png,"[""strawberry.png""]","[""strawberry.png""]","[""strawberry.png""]","[""strawberry.png""]","[""strawberry.png""]","[""strawberry.png""]",1,"[""chocolate_truffle.png""]",blank.png,blank.png,blank.png,0,blank.png,blank.png,blank.png,blank.png,blank.png,blank.png,PB01.png,,,,,,,,,,,1,,,#33ff3f,#808080,,,,,,,,,999.2579999999725,,timeout,,,,,,,,,,,,,3,,,,,,,,,,,,,,,,,,,,,,,,,,,,,,,,,,,,,,,,,,,,,,,,,,,,,,,,,"[""strawberry.png""]","[""chocolate_truffle.png""]",,,,3,,,false,,1,,,,,black,white,480454.13000000006,480452.024,479452.95,479456.08,479469.478,480468.736,,,,
ITI_late,canvas.Screen,2_4_2_6_1_0_0_0_0_1_4,2021-05-24T15:54:12.172Z,,,blank.png,"[""chocolate_truffle.png""]",blank.png,blank.png,blank.png,blank.png,blank.png,blank.png,blank.png,blank.png,blank.png,blank.png,blank.png,,,,,,,,,,,,,,,,,,,,,,,,,,,,,"[""chocolate_truffle.png""]","[""strawberry.png""]",PB01.png,,,,,,,,,,,0,6,"[""strawberry.png""]","[""strawberry.png""]","[""strawberry.png""]","[""strawberry.png""]","[""strawberry.png""]","[""strawberry.png""]",blank.png,PB18.png,PB18.png,blank.png,blank.png,blank.png,blank.png,blank.png,blank.png,"[""strawberry.png""]","[""strawberry.png""]","[""strawberry.png""]","[""strawberry.png""]","[""strawberry.png""]","[""strawberry.png""]",1,"[""chocolate_truffle.png""]",blank.png,blank.png,blank.png,0,blank.png,blank.png,blank.png,blank.png,blank.png,blank.png,PB01.png,,,,,,,,,,,1,,,,,,,,,,,,,1248.6540000000386,,timeout,,,,,,,,,,,,white,3,,,,,,,,,,,,,,,,,,,,,,,,,,,,,,,,,,,,,,,,,,,,,,,,,,,,,,,,,"[""strawberry.png""]","[""chocolate_truffle.png""]",,,,3,,,false,,1,,,,,,,481702.075,481700.698,480452.024,480457.76,480468.736,481717.39,,,,
choice_sequence,flow.Sequence,2_4_2_6_1_0_0_0_0_1,2021-05-24T15:54:12.173Z,,,blank.png,"[""chocolate_truffle.png""]",blank.png,blank.png,blank.png,blank.png,blank.png,blank.png,blank.png,blank.png,blank.png,blank.png,blank.png,,,,,,,,,,,,,,,,,,,,,,,,,,,,,"[""chocolate_truffle.png""]","[""strawberry.png""]",PB01.png,,,,,,,,,,,0,6,"[""strawberry.png""]","[""strawberry.png""]","[""strawberry.png""]","[""strawberry.png""]","[""strawberry.png""]","[""strawberry.png""]",blank.png,PB18.png,PB18.png,blank.png,blank.png,blank.png,blank.png,blank.png,blank.png,"[""strawberry.png""]","[""strawberry.png""]","[""strawberry.png""]","[""strawberry.png""]","[""strawberry.png""]","[""strawberry.png""]",1,"[""chocolate_truffle.png""]",blank.png,blank.png,blank.png,0,blank.png,blank.png,blank.png,blank.png,blank.png,blank.png,PB01.png,,,,,,,,,,,1,,,,,,,,,,,,,5261.707999999984,,completion,,,,,,,,,,,,,3,,,,,,,,,,,,,,,,,,,,,,,,,,,,,,,,,,,,,,,,,,,,,,,,,,,,,,,,,"[""strawberry.png""]","[""chocolate_truffle.png""]",,,,3,,,false,,1,,,,,,,481703.31,481700.698,476422.495,476440.48,476438.99,481717.39,,,,
fixCross,canvas.Screen,2_4_2_6_1_0_0_0_0_2_0,2021-05-24T15:54:12.621Z,,,blank.png,"[""chocolate_truffle.png""]",blank.png,blank.png,blank.png,blank.png,blank.png,blank.png,blank.png,blank.png,blank.png,blank.png,blank.png,,,,,,,,,,,,,,,,,,,,,,,,,,,,,"[""chocolate_truffle.png""]","[""strawberry.png""]",PB15.png,,,,,,,,,,,0,6,"[""strawberry.png""]","[""strawberry.png""]","[""strawberry.png""]","[""strawberry.png""]","[""strawberry.png""]","[""strawberry.png""]",blank.png,PB18.png,PB18.png,"[""strawberry.png""]","[""strawberry.png""]","[""strawberry.png""]","[""strawberry.png""]",blank.png,blank.png,"[""strawberry.png""]","[""strawberry.png""]","[""strawberry.png""]","[""strawberry.png""]","[""strawberry.png""]","[""strawberry.png""]",1,"[""chocolate_truffle.png""]",blank.png,blank.png,blank.png,4,"[""strawberry.png""]","[""strawberry.png""]","[""strawberry.png""]","[""strawberry.png""]",blank.png,blank.png,PB15.png,,,,,,,,,,,1,,,,,,,,,,,,,1098.966000000015,,timeout,,,,,,,,,,,,,3,,,,,,,,,,,,,,,,,,,,,,,,,,,,,,,,,,,,,,,,,,,,,,,,,,,,,,,,,"[""strawberry.png""]","[""chocolate_truffle.png""]",,,,3,,,false,,1,,,,,,,482151.52,482150.444,481700.698,481717.9050000001,481717.39,482816.356,3,,,
timeout,canvas.Screen,2_4_2_6_1_0_0_0_0_2_1,2021-05-24T15:54:13.770Z,,,blank.png,"[""chocolate_truffle.png""]",blank.png,blank.png,blank.png,blank.png,blank.png,blank.png,blank.png,blank.png,blank.png,blank.png,blank.png,,,,,,,,,,,,,,,,,,,,,,,,,,,,,"[""chocolate_truffle.png""]","[""strawberry.png""]",PB15.png,,,,,,,,,,,0,6,"[""strawberry.png""]","[""strawberry.png""]","[""strawberry.png""]","[""strawberry.png""]","[""strawberry.png""]","[""strawberry.png""]",blank.png,PB18.png,PB18.png,"[""strawberry.png""]","[""strawberry.png""]","[""strawberry.png""]","[""strawberry.png""]",blank.png,blank.png,"[""strawberry.png""]","[""strawberry.png""]","[""strawberry.png""]","[""strawberry.png""]","[""strawberry.png""]","[""strawberry.png""]",1,"[""chocolate_truffle.png""]",blank.png,blank.png,blank.png,4,"[""strawberry.png""]","[""strawberry.png""]","[""strawberry.png""]","[""strawberry.png""]",blank.png,blank.png,PB15.png,,,,,,,,,,,1,,,,,,,,,,,,,1132.2519999999786,,timeout,,,,,,,,,,,,,3,,,,,,,,,,,,,,,,,,,,,,,,,,,,,,,,,,,,,,,,,,,,,,,,,,,,,,,,,"[""strawberry.png""]","[""chocolate_truffle.png""]",,,,3,,,false,,1,,,,,,,483300.0400000001,483299.318,482150.444,482823.2750000001,482816.356,483948.608,,,,
choice,canvas.Screen,2_4_2_6_1_0_0_0_0_2_2,2021-05-24T15:54:14.705Z,,,blank.png,"[""chocolate_truffle.png""]",blank.png,blank.png,blank.png,blank.png,blank.png,blank.png,blank.png,blank.png,blank.png,blank.png,blank.png,,,,,,,,,,,,,,,,,,,,,,,,,,,,,"[""chocolate_truffle.png""]","[""strawberry.png""]",PB15.png,,,,,,,,,,,0,6,"[""strawberry.png""]","[""strawberry.png""]","[""strawberry.png""]","[""strawberry.png""]","[""strawberry.png""]","[""strawberry.png""]",blank.png,PB18.png,PB18.png,"[""strawberry.png""]","[""strawberry.png""]","[""strawberry.png""]","[""strawberry.png""]",blank.png,blank.png,"[""strawberry.png""]","[""strawberry.png""]","[""strawberry.png""]","[""strawberry.png""]","[""strawberry.png""]","[""strawberry.png""]",1,"[""chocolate_truffle.png""]",blank.png,blank.png,blank.png,4,"[""strawberry.png""]","[""strawberry.png""]","[""strawberry.png""]","[""strawberry.png""]",blank.png,blank.png,PB15.png,,,,,,,,,,,1,,,,,,,,,,,,,283.60699999995995,,response,,,,,,,,,,,,,3,,,,,,,,,,,,,,,,,,,,,,,,,,,,,,,,,,,,,,,,,,,,,,,,,,,,,,,,,"[""strawberry.png""]","[""chocolate_truffle.png""]",,,,3,left,keydown(ArrowLeft),false,,1,,,,,,,484235.185,484232.21499999997,483299.318,483930.6200000001,483948.608,484881.028,,3,,
square,canvas.Screen,2_4_2_6_1_0_0_0_0_2_3,2021-05-24T15:54:16.334Z,,,blank.png,"[""chocolate_truffle.png""]",blank.png,blank.png,blank.png,blank.png,blank.png,blank.png,blank.png,blank.png,blank.png,blank.png,blank.png,,,,,,,,,,,,,,,,,,,,,,,,,,,,,"[""chocolate_truffle.png""]","[""strawberry.png""]",PB15.png,,,,,,,,,,,0,6,"[""strawberry.png""]","[""strawberry.png""]","[""strawberry.png""]","[""strawberry.png""]","[""strawberry.png""]","[""strawberry.png""]",blank.png,PB18.png,PB18.png,"[""strawberry.png""]","[""strawberry.png""]","[""strawberry.png""]","[""strawberry.png""]",blank.png,blank.png,"[""strawberry.png""]","[""strawberry.png""]","[""strawberry.png""]","[""strawberry.png""]","[""strawberry.png""]","[""strawberry.png""]",1,"[""chocolate_truffle.png""]",blank.png,blank.png,blank.png,4,"[""strawberry.png""]","[""strawberry.png""]","[""strawberry.png""]","[""strawberry.png""]",blank.png,blank.png,PB15.png,,,,,,,,,,,1,,,#33ff3f,#808080,,,,,,,,,999.2119999999995,,timeout,,,,,,,,,,,,,3,,,,,,,,,,,,,,,,,,,,,,,,,,,,,,,,,,,,,,,,,,,,,,,,,,,,,,,,,"[""strawberry.png""]","[""chocolate_truffle.png""]",,,,3,,,false,,1,,,,,black,white,485864.49000000005,485863.565,484864.484,484869.07500000007,484881.028,485880.24,,,,
ITI_late,canvas.Screen,2_4_2_6_1_0_0_0_0_2_4,2021-05-24T15:54:16.584Z,,,blank.png,"[""chocolate_truffle.png""]",blank.png,blank.png,blank.png,blank.png,blank.png,blank.png,blank.png,blank.png,blank.png,blank.png,blank.png,,,,,,,,,,,,,,,,,,,,,,,,,,,,,"[""chocolate_truffle.png""]","[""strawberry.png""]",PB15.png,,,,,,,,,,,0,6,"[""strawberry.png""]","[""strawberry.png""]","[""strawberry.png""]","[""strawberry.png""]","[""strawberry.png""]","[""strawberry.png""]",blank.png,PB18.png,PB18.png,"[""strawberry.png""]","[""strawberry.png""]","[""strawberry.png""]","[""strawberry.png""]",blank.png,blank.png,"[""strawberry.png""]","[""strawberry.png""]","[""strawberry.png""]","[""strawberry.png""]","[""strawberry.png""]","[""strawberry.png""]",1,"[""chocolate_truffle.png""]",blank.png,blank.png,blank.png,4,"[""strawberry.png""]","[""strawberry.png""]","[""strawberry.png""]","[""strawberry.png""]",blank.png,blank.png,PB15.png,,,,,,,,,,,1,,,,,,,,,,,,,249.60700000001816,,timeout,,,,,,,,,,,,white,3,,,,,,,,,,,,,,,,,,,,,,,,,,,,,,,,,,,,,,,,,,,,,,,,,,,,,,,,,"[""strawberry.png""]","[""chocolate_truffle.png""]",,,,3,,,false,,1,,,,,,,486114.54000000004,486113.398,485863.565,485866.58499999996,485880.24,486129.847,,,,
choice_sequence,flow.Sequence,2_4_2_6_1_0_0_0_0_2,2021-05-24T15:54:16.585Z,,,blank.png,"[""chocolate_truffle.png""]",blank.png,blank.png,blank.png,blank.png,blank.png,blank.png,blank.png,blank.png,blank.png,blank.png,blank.png,,,,,,,,,,,,,,,,,,,,,,,,,,,,,"[""chocolate_truffle.png""]","[""strawberry.png""]",PB15.png,,,,,,,,,,,0,6,"[""strawberry.png""]","[""strawberry.png""]","[""strawberry.png""]","[""strawberry.png""]","[""strawberry.png""]","[""strawberry.png""]",blank.png,PB18.png,PB18.png,"[""strawberry.png""]","[""strawberry.png""]","[""strawberry.png""]","[""strawberry.png""]",blank.png,blank.png,"[""strawberry.png""]","[""strawberry.png""]","[""strawberry.png""]","[""strawberry.png""]","[""strawberry.png""]","[""strawberry.png""]",1,"[""chocolate_truffle.png""]",blank.png,blank.png,blank.png,4,"[""strawberry.png""]","[""strawberry.png""]","[""strawberry.png""]","[""strawberry.png""]",blank.png,blank.png,PB15.png,,,,,,,,,,,1,,,,,,,,,,,,,4396.0079999999725,,completion,,,,,,,,,,,,,3,,,,,,,,,,,,,,,,,,,,,,,,,,,,,,,,,,,,,,,,,,,,,,,,,,,,,,,,,"[""strawberry.png""]","[""chocolate_truffle.png""]",,,,3,,,false,,1,,,,,,,486115.575,486113.398,481700.698,481715.66500000004,481717.39,486129.847,,,,
fixCross,canvas.Screen,2_4_2_6_1_0_0_0_0_3_0,2021-05-24T15:54:17.233Z,,,blank.png,blank.png,blank.png,blank.png,blank.png,blank.png,blank.png,"[""chocolate_truffle.png""]",blank.png,blank.png,blank.png,blank.png,blank.png,,,,,,,,,,,,,,,,,,,,,,,,,,,,,"[""chocolate_truffle.png""]","[""strawberry.png""]",PB18.png,,,,,,,,,,,0,6,"[""strawberry.png""]","[""strawberry.png""]","[""strawberry.png""]","[""strawberry.png""]","[""strawberry.png""]","[""strawberry.png""]",blank.png,PB18.png,PB12.png,"[""strawberry.png""]","[""strawberry.png""]","[""strawberry.png""]","[""strawberry.png""]","[""strawberry.png""]","[""strawberry.png""]","[""strawberry.png""]","[""strawberry.png""]",blank.png,blank.png,blank.png,blank.png,1,"[""chocolate_truffle.png""]",blank.png,blank.png,blank.png,2,"[""strawberry.png""]","[""strawberry.png""]",blank.png,blank.png,blank.png,blank.png,PB12.png,,,,,,,,,,,1,,,,,,,,,,,,,1215.5069999999832,,timeout,,,,,,,,,,,,,4,,,,,,,,,,,,,,,,,,,,,,,,,,,,,,,,,,,,,,,,,,,,,,,,,,,,,,,,,"[""strawberry.png""]","[""chocolate_truffle.png""]",,,,3,,,false,,1,,,,,,,486763.88500000007,486762.795,486113.398,486126.805,486129.847,487345.354,4,,,
timeout,canvas.Screen,2_4_2_6_1_0_0_0_0_3_1,2021-05-24T15:54:18.299Z,,,blank.png,blank.png,blank.png,blank.png,blank.png,blank.png,blank.png,"[""chocolate_truffle.png""]",blank.png,blank.png,blank.png,blank.png,blank.png,,,,,,,,,,,,,,,,,,,,,,,,,,,,,"[""chocolate_truffle.png""]","[""strawberry.png""]",PB18.png,,,,,,,,,,,0,6,"[""strawberry.png""]","[""strawberry.png""]","[""strawberry.png""]","[""strawberry.png""]","[""strawberry.png""]","[""strawberry.png""]",blank.png,PB18.png,PB12.png,"[""strawberry.png""]","[""strawberry.png""]","[""strawberry.png""]","[""strawberry.png""]","[""strawberry.png""]","[""strawberry.png""]","[""strawberry.png""]","[""strawberry.png""]",blank.png,blank.png,blank.png,blank.png,1,"[""chocolate_truffle.png""]",blank.png,blank.png,blank.png,2,"[""strawberry.png""]","[""strawberry.png""]",blank.png,blank.png,blank.png,blank.png,PB12.png,,,,,,,,,,,1,,,,,,,,,,,,,1099.0229999999865,,timeout,,,,,,,,,,,,,4,,,,,,,,,,,,,,,,,,,,,,,,,,,,,,,,,,,,,,,,,,,,,,,,,,,,,,,,,"[""strawberry.png""]","[""chocolate_truffle.png""]",,,,3,,,false,,1,,,,,,,487829.645,487828.396,486762.795,487348.82000000007,487345.354,488444.377,,,,
choice,canvas.Screen,2_4_2_6_1_0_0_0_0_3_2,2021-05-24T15:54:19.599Z,,,blank.png,blank.png,blank.png,blank.png,blank.png,blank.png,blank.png,"[""chocolate_truffle.png""]",blank.png,blank.png,blank.png,blank.png,blank.png,,,,,,,,,,,,,,,,,,,,,,,,,,,,,"[""chocolate_truffle.png""]","[""strawberry.png""]",PB18.png,,,,,,,,,,,0,6,"[""strawberry.png""]","[""strawberry.png""]","[""strawberry.png""]","[""strawberry.png""]","[""strawberry.png""]","[""strawberry.png""]",blank.png,PB18.png,PB12.png,"[""strawberry.png""]","[""strawberry.png""]","[""strawberry.png""]","[""strawberry.png""]","[""strawberry.png""]","[""strawberry.png""]","[""strawberry.png""]","[""strawberry.png""]",blank.png,blank.png,blank.png,blank.png,1,"[""chocolate_truffle.png""]",blank.png,blank.png,blank.png,2,"[""strawberry.png""]","[""strawberry.png""]",blank.png,blank.png,blank.png,blank.png,PB12.png,,,,,,,,,,,1,,,,,,,,,,,,,681.5980000000563,,response,,,,,,,,,,,,,4,,,,,,,,,,,,,,,,,,,,,,,,,,,,,,,,,,,,,,,,,,,,,,,,,,,,,,,,,"[""strawberry.png""]","[""chocolate_truffle.png""]",,,,3,right,keydown(ArrowRight),false,,1,,,,,,,489129.64,489125.97500000003,487828.396,488432.055,488444.377,489709.827,,4,,
square,canvas.Screen,2_4_2_6_1_0_0_0_0_3_3,2021-05-24T15:54:21.164Z,,,blank.png,blank.png,blank.png,blank.png,blank.png,blank.png,blank.png,"[""chocolate_truffle.png""]",blank.png,blank.png,blank.png,blank.png,blank.png,,,,,,,,,,,,,,,,,,,,,,,,,,,,,"[""chocolate_truffle.png""]","[""strawberry.png""]",PB18.png,,,,,,,,,,,0,6,"[""strawberry.png""]","[""strawberry.png""]","[""strawberry.png""]","[""strawberry.png""]","[""strawberry.png""]","[""strawberry.png""]",blank.png,PB18.png,PB12.png,"[""strawberry.png""]","[""strawberry.png""]","[""strawberry.png""]","[""strawberry.png""]","[""strawberry.png""]","[""strawberry.png""]","[""strawberry.png""]","[""strawberry.png""]",blank.png,blank.png,blank.png,blank.png,1,"[""chocolate_truffle.png""]",blank.png,blank.png,blank.png,2,"[""strawberry.png""]","[""strawberry.png""]",blank.png,blank.png,blank.png,blank.png,PB12.png,,,,,,,,,,,1,,,#808080,#33ff3f,,,,,,,,,999.1790000000037,,timeout,,,,,,,,,,,,,4,,,,,,,,,,,,,,,,,,,,,,,,,,,,,,,,,,,,,,,,,,,,,,,,,,,,,,,,,"[""strawberry.png""]","[""chocolate_truffle.png""]",,,,3,,,false,,1,,,,,white,black,490694.45000000007,490692.292,489693.254,489696.8400000001,489709.827,490709.006,,,,
ITI_late,canvas.Screen,2_4_2_6_1_0_0_0_0_3_4,2021-05-24T15:54:21.662Z,,,blank.png,blank.png,blank.png,blank.png,blank.png,blank.png,blank.png,"[""chocolate_truffle.png""]",blank.png,blank.png,blank.png,blank.png,blank.png,,,,,,,,,,,,,,,,,,,,,,,,,,,,,"[""chocolate_truffle.png""]","[""strawberry.png""]",PB18.png,,,,,,,,,,,0,6,"[""strawberry.png""]","[""strawberry.png""]","[""strawberry.png""]","[""strawberry.png""]","[""strawberry.png""]","[""strawberry.png""]",blank.png,PB18.png,PB12.png,"[""strawberry.png""]","[""strawberry.png""]","[""strawberry.png""]","[""strawberry.png""]","[""strawberry.png""]","[""strawberry.png""]","[""strawberry.png""]","[""strawberry.png""]",blank.png,blank.png,blank.png,blank.png,1,"[""chocolate_truffle.png""]",blank.png,blank.png,blank.png,2,"[""strawberry.png""]","[""strawberry.png""]",blank.png,blank.png,blank.png,blank.png,PB12.png,,,,,,,,,,,1,,,,,,,,,,,,,499.4180000000051,,timeout,,,,,,,,,,,,white,4,,,,,,,,,,,,,,,,,,,,,,,,,,,,,,,,,,,,,,,,,,,,,,,,,,,,,,,,,"[""strawberry.png""]","[""chocolate_truffle.png""]",,,,3,,,false,,1,,,,,,,491192.92500000005,491191.76,490692.292,490698.71,490709.006,491208.424,,,,
choice_sequence,flow.Sequence,2_4_2_6_1_0_0_0_0_3,2021-05-24T15:54:21.664Z,,,blank.png,blank.png,blank.png,blank.png,blank.png,blank.png,blank.png,"[""chocolate_truffle.png""]",blank.png,blank.png,blank.png,blank.png,blank.png,,,,,,,,,,,,,,,,,,,,,,,,,,,,,"[""chocolate_truffle.png""]","[""strawberry.png""]",PB18.png,,,,,,,,,,,0,6,"[""strawberry.png""]","[""strawberry.png""]","[""strawberry.png""]","[""strawberry.png""]","[""strawberry.png""]","[""strawberry.png""]",blank.png,PB18.png,PB12.png,"[""strawberry.png""]","[""strawberry.png""]","[""strawberry.png""]","[""strawberry.png""]","[""strawberry.png""]","[""strawberry.png""]","[""strawberry.png""]","[""strawberry.png""]",blank.png,blank.png,blank.png,blank.png,1,"[""chocolate_truffle.png""]",blank.png,blank.png,blank.png,2,"[""strawberry.png""]","[""strawberry.png""]",blank.png,blank.png,blank.png,blank.png,PB12.png,,,,,,,,,,,1,,,,,,,,,,,,,5061.9130000000005,,completion,,,,,,,,,,,,,4,,,,,,,,,,,,,,,,,,,,,,,,,,,,,,,,,,,,,,,,,,,,,,,,,,,,,,,,,"[""strawberry.png""]","[""chocolate_truffle.png""]",,,,3,,,false,,1,,,,,,,491194.0450000001,491191.76,486113.398,486124.825,486129.847,491208.424,,,,
fixCross,canvas.Screen,2_4_2_6_1_0_0_0_0_4_0,2021-05-24T15:54:22.212Z,,,blank.png,blank.png,blank.png,blank.png,blank.png,blank.png,blank.png,"[""chocolate_truffle.png""]",blank.png,blank.png,blank.png,blank.png,blank.png,,,,,,,,,,,,,,,,,,,,,,,,,,,,,"[""chocolate_truffle.png""]","[""strawberry.png""]",PB18.png,,,,,,,,,,,0,6,"[""strawberry.png""]","[""strawberry.png""]","[""strawberry.png""]","[""strawberry.png""]","[""strawberry.png""]","[""strawberry.png""]",blank.png,PB18.png,PB14.png,"[""strawberry.png""]","[""strawberry.png""]","[""strawberry.png""]","[""strawberry.png""]","[""strawberry.png""]","[""strawberry.png""]","[""strawberry.png""]","[""strawberry.png""]","[""strawberry.png""]",blank.png,blank.png,blank.png,1,"[""chocolate_truffle.png""]",blank.png,blank.png,blank.png,3,"[""strawberry.png""]","[""strawberry.png""]","[""strawberry.png""]",blank.png,blank.png,blank.png,PB14.png,,,,,,,,,,,1,,,,,,,,,,,,,1132.2249999999767,,timeout,,,,,,,,,,,,,4,,,,,,,,,,,,,,,,,,,,,,,,,,,,,,,,,,,,,,,,,,,,,,,,,,,,,,,,,"[""strawberry.png""]","[""chocolate_truffle.png""]",,,,3,,,false,,1,,,,,,,491742.41500000004,491741.394,491191.76,491212.13,491208.424,492340.649,5,,,
timeout,canvas.Screen,2_4_2_6_1_0_0_0_0_4_1,2021-05-24T15:54:23.294Z,,,blank.png,blank.png,blank.png,blank.png,blank.png,blank.png,blank.png,"[""chocolate_truffle.png""]",blank.png,blank.png,blank.png,blank.png,blank.png,,,,,,,,,,,,,,,,,,,,,,,,,,,,,"[""chocolate_truffle.png""]","[""strawberry.png""]",PB18.png,,,,,,,,,,,0,6,"[""strawberry.png""]","[""strawberry.png""]","[""strawberry.png""]","[""strawberry.png""]","[""strawberry.png""]","[""strawberry.png""]",blank.png,PB18.png,PB14.png,"[""strawberry.png""]","[""strawberry.png""]","[""strawberry.png""]","[""strawberry.png""]","[""strawberry.png""]","[""strawberry.png""]","[""strawberry.png""]","[""strawberry.png""]","[""strawberry.png""]",blank.png,blank.png,blank.png,1,"[""chocolate_truffle.png""]",blank.png,blank.png,blank.png,3,"[""strawberry.png""]","[""strawberry.png""]","[""strawberry.png""]",blank.png,blank.png,blank.png,PB14.png,,,,,,,,,,,1,,,,,,,,,,,,,1132.3680000000168,,timeout,,,,,,,,,,,,,4,,,,,,,,,,,,,,,,,,,,,,,,,,,,,,,,,,,,,,,,,,,,,,,,,,,,,,,,,"[""strawberry.png""]","[""chocolate_truffle.png""]",,,,3,,,false,,1,,,,,,,492824.92000000004,492823.655,491741.394,492347.26,492340.649,493473.017,,,,
choice,canvas.Screen,2_4_2_6_1_0_0_0_0_4_2,2021-05-24T15:54:23.945Z,,,blank.png,blank.png,blank.png,blank.png,blank.png,blank.png,blank.png,"[""chocolate_truffle.png""]",blank.png,blank.png,blank.png,blank.png,blank.png,,,,,,,,,,,,,,,,,,,,,,,,,,,,,"[""chocolate_truffle.png""]","[""strawberry.png""]",PB18.png,,,,,,,,,,,0,6,"[""strawberry.png""]","[""strawberry.png""]","[""strawberry.png""]","[""strawberry.png""]","[""strawberry.png""]","[""strawberry.png""]",blank.png,PB18.png,PB14.png,"[""strawberry.png""]","[""strawberry.png""]","[""strawberry.png""]","[""strawberry.png""]","[""strawberry.png""]","[""strawberry.png""]","[""strawberry.png""]","[""strawberry.png""]","[""strawberry.png""]",blank.png,blank.png,blank.png,1,"[""chocolate_truffle.png""]",blank.png,blank.png,blank.png,3,"[""strawberry.png""]","[""strawberry.png""]","[""strawberry.png""]",blank.png,blank.png,blank.png,PB14.png,,,,,,,,,,,1,,,,,,,,,,,,,605.3849999999511,,response,,,,,,,,,,,,,4,,,,,,,,,,,,,,,,,,,,,,,,,,,,,,,,,,,,,,,,,,,,,,,,,,,,,,,,,"[""strawberry.png""]","[""chocolate_truffle.png""]",,,,3,right,keydown(ArrowRight),false,,1,,,,,,,493475.995,493429.04,492823.655,493457.56500000006,,494089.083,,5,,
square,canvas.Screen,2_4_2_6_1_0_0_0_0_4_3,2021-05-24T15:54:25.542Z,,,blank.png,blank.png,blank.png,blank.png,blank.png,blank.png,blank.png,"[""chocolate_truffle.png""]",blank.png,blank.png,blank.png,blank.png,blank.png,,,,,,,,,,,,,,,,,,,,,,,,,,,,,"[""chocolate_truffle.png""]","[""strawberry.png""]",PB18.png,,,,,,,,,,,0,6,"[""strawberry.png""]","[""strawberry.png""]","[""strawberry.png""]","[""strawberry.png""]","[""strawberry.png""]","[""strawberry.png""]",blank.png,PB18.png,PB14.png,"[""strawberry.png""]","[""strawberry.png""]","[""strawberry.png""]","[""strawberry.png""]","[""strawberry.png""]","[""strawberry.png""]","[""strawberry.png""]","[""strawberry.png""]","[""strawberry.png""]",blank.png,blank.png,blank.png,1,"[""chocolate_truffle.png""]",blank.png,blank.png,blank.png,3,"[""strawberry.png""]","[""strawberry.png""]","[""strawberry.png""]",blank.png,blank.png,blank.png,PB14.png,,,,,,,,,,,1,,,#808080,#33ff3f,,,,,,,,,999.0910000000149,,timeout,,,,,,,,,,,,,4,,,,,,,,,,,,,,,,,,,,,,,,,,,,,,,,,,,,,,,,,,,,,,,,,,,,,,,,,"[""strawberry.png""]","[""chocolate_truffle.png""]",,,,3,,,false,,1,,,,,white,black,495072.6850000001,495071.441,493473.017,494068.1000000001,494089.083,495088.174,,,,
ITI_late,canvas.Screen,2_4_2_6_1_0_0_0_0_4_4,2021-05-24T15:54:26.541Z,,,blank.png,blank.png,blank.png,blank.png,blank.png,blank.png,blank.png,"[""chocolate_truffle.png""]",blank.png,blank.png,blank.png,blank.png,blank.png,,,,,,,,,,,,,,,,,,,,,,,,,,,,,"[""chocolate_truffle.png""]","[""strawberry.png""]",PB18.png,,,,,,,,,,,0,6,"[""strawberry.png""]","[""strawberry.png""]","[""strawberry.png""]","[""strawberry.png""]","[""strawberry.png""]","[""strawberry.png""]",blank.png,PB18.png,PB14.png,"[""strawberry.png""]","[""strawberry.png""]","[""strawberry.png""]","[""strawberry.png""]","[""strawberry.png""]","[""strawberry.png""]","[""strawberry.png""]","[""strawberry.png""]","[""strawberry.png""]",blank.png,blank.png,blank.png,1,"[""chocolate_truffle.png""]",blank.png,blank.png,blank.png,3,"[""strawberry.png""]","[""strawberry.png""]","[""strawberry.png""]",blank.png,blank.png,blank.png,PB14.png,,,,,,,,,,,1,,,,,,,,,,,,,999.0559999999823,,timeout,,,,,,,,,,,,white,4,,,,,,,,,,,,,,,,,,,,,,,,,,,,,,,,,,,,,,,,,,,,,,,,,,,,,,,,,"[""strawberry.png""]","[""chocolate_truffle.png""]",,,,3,,,false,,1,,,,,,,496071.42,496070.571,495071.441,495075.31500000006,495088.174,496087.23,,,,
choice_sequence,flow.Sequence,2_4_2_6_1_0_0_0_0_4,2021-05-24T15:54:26.541Z,,,blank.png,blank.png,blank.png,blank.png,blank.png,blank.png,blank.png,"[""chocolate_truffle.png""]",blank.png,blank.png,blank.png,blank.png,blank.png,,,,,,,,,,,,,,,,,,,,,,,,,,,,,"[""chocolate_truffle.png""]","[""strawberry.png""]",PB18.png,,,,,,,,,,,0,6,"[""strawberry.png""]","[""strawberry.png""]","[""strawberry.png""]","[""strawberry.png""]","[""strawberry.png""]","[""strawberry.png""]",blank.png,PB18.png,PB14.png,"[""strawberry.png""]","[""strawberry.png""]","[""strawberry.png""]","[""strawberry.png""]","[""strawberry.png""]","[""strawberry.png""]","[""strawberry.png""]","[""strawberry.png""]","[""strawberry.png""]",blank.png,blank.png,blank.png,1,"[""chocolate_truffle.png""]",blank.png,blank.png,blank.png,3,"[""strawberry.png""]","[""strawberry.png""]","[""strawberry.png""]",blank.png,blank.png,blank.png,PB14.png,,,,,,,,,,,1,,,,,,,,,,,,,4862.146999999997,,completion,,,,,,,,,,,,,4,,,,,,,,,,,,,,,,,,,,,,,,,,,,,,,,,,,,,,,,,,,,,,,,,,,,,,,,,"[""strawberry.png""]","[""chocolate_truffle.png""]",,,,3,,,false,,1,,,,,,,496071.815,496070.571,491191.76,491208.2800000001,491208.424,496087.23,,,,
fixCross,canvas.Screen,2_4_2_6_1_0_0_0_0_5_0,2021-05-24T15:54:26.941Z,,,blank.png,"[""chocolate_truffle.png""]",blank.png,blank.png,blank.png,blank.png,blank.png,blank.png,blank.png,blank.png,blank.png,blank.png,blank.png,,,,,,,,,,,,,,,,,,,,,,,,,,,,,"[""chocolate_truffle.png""]","[""strawberry.png""]",PB17.png,,,,,,,,,,,0,6,"[""strawberry.png""]","[""strawberry.png""]","[""strawberry.png""]","[""strawberry.png""]","[""strawberry.png""]","[""strawberry.png""]",blank.png,PB18.png,PB18.png,"[""strawberry.png""]","[""strawberry.png""]","[""strawberry.png""]","[""strawberry.png""]","[""strawberry.png""]","[""strawberry.png""]","[""strawberry.png""]","[""strawberry.png""]","[""strawberry.png""]","[""strawberry.png""]","[""strawberry.png""]","[""strawberry.png""]",1,"[""chocolate_truffle.png""]",blank.png,blank.png,blank.png,6,"[""strawberry.png""]","[""strawberry.png""]","[""strawberry.png""]","[""strawberry.png""]","[""strawberry.png""]","[""strawberry.png""]",PB17.png,,,,,,,,,,,1,,,,,,,,,,,,,1082.25900000002,,timeout,,,,,,,,,,,,,3,,,,,,,,,,,,,,,,,,,,,,,,,,,,,,,,,,,,,,,,,,,,,,,,,,,,,,,,,"[""strawberry.png""]","[""chocolate_truffle.png""]",,,,3,,,false,,1,,,,,,,496471.3700000001,496470.16,496070.571,496076.22500000003,496087.23,497169.489,6,,,
timeout,canvas.Screen,2_4_2_6_1_0_0_0_0_5_1,2021-05-24T15:54:28.124Z,,,blank.png,"[""chocolate_truffle.png""]",blank.png,blank.png,blank.png,blank.png,blank.png,blank.png,blank.png,blank.png,blank.png,blank.png,blank.png,,,,,,,,,,,,,,,,,,,,,,,,,,,,,"[""chocolate_truffle.png""]","[""strawberry.png""]",PB17.png,,,,,,,,,,,0,6,"[""strawberry.png""]","[""strawberry.png""]","[""strawberry.png""]","[""strawberry.png""]","[""strawberry.png""]","[""strawberry.png""]",blank.png,PB18.png,PB18.png,"[""strawberry.png""]","[""strawberry.png""]","[""strawberry.png""]","[""strawberry.png""]","[""strawberry.png""]","[""strawberry.png""]","[""strawberry.png""]","[""strawberry.png""]","[""strawberry.png""]","[""strawberry.png""]","[""strawberry.png""]","[""strawberry.png""]",1,"[""chocolate_truffle.png""]",blank.png,blank.png,blank.png,6,"[""strawberry.png""]","[""strawberry.png""]","[""strawberry.png""]","[""strawberry.png""]","[""strawberry.png""]","[""strawberry.png""]",PB17.png,,,,,,,,,,,1,,,,,,,,,,,,,1198.841000000015,,timeout,,,,,,,,,,,,,3,,,,,,,,,,,,,,,,,,,,,,,,,,,,,,,,,,,,,,,,,,,,,,,,,,,,,,,,,"[""strawberry.png""]","[""chocolate_truffle.png""]",,,,3,,,false,,1,,,,,,,497654.41,497652.442,496470.16,497173.98000000004,497169.489,498368.33,,,,
choice,canvas.Screen,2_4_2_6_1_0_0_0_0_5_2,2021-05-24T15:54:29.621Z,,,blank.png,"[""chocolate_truffle.png""]",blank.png,blank.png,blank.png,blank.png,blank.png,blank.png,blank.png,blank.png,blank.png,blank.png,blank.png,,,,,,,,,,,,,,,,,,,,,,,,,,,,,"[""chocolate_truffle.png""]","[""strawberry.png""]",PB17.png,,,,,,,,,,,0,6,"[""strawberry.png""]","[""strawberry.png""]","[""strawberry.png""]","[""strawberry.png""]","[""strawberry.png""]","[""strawberry.png""]",blank.png,PB18.png,PB18.png,"[""strawberry.png""]","[""strawberry.png""]","[""strawberry.png""]","[""strawberry.png""]","[""strawberry.png""]","[""strawberry.png""]","[""strawberry.png""]","[""strawberry.png""]","[""strawberry.png""]","[""strawberry.png""]","[""strawberry.png""]","[""strawberry.png""]",1,"[""chocolate_truffle.png""]",blank.png,blank.png,blank.png,6,"[""strawberry.png""]","[""strawberry.png""]","[""strawberry.png""]","[""strawberry.png""]","[""strawberry.png""]","[""strawberry.png""]",PB17.png,,,,,,,,,,,1,,,,,,,,,,,,,781.8850000000093,,response,,,,,,,,,,,,,3,,,,,,,,,,,,,,,,,,,,,,,,,,,,,,,,,,,,,,,,,,,,,,,,,,,,,,,,,"[""strawberry.png""]","[""chocolate_truffle.png""]",,,,3,left,keydown(ArrowLeft),false,,1,,,,,,,499151.465,499150.215,497652.442,498365.495,498368.33,499833.618,,6,,
square,canvas.Screen,2_4_2_6_1_0_0_0_0_5_3,2021-05-24T15:54:31.287Z,,,blank.png,"[""chocolate_truffle.png""]",blank.png,blank.png,blank.png,blank.png,blank.png,blank.png,blank.png,blank.png,blank.png,blank.png,blank.png,,,,,,,,,,,,,,,,,,,,,,,,,,,,,"[""chocolate_truffle.png""]","[""strawberry.png""]",PB17.png,,,,,,,,,,,0,6,"[""strawberry.png""]","[""strawberry.png""]","[""strawberry.png""]","[""strawberry.png""]","[""strawberry.png""]","[""strawberry.png""]",blank.png,PB18.png,PB18.png,"[""strawberry.png""]","[""strawberry.png""]","[""strawberry.png""]","[""strawberry.png""]","[""strawberry.png""]","[""strawberry.png""]","[""strawberry.png""]","[""strawberry.png""]","[""strawberry.png""]","[""strawberry.png""]","[""strawberry.png""]","[""strawberry.png""]",1,"[""chocolate_truffle.png""]",blank.png,blank.png,blank.png,6,"[""strawberry.png""]","[""strawberry.png""]","[""strawberry.png""]","[""strawberry.png""]","[""strawberry.png""]","[""strawberry.png""]",PB17.png,,,,,,,,,,,1,,,#33ff3f,#808080,,,,,,,,,999.295999999973,,timeout,,,,,,,,,,,,,3,,,,,,,,,,,,,,,,,,,,,,,,,,,,,,,,,,,,,,,,,,,,,,,,,,,,,,,,,"[""strawberry.png""]","[""chocolate_truffle.png""]",,,,3,,,false,,1,,,,,black,white,500817.69500000007,500816.224,499817.104,499818.315,499833.618,500832.914,,,,
ITI_late,canvas.Screen,2_4_2_6_1_0_0_0_0_5_4,2021-05-24T15:54:31.786Z,,,blank.png,"[""chocolate_truffle.png""]",blank.png,blank.png,blank.png,blank.png,blank.png,blank.png,blank.png,blank.png,blank.png,blank.png,blank.png,,,,,,,,,,,,,,,,,,,,,,,,,,,,,"[""chocolate_truffle.png""]","[""strawberry.png""]",PB17.png,,,,,,,,,,,0,6,"[""strawberry.png""]","[""strawberry.png""]","[""strawberry.png""]","[""strawberry.png""]","[""strawberry.png""]","[""strawberry.png""]",blank.png,PB18.png,PB18.png,"[""strawberry.png""]","[""strawberry.png""]","[""strawberry.png""]","[""strawberry.png""]","[""strawberry.png""]","[""strawberry.png""]","[""strawberry.png""]","[""strawberry.png""]","[""strawberry.png""]","[""strawberry.png""]","[""strawberry.png""]","[""strawberry.png""]",1,"[""chocolate_truffle.png""]",blank.png,blank.png,blank.png,6,"[""strawberry.png""]","[""strawberry.png""]","[""strawberry.png""]","[""strawberry.png""]","[""strawberry.png""]","[""strawberry.png""]",PB17.png,,,,,,,,,,,1,,,,,,,,,,,,,499.33500000002095,,timeout,,,,,,,,,,,,white,3,,,,,,,,,,,,,,,,,,,,,,,,,,,,,,,,,,,,,,,,,,,,,,,,,,,,,,,,,"[""strawberry.png""]","[""chocolate_truffle.png""]",,,,3,,,false,,1,,,,,,,501316.195,501315.563,500816.224,500823.445,500832.914,501332.249,,,,
choice_sequence,flow.Sequence,2_4_2_6_1_0_0_0_0_5,2021-05-24T15:54:31.786Z,,,blank.png,"[""chocolate_truffle.png""]",blank.png,blank.png,blank.png,blank.png,blank.png,blank.png,blank.png,blank.png,blank.png,blank.png,blank.png,,,,,,,,,,,,,,,,,,,,,,,,,,,,,"[""chocolate_truffle.png""]","[""strawberry.png""]",PB17.png,,,,,,,,,,,0,6,"[""strawberry.png""]","[""strawberry.png""]","[""strawberry.png""]","[""strawberry.png""]","[""strawberry.png""]","[""strawberry.png""]",blank.png,PB18.png,PB18.png,"[""strawberry.png""]","[""strawberry.png""]","[""strawberry.png""]","[""strawberry.png""]","[""strawberry.png""]","[""strawberry.png""]","[""strawberry.png""]","[""strawberry.png""]","[""strawberry.png""]","[""strawberry.png""]","[""strawberry.png""]","[""strawberry.png""]",1,"[""chocolate_truffle.png""]",blank.png,blank.png,blank.png,6,"[""strawberry.png""]","[""strawberry.png""]","[""strawberry.png""]","[""strawberry.png""]","[""strawberry.png""]","[""strawberry.png""]",PB17.png,,,,,,,,,,,1,,,,,,,,,,,,,5228.333000000042,,completion,,,,,,,,,,,,,3,,,,,,,,,,,,,,,,,,,,,,,,,,,,,,,,,,,,,,,,,,,,,,,,,,,,,,,,,"[""strawberry.png""]","[""chocolate_truffle.png""]",,,,3,,,false,,1,,,,,,,501316.77,501315.563,496070.571,496075.3000000001,496087.23,501332.249,,,,
fixCross,canvas.Screen,2_4_2_6_1_0_0_0_0_6_0,2021-05-24T15:54:32.136Z,,,blank.png,blank.png,blank.png,blank.png,blank.png,blank.png,blank.png,"[""chocolate_truffle.png""]",blank.png,blank.png,blank.png,blank.png,blank.png,,,,,,,,,,,,,,,,,,,,,,,,,,,,,"[""chocolate_truffle.png""]","[""strawberry.png""]",PB18.png,,,,,,,,,,,0,6,"[""strawberry.png""]","[""strawberry.png""]","[""strawberry.png""]","[""strawberry.png""]","[""strawberry.png""]","[""strawberry.png""]",blank.png,PB18.png,PB07.png,"[""strawberry.png""]","[""strawberry.png""]","[""strawberry.png""]","[""strawberry.png""]","[""strawberry.png""]","[""strawberry.png""]","[""strawberry.png""]",blank.png,blank.png,blank.png,blank.png,blank.png,1,"[""chocolate_truffle.png""]",blank.png,blank.png,blank.png,1,"[""strawberry.png""]",blank.png,blank.png,blank.png,blank.png,blank.png,PB07.png,,,,,,,,,,,1,,,,,,,,,,,,,865.7810000000172,,timeout,,,,,,,,,,,,,4,,,,,,,,,,,,,,,,,,,,,,,,,,,,,,,,,,,,,,,,,,,,,,,,,,,,,,,,,"[""strawberry.png""]","[""chocolate_truffle.png""]",,,,3,,,false,,1,,,,,,,501666.4000000001,501665.255,501315.563,501322.395,501332.249,502198.03,7,,,
timeout,canvas.Screen,2_4_2_6_1_0_0_0_0_6_1,2021-05-24T15:54:33.152Z,,,blank.png,blank.png,blank.png,blank.png,blank.png,blank.png,blank.png,"[""chocolate_truffle.png""]",blank.png,blank.png,blank.png,blank.png,blank.png,,,,,,,,,,,,,,,,,,,,,,,,,,,,,"[""chocolate_truffle.png""]","[""strawberry.png""]",PB18.png,,,,,,,,,,,0,6,"[""strawberry.png""]","[""strawberry.png""]","[""strawberry.png""]","[""strawberry.png""]","[""strawberry.png""]","[""strawberry.png""]",blank.png,PB18.png,PB07.png,"[""strawberry.png""]","[""strawberry.png""]","[""strawberry.png""]","[""strawberry.png""]","[""strawberry.png""]","[""strawberry.png""]","[""strawberry.png""]",blank.png,blank.png,blank.png,blank.png,blank.png,1,"[""chocolate_truffle.png""]",blank.png,blank.png,blank.png,1,"[""strawberry.png""]",blank.png,blank.png,blank.png,blank.png,blank.png,PB07.png,,,,,,,,,,,1,,,,,,,,,,,,,1065.7239999999874,,timeout,,,,,,,,,,,,,4,,,,,,,,,,,,,,,,,,,,,,,,,,,,,,,,,,,,,,,,,,,,,,,,,,,,,,,,,"[""strawberry.png""]","[""chocolate_truffle.png""]",,,,3,,,false,,1,,,,,,,502682.415,502681.142,501665.255,502203.10500000004,502198.03,503263.754,,,,
choice,canvas.Screen,2_4_2_6_1_0_0_0_0_6_2,2021-05-24T15:54:34.338Z,,,blank.png,blank.png,blank.png,blank.png,blank.png,blank.png,blank.png,"[""chocolate_truffle.png""]",blank.png,blank.png,blank.png,blank.png,blank.png,,,,,,,,,,,,,,,,,,,,,,,,,,,,,"[""chocolate_truffle.png""]","[""strawberry.png""]",PB18.png,,,,,,,,,,,0,6,"[""strawberry.png""]","[""strawberry.png""]","[""strawberry.png""]","[""strawberry.png""]","[""strawberry.png""]","[""strawberry.png""]",blank.png,PB18.png,PB07.png,"[""strawberry.png""]","[""strawberry.png""]","[""strawberry.png""]","[""strawberry.png""]","[""strawberry.png""]","[""strawberry.png""]","[""strawberry.png""]",blank.png,blank.png,blank.png,blank.png,blank.png,1,"[""chocolate_truffle.png""]",blank.png,blank.png,blank.png,1,"[""strawberry.png""]",blank.png,blank.png,blank.png,blank.png,blank.png,PB07.png,,,,,,,,,,,1,,,,,,,,,,,,,602.5660000000498,,response,,,,,,,,,,,,,4,,,,,,,,,,,,,,,,,,,,,,,,,,,,,,,,,,,,,,,,,,,,,,,,,,,,,,,,,"[""strawberry.png""]","[""chocolate_truffle.png""]",,,,3,right,keydown(ArrowRight),false,,1,,,,,,,503868.49000000005,503866.32000000007,502681.142,503245.08,503263.754,504412.651,,7,,
square,canvas.Screen,2_4_2_6_1_0_0_0_0_6_3,2021-05-24T15:54:35.866Z,,,blank.png,blank.png,blank.png,blank.png,blank.png,blank.png,blank.png,"[""chocolate_truffle.png""]",blank.png,blank.png,blank.png,blank.png,blank.png,,,,,,,,,,,,,,,,,,,,,,,,,,,,,"[""chocolate_truffle.png""]","[""strawberry.png""]",PB18.png,,,,,,,,,,,0,6,"[""strawberry.png""]","[""strawberry.png""]","[""strawberry.png""]","[""strawberry.png""]","[""strawberry.png""]","[""strawberry.png""]",blank.png,PB18.png,PB07.png,"[""strawberry.png""]","[""strawberry.png""]","[""strawberry.png""]","[""strawberry.png""]","[""strawberry.png""]","[""strawberry.png""]","[""strawberry.png""]",blank.png,blank.png,blank.png,blank.png,blank.png,1,"[""chocolate_truffle.png""]",blank.png,blank.png,blank.png,1,"[""strawberry.png""]",blank.png,blank.png,blank.png,blank.png,blank.png,PB07.png,,,,,,,,,,,1,,,#808080,#33ff3f,,,,,,,,,999.2309999999707,,timeout,,,,,,,,,,,,,4,,,,,,,,,,,,,,,,,,,,,,,,,,,,,,,,,,,,,,,,,,,,,,,,,,,,,,,,,"[""strawberry.png""]","[""chocolate_truffle.png""]",,,,3,,,false,,1,,,,,white,black,505396.49500000005,505395.085,504396.121,504402.13000000006,504412.651,505411.882,,,,
ITI_late,canvas.Screen,2_4_2_6_1_0_0_0_0_6_4,2021-05-24T15:54:36.865Z,,,blank.png,blank.png,blank.png,blank.png,blank.png,blank.png,blank.png,"[""chocolate_truffle.png""]",blank.png,blank.png,blank.png,blank.png,blank.png,,,,,,,,,,,,,,,,,,,,,,,,,,,,,"[""chocolate_truffle.png""]","[""strawberry.png""]",PB18.png,,,,,,,,,,,0,6,"[""strawberry.png""]","[""strawberry.png""]","[""strawberry.png""]","[""strawberry.png""]","[""strawberry.png""]","[""strawberry.png""]",blank.png,PB18.png,PB07.png,"[""strawberry.png""]","[""strawberry.png""]","[""strawberry.png""]","[""strawberry.png""]","[""strawberry.png""]","[""strawberry.png""]","[""strawberry.png""]",blank.png,blank.png,blank.png,blank.png,blank.png,1,"[""chocolate_truffle.png""]",blank.png,blank.png,blank.png,1,"[""strawberry.png""]",blank.png,blank.png,blank.png,blank.png,blank.png,PB07.png,,,,,,,,,,,1,,,,,,,,,,,,,1065.4810000000289,,timeout,,,,,,,,,,,,white,4,,,,,,,,,,,,,,,,,,,,,,,,,,,,,,,,,,,,,,,,,,,,,,,,,,,,,,,,,"[""strawberry.png""]","[""chocolate_truffle.png""]",,,,3,,,false,,1,,,,,,,506395.31,506394.288,505395.085,505401.0900000001,505411.882,506477.363,,,,
choice_sequence,flow.Sequence,2_4_2_6_1_0_0_0_0_6,2021-05-24T15:54:36.866Z,,,blank.png,blank.png,blank.png,blank.png,blank.png,blank.png,blank.png,"[""chocolate_truffle.png""]",blank.png,blank.png,blank.png,blank.png,blank.png,,,,,,,,,,,,,,,,,,,,,,,,,,,,,"[""chocolate_truffle.png""]","[""strawberry.png""]",PB18.png,,,,,,,,,,,0,6,"[""strawberry.png""]","[""strawberry.png""]","[""strawberry.png""]","[""strawberry.png""]","[""strawberry.png""]","[""strawberry.png""]",blank.png,PB18.png,PB07.png,"[""strawberry.png""]","[""strawberry.png""]","[""strawberry.png""]","[""strawberry.png""]","[""strawberry.png""]","[""strawberry.png""]","[""strawberry.png""]",blank.png,blank.png,blank.png,blank.png,blank.png,1,"[""chocolate_truffle.png""]",blank.png,blank.png,blank.png,1,"[""strawberry.png""]",blank.png,blank.png,blank.png,blank.png,blank.png,PB07.png,,,,,,,,,,,1,,,,,,,,,,,,,5062.03899999999,,completion,,,,,,,,,,,,,4,,,,,,,,,,,,,,,,,,,,,,,,,,,,,,,,,,,,,,,,,,,,,,,,,,,,,,,,,"[""strawberry.png""]","[""chocolate_truffle.png""]",,,,3,,,false,,1,,,,,,,506396.29000000004,506394.288,501315.563,501321.30000000005,501332.249,506477.363,,,,
choice_loop,flow.Loop,2_4_2_6_1_0_0_0_0,2021-05-24T15:54:36.866Z,,,,,,,,,,,,,,,,,,,,,,,,,,,,,,,,,,,,,,,,,,,,"[""chocolate_truffle.png""]","[""strawberry.png""]",,,,,,,,,,,,,,,,,,,,,,,,,,,,,,,,,,,,,,,,,,,,,,,,,,,,,,,,,,,,,,,,,,,,,,,44091.99200000003,,completion,,,,,,,,,,,,,,,,,,,,,,,,,,,,,,,,,,,,,,,,,,,,,,,,,,,,,,,,,,,,,,,,,,,,,,"[""strawberry.png""]","[""chocolate_truffle.png""]",,,,3,,,false,,,,,,,,,506396.96,506394.288,462235.753,462295.335,462302.296,506477.363,,,,
choice_frame,html.Frame,2_4_2_6_1_0_0_0,2021-05-24T15:54:36.867Z,,,,,,,,,,,,,,,,,,,,,,,,,,,,,,,,,,,,,,,,,,,,,,,,,,,,,,,,,,,,,,,,,,,,,,,,,,,,,,,,,,,,,,,,,,,,,,,,,,,,,,,,,,,,,,,,,,,,44094.839000000095,,,,,,,,,,,,,,,,,,,,,,,,,,,,,,,,,,,,,,,,,,,,,,,,,,,,,,,,,,,,,,,,,,,,,,,,,,,,,3,,,false,,,,,,,,,506397.41500000004,506397.13500000007,462235.753,462237.165,462302.296,506494.043,,,,
sublock_1,flow.Sequence,2_4_2_6_1_0_0,2021-05-24T15:54:36.867Z,,,,,,,,,,,,,,,,,,,,,,,,,,,,,,,,,,,,,,,,,,,,,,,,,,,,,,,,,,,,,,,,,,,,,,,,,,,,,,,,,,,,,,,,,,,,,,,,,,,,,,,,,,,,,,,,,,,,44094.839000000095,,completion,,,,,,,,,,,,,,,,,,,,,,,,,,,,,,,,,,,,,,,,,,,,,,,,,,,,,,,,,,,,,,,,,,,,,,,,,,,3,,,false,,,,,,,,,506397.72500000003,506397.13500000007,462235.753,462237.06000000006,462302.296,506494.043,,,,
fixCross,canvas.Screen,2_4_2_6_1_0_1_0_0_0_0,2021-05-24T15:54:37.597Z,,,blank.png,"[""chocolate_truffle.png""]",blank.png,blank.png,blank.png,blank.png,blank.png,blank.png,blank.png,blank.png,blank.png,blank.png,blank.png,,,,,,,,,,,,,,,,,,,,,,,,,,,,,"[""chocolate_truffle.png""]","[""strawberry.png""]",PB07.png,,,,,,,,,,,0,6,"[""strawberry.png""]","[""strawberry.png""]","[""strawberry.png""]","[""strawberry.png""]","[""strawberry.png""]","[""strawberry.png""]",blank.png,PB18.png,PB18.png,"[""strawberry.png""]",blank.png,blank.png,blank.png,blank.png,blank.png,"[""strawberry.png""]","[""strawberry.png""]","[""strawberry.png""]","[""strawberry.png""]","[""strawberry.png""]","[""strawberry.png""]",1,"[""chocolate_truffle.png""]",blank.png,blank.png,blank.png,1,"[""strawberry.png""]",blank.png,blank.png,blank.png,blank.png,blank.png,PB07.png,,,,,,,,,,,1,,,,,,,,,,,,,1182.1849999999977,,timeout,,,,,,,,,,,,,3,,,,,,,,,,,,,,,,,,,,,,,,,,,,,,,,,,,,,,,,,,,,,,,,,,,,,,,,,"[""strawberry.png""]","[""chocolate_truffle.png""]",,,,4,,,false,,1,,,,,,,507127.59500000003,507126.891,506477.363,506476.225,506494.043,507676.228,8,,,
timeout,canvas.Screen,2_4_2_6_1_0_1_0_0_0_1,2021-05-24T15:54:38.630Z,,,blank.png,"[""chocolate_truffle.png""]",blank.png,blank.png,blank.png,blank.png,blank.png,blank.png,blank.png,blank.png,blank.png,blank.png,blank.png,,,,,,,,,,,,,,,,,,,,,,,,,,,,,"[""chocolate_truffle.png""]","[""strawberry.png""]",PB07.png,,,,,,,,,,,0,6,"[""strawberry.png""]","[""strawberry.png""]","[""strawberry.png""]","[""strawberry.png""]","[""strawberry.png""]","[""strawberry.png""]",blank.png,PB18.png,PB18.png,"[""strawberry.png""]",blank.png,blank.png,blank.png,blank.png,blank.png,"[""strawberry.png""]","[""strawberry.png""]","[""strawberry.png""]","[""strawberry.png""]","[""strawberry.png""]","[""strawberry.png""]",1,"[""chocolate_truffle.png""]",blank.png,blank.png,blank.png,1,"[""strawberry.png""]",blank.png,blank.png,blank.png,blank.png,blank.png,PB07.png,,,,,,,,,,,1,,,,,,,,,,,,,1032.3859999999986,,timeout,,,,,,,,,,,,,3,,,,,,,,,,,,,,,,,,,,,,,,,,,,,,,,,,,,,,,,,,,,,,,,,,,,,,,,,"[""strawberry.png""]","[""chocolate_truffle.png""]",,,,4,,,false,,1,,,,,,,508160.08,508159.243,507126.891,507663.35500000004,507676.228,508708.614,,,,
choice,canvas.Screen,2_4_2_6_1_0_1_0_0_0_2,2021-05-24T15:54:39.183Z,,,blank.png,"[""chocolate_truffle.png""]",blank.png,blank.png,blank.png,blank.png,blank.png,blank.png,blank.png,blank.png,blank.png,blank.png,blank.png,,,,,,,,,,,,,,,,,,,,,,,,,,,,,"[""chocolate_truffle.png""]","[""strawberry.png""]",PB07.png,,,,,,,,,,,0,6,"[""strawberry.png""]","[""strawberry.png""]","[""strawberry.png""]","[""strawberry.png""]","[""strawberry.png""]","[""strawberry.png""]",blank.png,PB18.png,PB18.png,"[""strawberry.png""]",blank.png,blank.png,blank.png,blank.png,blank.png,"[""strawberry.png""]","[""strawberry.png""]","[""strawberry.png""]","[""strawberry.png""]","[""strawberry.png""]","[""strawberry.png""]",1,"[""chocolate_truffle.png""]",blank.png,blank.png,blank.png,1,"[""strawberry.png""]",blank.png,blank.png,blank.png,blank.png,blank.png,PB07.png,,,,,,,,,,,1,,,,,,,,,,,,,456.5669999999809,,response,,,,,,,,,,,,,3,,,,,,,,,,,,,,,,,,,,,,,,,,,,,,,,,,,,,,,,,,,,,,,,,,,,,,,,,"[""strawberry.png""]","[""chocolate_truffle.png""]",,,,4,left,keydown(ArrowLeft),false,,1,,,,,,,508713.86000000004,508615.81,508159.243,508692.81,,509258.104,,8,,
square,canvas.Screen,2_4_2_6_1_0_1_0_0_0_3,2021-05-24T15:54:40.711Z,,,blank.png,"[""chocolate_truffle.png""]",blank.png,blank.png,blank.png,blank.png,blank.png,blank.png,blank.png,blank.png,blank.png,blank.png,blank.png,,,,,,,,,,,,,,,,,,,,,,,,,,,,,"[""chocolate_truffle.png""]","[""strawberry.png""]",PB07.png,,,,,,,,,,,0,6,"[""strawberry.png""]","[""strawberry.png""]","[""strawberry.png""]","[""strawberry.png""]","[""strawberry.png""]","[""strawberry.png""]",blank.png,PB18.png,PB18.png,"[""strawberry.png""]",blank.png,blank.png,blank.png,blank.png,blank.png,"[""strawberry.png""]","[""strawberry.png""]","[""strawberry.png""]","[""strawberry.png""]","[""strawberry.png""]","[""strawberry.png""]",1,"[""chocolate_truffle.png""]",blank.png,blank.png,blank.png,1,"[""strawberry.png""]",blank.png,blank.png,blank.png,blank.png,blank.png,PB07.png,,,,,,,,,,,1,,,#33ff3f,#808080,,,,,,,,,999.1359999999986,,timeout,,,,,,,,,,,,,3,,,,,,,,,,,,,,,,,,,,,,,,,,,,,,,,,,,,,,,,,,,,,,,,,,,,,,,,,"[""strawberry.png""]","[""chocolate_truffle.png""]",,,,4,,,false,,1,,,,,black,white,510241.79000000004,510240.644,508708.614,509249.44500000007,509258.104,510257.24,,,,
ITI_late,canvas.Screen,2_4_2_6_1_0_1_0_0_0_4,2021-05-24T15:54:41.461Z,,,blank.png,"[""chocolate_truffle.png""]",blank.png,blank.png,blank.png,blank.png,blank.png,blank.png,blank.png,blank.png,blank.png,blank.png,blank.png,,,,,,,,,,,,,,,,,,,,,,,,,,,,,"[""chocolate_truffle.png""]","[""strawberry.png""]",PB07.png,,,,,,,,,,,0,6,"[""strawberry.png""]","[""strawberry.png""]","[""strawberry.png""]","[""strawberry.png""]","[""strawberry.png""]","[""strawberry.png""]",blank.png,PB18.png,PB18.png,"[""strawberry.png""]",blank.png,blank.png,blank.png,blank.png,blank.png,"[""strawberry.png""]","[""strawberry.png""]","[""strawberry.png""]","[""strawberry.png""]","[""strawberry.png""]","[""strawberry.png""]",1,"[""chocolate_truffle.png""]",blank.png,blank.png,blank.png,1,"[""strawberry.png""]",blank.png,blank.png,blank.png,blank.png,blank.png,PB07.png,,,,,,,,,,,1,,,,,,,,,,,,,749.2010000000009,,timeout,,,,,,,,,,,,white,3,,,,,,,,,,,,,,,,,,,,,,,,,,,,,,,,,,,,,,,,,,,,,,,,,,,,,,,,,"[""strawberry.png""]","[""chocolate_truffle.png""]",,,,4,,,false,,1,,,,,,,510991.1500000001,510989.945,510240.644,510245.84500000003,510257.24,511006.441,,,,
choice_sequence,flow.Sequence,2_4_2_6_1_0_1_0_0_0,2021-05-24T15:54:41.462Z,,,blank.png,"[""chocolate_truffle.png""]",blank.png,blank.png,blank.png,blank.png,blank.png,blank.png,blank.png,blank.png,blank.png,blank.png,blank.png,,,,,,,,,,,,,,,,,,,,,,,,,,,,,"[""chocolate_truffle.png""]","[""strawberry.png""]",PB07.png,,,,,,,,,,,0,6,"[""strawberry.png""]","[""strawberry.png""]","[""strawberry.png""]","[""strawberry.png""]","[""strawberry.png""]","[""strawberry.png""]",blank.png,PB18.png,PB18.png,"[""strawberry.png""]",blank.png,blank.png,blank.png,blank.png,blank.png,"[""strawberry.png""]","[""strawberry.png""]","[""strawberry.png""]","[""strawberry.png""]","[""strawberry.png""]","[""strawberry.png""]",1,"[""chocolate_truffle.png""]",blank.png,blank.png,blank.png,1,"[""strawberry.png""]",blank.png,blank.png,blank.png,blank.png,blank.png,PB07.png,,,,,,,,,,,1,,,,,,,,,,,,,4495.902000000002,,completion,,,,,,,,,,,,,3,,,,,,,,,,,,,,,,,,,,,,,,,,,,,,,,,,,,,,,,,,,,,,,,,,,,,,,,,"[""strawberry.png""]","[""chocolate_truffle.png""]",,,,4,,,false,,1,,,,,,,510992.155,510989.945,506477.363,506474.23000000004,506494.043,511006.441,,,,
fixCross,canvas.Screen,2_4_2_6_1_0_1_0_0_1_0,2021-05-24T15:54:41.860Z,,,blank.png,blank.png,blank.png,blank.png,blank.png,blank.png,blank.png,"[""chocolate_truffle.png""]",blank.png,blank.png,blank.png,blank.png,blank.png,,,,,,,,,,,,,,,,,,,,,,,,,,,,,"[""chocolate_truffle.png""]","[""strawberry.png""]",PB18.png,,,,,,,,,,,0,6,"[""strawberry.png""]","[""strawberry.png""]","[""strawberry.png""]","[""strawberry.png""]","[""strawberry.png""]","[""strawberry.png""]",blank.png,PB18.png,PB01.png,"[""strawberry.png""]","[""strawberry.png""]","[""strawberry.png""]","[""strawberry.png""]","[""strawberry.png""]","[""strawberry.png""]",blank.png,blank.png,blank.png,blank.png,blank.png,blank.png,1,"[""chocolate_truffle.png""]",blank.png,blank.png,blank.png,0,blank.png,blank.png,blank.png,blank.png,blank.png,blank.png,PB01.png,,,,,,,,,,,1,,,,,,,,,,,,,882.5179999999818,,timeout,,,,,,,,,,,,,4,,,,,,,,,,,,,,,,,,,,,,,,,,,,,,,,,,,,,,,,,,,,,,,,,,,,,,,,,"[""strawberry.png""]","[""chocolate_truffle.png""]",,,,4,,,false,,1,,,,,,,511390.82500000007,511389.592,510989.945,511009.185,511006.441,511888.959,9,,,
timeout,canvas.Screen,2_4_2_6_1_0_1_0_0_1_1,2021-05-24T15:54:42.843Z,,,blank.png,blank.png,blank.png,blank.png,blank.png,blank.png,blank.png,"[""chocolate_truffle.png""]",blank.png,blank.png,blank.png,blank.png,blank.png,,,,,,,,,,,,,,,,,,,,,,,,,,,,,"[""chocolate_truffle.png""]","[""strawberry.png""]",PB18.png,,,,,,,,,,,0,6,"[""strawberry.png""]","[""strawberry.png""]","[""strawberry.png""]","[""strawberry.png""]","[""strawberry.png""]","[""strawberry.png""]",blank.png,PB18.png,PB01.png,"[""strawberry.png""]","[""strawberry.png""]","[""strawberry.png""]","[""strawberry.png""]","[""strawberry.png""]","[""strawberry.png""]",blank.png,blank.png,blank.png,blank.png,blank.png,blank.png,1,"[""chocolate_truffle.png""]",blank.png,blank.png,blank.png,0,blank.png,blank.png,blank.png,blank.png,blank.png,blank.png,PB01.png,,,,,,,,,,,1,,,,,,,,,,,,,1032.3490000000456,,timeout,,,,,,,,,,,,,4,,,,,,,,,,,,,,,,,,,,,,,,,,,,,,,,,,,,,,,,,,,,,,,,,,,,,,,,,"[""strawberry.png""]","[""chocolate_truffle.png""]",,,,4,,,false,,1,,,,,,,512373.5300000001,512371.857,511389.592,511886.33,511888.959,512921.308,,,,
choice,canvas.Screen,2_4_2_6_1_0_1_0_0_1_2,2021-05-24T15:54:43.398Z,,,blank.png,blank.png,blank.png,blank.png,blank.png,blank.png,blank.png,"[""chocolate_truffle.png""]",blank.png,blank.png,blank.png,blank.png,blank.png,,,,,,,,,,,,,,,,,,,,,,,,,,,,,"[""chocolate_truffle.png""]","[""strawberry.png""]",PB18.png,,,,,,,,,,,0,6,"[""strawberry.png""]","[""strawberry.png""]","[""strawberry.png""]","[""strawberry.png""]","[""strawberry.png""]","[""strawberry.png""]",blank.png,PB18.png,PB01.png,"[""strawberry.png""]","[""strawberry.png""]","[""strawberry.png""]","[""strawberry.png""]","[""strawberry.png""]","[""strawberry.png""]",blank.png,blank.png,blank.png,blank.png,blank.png,blank.png,1,"[""chocolate_truffle.png""]",blank.png,blank.png,blank.png,0,blank.png,blank.png,blank.png,blank.png,blank.png,blank.png,PB01.png,,,,,,,,,,,1,,,,,,,,,,,,,469.6230000000214,,response,,,,,,,,,,,,,4,,,,,,,,,,,,,,,,,,,,,,,,,,,,,,,,,,,,,,,,,,,,,,,,,,,,,,,,,"[""strawberry.png""]","[""chocolate_truffle.png""]",,,,4,right,keydown(ArrowRight),false,,1,,,,,,,512929.00500000006,512841.48000000004,512371.857,512911.42000000004,,513454.223,,9,,
square,canvas.Screen,2_4_2_6_1_0_1_0_0_1_3,2021-05-24T15:54:44.907Z,,,blank.png,blank.png,blank.png,blank.png,blank.png,blank.png,blank.png,"[""chocolate_truffle.png""]",blank.png,blank.png,blank.png,blank.png,blank.png,,,,,,,,,,,,,,,,,,,,,,,,,,,,,"[""chocolate_truffle.png""]","[""strawberry.png""]",PB18.png,,,,,,,,,,,0,6,"[""strawberry.png""]","[""strawberry.png""]","[""strawberry.png""]","[""strawberry.png""]","[""strawberry.png""]","[""strawberry.png""]",blank.png,PB18.png,PB01.png,"[""strawberry.png""]","[""strawberry.png""]","[""strawberry.png""]","[""strawberry.png""]","[""strawberry.png""]","[""strawberry.png""]",blank.png,blank.png,blank.png,blank.png,blank.png,blank.png,1,"[""chocolate_truffle.png""]",blank.png,blank.png,blank.png,0,blank.png,blank.png,blank.png,blank.png,blank.png,blank.png,PB01.png,,,,,,,,,,,1,,,#808080,#33ff3f,,,,,,,,,999.1749999999884,,timeout,,,,,,,,,,,,,4,,,,,,,,,,,,,,,,,,,,,,,,,,,,,,,,,,,,,,,,,,,,,,,,,,,,,,,,,"[""strawberry.png""]","[""chocolate_truffle.png""]",,,,4,,,false,,1,,,,,white,black,514437.80000000005,514436.72,512921.308,513438.99,513454.223,514453.398,,,,
ITI_late,canvas.Screen,2_4_2_6_1_0_1_0_0_1_4,2021-05-24T15:54:45.907Z,,,blank.png,blank.png,blank.png,blank.png,blank.png,blank.png,blank.png,"[""chocolate_truffle.png""]",blank.png,blank.png,blank.png,blank.png,blank.png,,,,,,,,,,,,,,,,,,,,,,,,,,,,,"[""chocolate_truffle.png""]","[""strawberry.png""]",PB18.png,,,,,,,,,,,0,6,"[""strawberry.png""]","[""strawberry.png""]","[""strawberry.png""]","[""strawberry.png""]","[""strawberry.png""]","[""strawberry.png""]",blank.png,PB18.png,PB01.png,"[""strawberry.png""]","[""strawberry.png""]","[""strawberry.png""]","[""strawberry.png""]","[""strawberry.png""]","[""strawberry.png""]",blank.png,blank.png,blank.png,blank.png,blank.png,blank.png,1,"[""chocolate_truffle.png""]",blank.png,blank.png,blank.png,0,blank.png,blank.png,blank.png,blank.png,blank.png,blank.png,PB01.png,,,,,,,,,,,1,,,,,,,,,,,,,998.8770000000368,,timeout,,,,,,,,,,,,white,4,,,,,,,,,,,,,,,,,,,,,,,,,,,,,,,,,,,,,,,,,,,,,,,,,,,,,,,,,"[""strawberry.png""]","[""chocolate_truffle.png""]",,,,4,,,false,,1,,,,,,,515437.0600000001,515435.792,514436.72,514442.11000000004,514453.398,515452.275,,,,
choice_sequence,flow.Sequence,2_4_2_6_1_0_1_0_0_1,2021-05-24T15:54:45.908Z,,,blank.png,blank.png,blank.png,blank.png,blank.png,blank.png,blank.png,"[""chocolate_truffle.png""]",blank.png,blank.png,blank.png,blank.png,blank.png,,,,,,,,,,,,,,,,,,,,,,,,,,,,,"[""chocolate_truffle.png""]","[""strawberry.png""]",PB18.png,,,,,,,,,,,0,6,"[""strawberry.png""]","[""strawberry.png""]","[""strawberry.png""]","[""strawberry.png""]","[""strawberry.png""]","[""strawberry.png""]",blank.png,PB18.png,PB01.png,"[""strawberry.png""]","[""strawberry.png""]","[""strawberry.png""]","[""strawberry.png""]","[""strawberry.png""]","[""strawberry.png""]",blank.png,blank.png,blank.png,blank.png,blank.png,blank.png,1,"[""chocolate_truffle.png""]",blank.png,blank.png,blank.png,0,blank.png,blank.png,blank.png,blank.png,blank.png,blank.png,PB01.png,,,,,,,,,,,1,,,,,,,,,,,,,4429.351000000024,,completion,,,,,,,,,,,,,4,,,,,,,,,,,,,,,,,,,,,,,,,,,,,,,,,,,,,,,,,,,,,,,,,,,,,,,,,"[""strawberry.png""]","[""chocolate_truffle.png""]",,,,4,,,false,,1,,,,,,,515438.16500000004,515435.792,510989.945,511004.7850000001,511006.441,515452.275,,,,
