sender,sender_type,sender_id,timestamp,meta,,Blank,DownLeft1,DownLeft2,DownLeft3,DownLeft4,DownLeft5,DownLeft6,DownRight1,DownRight2,DownRight3,DownRight4,DownRight5,DownRight6,FoodHabits_Fru_item1,FoodHabits_Fru_item2,FoodHabits_Fru_item3,FoodHabits_Fru_item4,FoodHabits_Fru_item5,FoodHabits_Fru_item6,FoodHabits_Fru_item7,FoodHabits_Meat_item1,FoodHabits_Meat_item2,FoodHabits_Meat_item3,FoodHabits_Meat_item4,FoodHabits_Meat_item5,FoodHabits_Meat_item6,FoodHabits_Meat_item7,FoodHabits_Swe_item1,FoodHabits_Swe_item2,FoodHabits_Swe_item3,FoodHabits_Swe_item4,FoodHabits_Swe_item5,FoodHabits_Swe_item6,FoodHabits_Swe_item7,FoodHabits_Veg_item1,FoodHabits_Veg_item2,FoodHabits_Veg_item3,FoodHabits_Veg_item4,FoodHabits_Veg_item5,FoodHabits_Veg_item6,FoodHabits_Veg_item7,ImgA,ImgB,LeftBar,PSS_item01,PSS_item02,PSS_item03,PSS_item04,PSS_item05,PSS_item06,PSS_item07,PSS_item08,PSS_item09,PSS_item10,RefA,RefB,RefB1,RefB2,RefB3,RefB4,RefB5,RefB6,RefB7,Ref_PB,RightBar,UpLeft1,UpLeft2,UpLeft3,UpLeft4,UpLeft5,UpLeft6,UpRight1,UpRight2,UpRight3,UpRight4,UpRight5,UpRight6,VarA,VarA1,VarA2,VarA3,VarA4,VarB,VarB1,VarB2,VarB3,VarB4,VarB5,VarB6,Var_PB,attCheck_fileA,attCheck_fileB,attCheck_fileC,attCheck_fileD,attCheck_options,attCheck_valueA,attCheck_valueB,attCheck_valueC,attCheck_valueD,attention_check,block,browser_name,choseL,choseR,consent_form1,consent_form2,consentconfirmation_form1,consentconfirmation_form2,correct,correctResponse,diet,disorder,duration,edu,ended_on,enjoy,full_version,gender,group,hunger,img,imgTask,input_age,input_meal,input_occ,input_remark,lateRespFeed,list,major_version,message,mixQ_item1,mixQ_item2,mixQ_item3,mixQ_item4,mixQ_item5,name,navigator_appName,navigator_userAgent,os,pracQ1_IDa,pracQ1_IDb,pracQ1_IDc,pracQ1_IDd,pracQ1_optionA,pracQ1_optionB,pracQ1_optionC,pracQ1_optionD,pracQ1_valueA,pracQ1_valueB,pracQ1_valueC,pracQ1_valueD,pracQ2_IDa,pracQ2_IDb,pracQ2_IDc,pracQ2_optionA,pracQ2_optionB,pracQ2_optionC,pracQ2_valueA,pracQ2_valueB,pracQ2_valueC,pracQ4_IDa,pracQ4_IDb,pracQ4_IDc,pracQ4_IDd,pracQ4_optionA,pracQ4_optionB,pracQ4_optionC,pracQ4_optionD,pracQ4_valueA,pracQ4_valueB,pracQ4_valueC,pracQ4_valueD,pracQ5_IDa,pracQ5_IDb,pracQ5_IDc,pracQ5_IDd,pracQ5_optionA,pracQ5_optionB,pracQ5_optionC,pracQ5_optionD,pracQ5_valueA,pracQ5_valueB,pracQ5_valueC,pracQ5_valueD,prefHealty,prefUnhealthy,prolific_ID,psessionID,pstudyID,rep,response,response_action,skip,snack,sublock,subtitle,task_difficulty,task_engagement,task_focus,textL,textR,time_commit,time_end,time_render,time_run,time_show,time_switch,trial_count,trial_countO,url,valence
Title,html.Page,0,2021-01-14T19:40:43.952Z,"{""labjs_version"":""20.1.1"",""labjs_build"":{""flavor"":""production"",""commit"":""c48ac4ada3769e8d34489594ab03097d5f256ac7""},""location"":""https://run.pavlovia.org/E3lab/rebund/html/?PROLIFIC_PID={{%PROLIFIC_PID%}}&STUDY_ID={{%STUDY_ID%}}&SESSION_ID={{%SESSION_ID%}}7"",""userAgent"":""Mozilla/5.0 (Windows NT 10.0; Win64; x64) AppleWebKit/537.36 (KHTML, like Gecko) Chrome/86.0.4240.198 Safari/537.36 OPR/72.0.3815.465"",""platform"":""Win32"",""language"":""pt-PT"",""locale"":""pt-PT"",""timeZone"":""Europe/Lisbon"",""timezoneOffset"":0,""screen_width"":1366,""screen_height"":768,""scroll_width"":1325,""scroll_height"":634,""window_innerWidth"":1325,""window_innerHeight"":658,""devicePixelRatio"":1}",,,,,,,,,,,,,,,,,,,,,,,,,,,,,,,,,,,,,,,,,,,,,,,,,,,,,,,,,,,,,,,,,,,,,,,,,,,,,,,,,,,,,,,,,,,,,,,,,,,,,,,,,,,,,,,,,,4036.9819999184533,,form submission,,,,,,,,,,,,,,,,,,,,,,,,,,,,,,,,,,,,,,,,,,,,,,,,,,,,,,,,,,,,,,,,,,,,,,,,,,,,,,,,,,,,,,,5738.2549999747425,5737.314999918453,1683.683,1673.5049999551848,1700.333,5768.807,,,"{""PROLIFIC_PID"":""{{%PROLIFIC_PID%}}"",""STUDY_ID"":""{{%STUDY_ID%}}"",""SESSION_ID"":""{{%SESSION_ID%}}7""}",
get_systemInfo,canvas.Screen,1,2021-01-14T19:40:43.986Z,,,,,,,,,,,,,,,,,,,,,,,,,,,,,,,,,,,,,,,,,,,,,,,,,,,,,,,,,,,,,,,,,,,,,,,,,,,,,,,,,,,,,,,,,,,,,,,,,,,,,,,,Opera,,,,,,,,,,,5118.893000000001,,timeout,,72.0.3815.465,,,,,,,,,,,,72,,,,,,,,Netscape,"Mozilla/5.0 (Windows NT 10.0; Win64; x64) AppleWebKit/537.36 (KHTML, like Gecko) Chrome/86.0.4240.198 Safari/537.36 OPR/72.0.3815.465",Windows,,,,,,,,,,,,,,,,,,,,,,,,,,,,,,,,,,,,,,,,,,,,,,,,{{%PROLIFIC_PID%}},,{{%STUDY_ID%}},,,,,,,,,,,,,5771.76499995403,5771.369999973103,5718.857,5739.554999978282,5768.807,10887.7,,,,
ConsentForm,html.Form,2_0,2021-01-14T19:41:12.075Z,,,,,,,,,,,,,,,,,,,,,,,,,,,,,,,,,,,,,,,,,,,,,,,,,,,,,,,,,,,,,,,,,,,,,,,,,,,,,,,,,,,,,,,,,,,,,,,,,,,,,,,,,,,true,true,,,,,,,22972.92499997206,,form submission,,,,,,,,,,,,,,,,,,,,,,,,,,,,,,,,,,,,,,,,,,,,,,,,,,,,,,,,,,,,,,,,,,,,,,,,,,,,,,,,,,,,,,,33861.34999990463,33860.62499997206,5771.369999973103,10909.15999992285,10887.7,33881.219,,,,
PepTalk,html.Page,2_1,2021-01-14T19:41:31.270Z,,,,,,,,,,,,,,,,,,,,,,,,,,,,,,,,,,,,,,,,,,,,,,,,,,,,,,,,,,,,,,,,,,,,,,,,,,,,,,,,,,,,,,,,,,,,,,,,,,,,,,,,,,,,,,,,,,,19174.010999939914,,form submission,,,,,,,,,,,,,,,,,,,,,,,,,,,,,,,,,,,,,,,,,,,,,,,,,,,,,,,,,,,,,,,,,,,,,,,,,,,,,,,,,,,,,,,53055.89499999769,53055.22999993991,33847.919,33861.79499991704,33881.219,53073.102,,,,
Demographics,html.Form,2_2,2021-01-14T19:41:51.121Z,,,,,,,,,,,,,,,,,,,,,,,,,,,,,,,,,,,,,,,,,,,,,,,,,,,,,,,,,,,,,,,,,,,,,,,,,,,,,,,,,,,,,,,,,,,,,,,,,,,,,,,,,,,,,,,,,,,19833.647999965542,3,form submission,,,2,,,,,22,,Student,,,,,,,,,,,,,,,,,,,,,,,,,,,,,,,,,,,,,,,,,,,,,,,,,,,,,,,,,,,,,,,,,,,,,,,,,,,,,72907.13499998674,72906.74999996554,53039.802,53056.26499990467,53073.102,72931.846,,,,
InclusionCrit,html.Form,2_3,2021-01-14T19:42:03.492Z,,,,,,,,,,,,,,,,,,,,,,,,,,,,,,,,,,,,,,,,,,,,,,,,,,,,,,,,,,,,,,,,,,,,,,,,,,,,,,,,,,,,,,,,,,,,,,,,,,,,,,,,,,,,,,,,,1,1,12346.083999982002,,form submission,1,,,,,,,,,,,,,,,,,,,,,,,,,,,,,,,,,,,,,,,,,,,,,,,,,,,,,,,,,,,,,,,,,,,,,,,,,,,,,,,,,,,,,,85278.26999989338,85277.929999982,72898.546,72907.34999999404,72931.846,85287.333,,,,
Selection,html.Page,2_4_0,2021-01-14T19:42:11.270Z,,,,,,,,,,,,,,,,,,,,,,,,,,,,,,,,,,,,,,,,,,,,,,,,,,,,,,,,,,,,,,,,,,,,,,,,,,,,,,,,,,,,,,,,,,,,,,,,,,,,,,,,,,,,,,,,,,,7768.351999912047,,form submission,,,,,,,,,,,,,,,,,,,,,,,,,,,,,,,,,,,,,,,,,,,,,,,,,,,,,,,,,,,,,,,,,,,,,,,,,,,,,,,0,,,,,,,,93056.00999994203,93055.68499991205,85270.683,85278.55499996804,85287.333,93074.193,,,,
Load,html.Page,2_4_1,2021-01-14T19:42:11.289Z,,,,,,,,,,,,,,,,,,,,,,,,,,,,,,,,,,,,,,,,,,,,,,,,,,,,,,,,,,,,,,,,,,,,,,,,,,,,,,,,,,,,,,,,,,,,,,,,,,,,,,,,,,,,,,,,,,,3768.346000000005,,timeout,,,,,,,,,,,,,,,,,,,,,,,,,,,,,,,,,,,,,,,,,,,,,,,,,,,,,,,,,,,,,,,,,,,,,,,,,,,,,,,,,,,,,,,93075.25999995414,93074.83999989927,93040.893,93056.21999991126,93074.193,96842.539,,,,
ratings_instructions,html.Screen,2_4_2_0,2021-01-14T19:42:33.887Z,,,,,,,,,,,,,,,,,,,,,,,,,,,,,,,,,,,,,,,,,,,,,,,,,,,,,,,,,,,,,,,,,,,,,,,,,,,,,,,,,,,,,,,,,,,,,,,,,,,,,,,,,,,,,,,,,,,18828.165999938603,,response,,,,,,,,,,,,,,,,,,,,,,,,,,,,,,,,,,,,,,,,,,,,,,,,,,,,,,,,,,,,,,,,,,,,,,,,,,,,continue,keypress(Space),false,,,,,,,,,115673.31499990541,115670.7049999386,93074.83999989927,97023.96499994211,96842.539,115691.911,0,0,,
fixCross,canvas.Screen,2_4_2_1_0_0,2021-01-14T19:42:34.383Z,,,,,,,,,,,,,,,,,,,,,,,,,,,,,,,,,,,,,,,,,,,,,,,,,,,,,,,,,,,,,,,,,,,,,,,,,,,,,,,,,,,,,,,,,,,,,,,,,,,,,,,,,,,,,,,,,,,508.599000000002,,timeout,,,,healthy,,coconut.png,,,,,,,,,,,,,,,coconut,,,,,,,,,,,,,,,,,,,,,,,,,,,,,,,,,,,,,,,,,,,,,,,,,,,,,,,,,false,,,,,,,,,116169.33499998413,116167.21,115658.611,115673.71999996249,115691.911,116200.51,,,,
Rating,html.Form,2_4_2_1_0_1,2021-01-14T19:42:51.139Z,,,,,,,,,,,,,,,,,,,,,,,,,,,,,,,,,,,,,,,,,,,,,,,,,,,,,,,,,,,,,,,,,,,,,,,,,,,,,,,,,,,,,,,,,,,,,,,,,,,,,,,,,,,,,,,,,,,16724.24499992725,,form submission,,,,healthy,,coconut.png,,,,,,,,,,,,,,,coconut,,,,,,,,,,,,,,,,,,,,,,,,,,,,,,,,,,,,,,,,,,,,,,,,,,,,,,,,,false,,,,,,,,,132925.40999990888,132924.75499992725,116167.21,116169.70499989111,116200.51,132941.869,,,,74
rating_sequence,flow.Sequence,2_4_2_1_0,2021-01-14T19:42:51.142Z,,,,,,,,,,,,,,,,,,,,,,,,,,,,,,,,,,,,,,,,,,,,,,,,,,,,,,,,,,,,,,,,,,,,,,,,,,,,,,,,,,,,,,,,,,,,,,,,,,,,,,,,,,,,,,,,,,,17232.843999927252,,completion,,,,healthy,,coconut.png,,,,,,,,,,,,,,,coconut,,,,,,,,,,,,,,,,,,,,,,,,,,,,,,,,,,,,,,,,,,,,,,,,,,,,,,,,,false,,,,,,,,,132928.09999990277,132924.75499992725,115658.611,115673.6549999332,115691.911,132941.869,,,,
fixCross,canvas.Screen,2_4_2_1_1_0,2021-01-14T19:42:51.640Z,,,,,,,,,,,,,,,,,,,,,,,,,,,,,,,,,,,,,,,,,,,,,,,,,,,,,,,,,,,,,,,,,,,,,,,,,,,,,,,,,,,,,,,,,,,,,,,,,,,,,,,,,,,,,,,,,,,499.6469999999972,,timeout,,,,unhealthy,,candy.png,,,,,,,,,,,,,,,candy,,,,,,,,,,,,,,,,,,,,,,,,,,,,,,,,,,,,,,,,,,,,,,,,,,,,,,,,,false,,,,,,,,,133426.4649999095,133424.866,132908.569,132928.38999989908,132941.869,133441.516,,,,
Rating,html.Form,2_4_2_1_1_1,2021-01-14T19:43:00.829Z,,,,,,,,,,,,,,,,,,,,,,,,,,,,,,,,,,,,,,,,,,,,,,,,,,,,,,,,,,,,,,,,,,,,,,,,,,,,,,,,,,,,,,,,,,,,,,,,,,,,,,,,,,,,,,,,,,,9173.578999899153,,form submission,,,,unhealthy,,candy.png,,,,,,,,,,,,,,,candy,,,,,,,,,,,,,,,,,,,,,,,,,,,,,,,,,,,,,,,,,,,,,,,,,,,,,,,,,false,,,,,,,,,142615.4450000031,142615.09499989916,133424.866,133426.664999919,133441.516,142629.538,,,,88
rating_sequence,flow.Sequence,2_4_2_1_1,2021-01-14T19:43:00.829Z,,,,,,,,,,,,,,,,,,,,,,,,,,,,,,,,,,,,,,,,,,,,,,,,,,,,,,,,,,,,,,,,,,,,,,,,,,,,,,,,,,,,,,,,,,,,,,,,,,,,,,,,,,,,,,,,,,,9673.22599989915,,completion,,,,unhealthy,,candy.png,,,,,,,,,,,,,,,candy,,,,,,,,,,,,,,,,,,,,,,,,,,,,,,,,,,,,,,,,,,,,,,,,,,,,,,,,,false,,,,,,,,,142615.65499997232,142615.09499989916,132908.569,132928.33999998402,132941.869,142629.538,,,,
fixCross,canvas.Screen,2_4_2_1_2_0,2021-01-14T19:43:01.328Z,,,,,,,,,,,,,,,,,,,,,,,,,,,,,,,,,,,,,,,,,,,,,,,,,,,,,,,,,,,,,,,,,,,,,,,,,,,,,,,,,,,,,,,,,,,,,,,,,,,,,,,,,,,,,,,,,,,499.625,,timeout,,,,unhealthy,,praline.png,,,,,,,,,,,,,,,praline,,,,,,,,,,,,,,,,,,,,,,,,,,,,,,,,,,,,,,,,,,,,,,,,,,,,,,,,,false,,,,,,,,,143113.89499995857,143112.513,142612.888,142615.8099999884,142629.538,143129.163,,,,
Rating,html.Form,2_4_2_1_2_1,2021-01-14T19:43:05.407Z,,,,,,,,,,,,,,,,,,,,,,,,,,,,,,,,,,,,,,,,,,,,,,,,,,,,,,,,,,,,,,,,,,,,,,,,,,,,,,,,,,,,,,,,,,,,,,,,,,,,,,,,,,,,,,,,,,,4063.4519999490003,,form submission,,,,unhealthy,,praline.png,,,,,,,,,,,,,,,praline,,,,,,,,,,,,,,,,,,,,,,,,,,,,,,,,,,,,,,,,,,,,,,,,,,,,,,,,,false,,,,,,,,,147192.939999979,147192.614999949,143112.513,143114.07999997027,143129.163,147198.228,,,,100
rating_sequence,flow.Sequence,2_4_2_1_2,2021-01-14T19:43:05.407Z,,,,,,,,,,,,,,,,,,,,,,,,,,,,,,,,,,,,,,,,,,,,,,,,,,,,,,,,,,,,,,,,,,,,,,,,,,,,,,,,,,,,,,,,,,,,,,,,,,,,,,,,,,,,,,,,,,,4563.076999949,,completion,,,,unhealthy,,praline.png,,,,,,,,,,,,,,,praline,,,,,,,,,,,,,,,,,,,,,,,,,,,,,,,,,,,,,,,,,,,,,,,,,,,,,,,,,false,,,,,,,,,147193.15999990795,147192.614999949,142612.888,142615.764999995,142629.538,147198.228,,,,
fixCross,canvas.Screen,2_4_2_1_3_0,2021-01-14T19:43:05.896Z,,,,,,,,,,,,,,,,,,,,,,,,,,,,,,,,,,,,,,,,,,,,,,,,,,,,,,,,,,,,,,,,,,,,,,,,,,,,,,,,,,,,,,,,,,,,,,,,,,,,,,,,,,,,,,,,,,,516.3010000000068,,timeout,,,,healthy,,raspberry.png,,,,,,,,,,,,,,,raspberry,,,,,,,,,,,,,,,,,,,,,,,,,,,,,,,,,,,,,,,,,,,,,,,,,,,,,,,,,false,,,,,,,,,147682.579999906,147681.229,147181.578,147193.3199999621,147198.228,147714.529,,,,
Rating,html.Form,2_4_2_1_3_1,2021-01-14T19:43:13.177Z,,,,,,,,,,,,,,,,,,,,,,,,,,,,,,,,,,,,,,,,,,,,,,,,,,,,,,,,,,,,,,,,,,,,,,,,,,,,,,,,,,,,,,,,,,,,,,,,,,,,,,,,,,,,,,,,,,,7248.410999997606,,form submission,,,,healthy,,raspberry.png,,,,,,,,,,,,,,,raspberry,,,,,,,,,,,,,,,,,,,,,,,,,,,,,,,,,,,,,,,,,,,,,,,,,,,,,,,,,false,,,,,,,,,154963.3249999024,154962.93999999762,147681.229,147682.72499996237,147714.529,154968.358,,,,73
rating_sequence,flow.Sequence,2_4_2_1_3,2021-01-14T19:43:13.177Z,,,,,,,,,,,,,,,,,,,,,,,,,,,,,,,,,,,,,,,,,,,,,,,,,,,,,,,,,,,,,,,,,,,,,,,,,,,,,,,,,,,,,,,,,,,,,,,,,,,,,,,,,,,,,,,,,,,7764.711999997613,,completion,,,,healthy,,raspberry.png,,,,,,,,,,,,,,,raspberry,,,,,,,,,,,,,,,,,,,,,,,,,,,,,,,,,,,,,,,,,,,,,,,,,,,,,,,,,false,,,,,,,,,154963.66999996826,154962.93999999762,147181.578,147193.2749999687,147198.228,154968.358,,,,
fixCross,canvas.Screen,2_4_2_1_4_0,2021-01-14T19:43:13.666Z,,,,,,,,,,,,,,,,,,,,,,,,,,,,,,,,,,,,,,,,,,,,,,,,,,,,,,,,,,,,,,,,,,,,,,,,,,,,,,,,,,,,,,,,,,,,,,,,,,,,,,,,,,,,,,,,,,,499.6469999999972,,timeout,,,,unhealthy,,maltesers.png,,,,,,,,,,,,,,,malteser,,,,,,,,,,,,,,,,,,,,,,,,,,,,,,,,,,,,,,,,,,,,,,,,,,,,,,,,,false,,,,,,,,,155452.54499989096,155451.355,154951.708,154963.8799999375,154968.358,155468.005,,,,
Rating,html.Form,2_4_2_1_4_1,2021-01-14T19:43:17.510Z,,,,,,,,,,,,,,,,,,,,,,,,,,,,,,,,,,,,,,,,,,,,,,,,,,,,,,,,,,,,,,,,,,,,,,,,,,,,,,,,,,,,,,,,,,,,,,,,,,,,,,,,,,,,,,,,,,,3828.439999985392,,form submission,,,,unhealthy,,maltesers.png,,,,,,,,,,,,,,,malteser,,,,,,,,,,,,,,,,,,,,,,,,,,,,,,,,,,,,,,,,,,,,,,,,,,,,,,,,,false,,,,,,,,,159296.7199999839,159296.4449999854,155451.355,155452.68499990925,155468.005,159303.569,,,,100
rating_sequence,flow.Sequence,2_4_2_1_4,2021-01-14T19:43:17.511Z,,,,,,,,,,,,,,,,,,,,,,,,,,,,,,,,,,,,,,,,,,,,,,,,,,,,,,,,,,,,,,,,,,,,,,,,,,,,,,,,,,,,,,,,,,,,,,,,,,,,,,,,,,,,,,,,,,,4328.086999985389,,completion,,,,unhealthy,,maltesers.png,,,,,,,,,,,,,,,malteser,,,,,,,,,,,,,,,,,,,,,,,,,,,,,,,,,,,,,,,,,,,,,,,,,,,,,,,,,false,,,,,,,,,159296.91499995533,159296.4449999854,154951.708,154963.8149999082,154968.358,159303.569,,,,
fixCross,canvas.Screen,2_4_2_1_5_0,2021-01-14T19:43:18.002Z,,,,,,,,,,,,,,,,,,,,,,,,,,,,,,,,,,,,,,,,,,,,,,,,,,,,,,,,,,,,,,,,,,,,,,,,,,,,,,,,,,,,,,,,,,,,,,,,,,,,,,,,,,,,,,,,,,,499.7370000000228,,timeout,,,,unhealthy,,chocolate.png,,,,,,,,,,,,,,,chocolate,,,,,,,,,,,,,,,,,,,,,,,,,,,,,,,,,,,,,,,,,,,,,,,,,,,,,,,,,false,,,,,,,,,159788.03499997593,159786.656,159286.919,159297.05499997362,159303.569,159803.306,,,,
Rating,html.Form,2_4_2_1_5_1,2021-01-14T19:43:21.762Z,,,,,,,,,,,,,,,,,,,,,,,,,,,,,,,,,,,,,,,,,,,,,,,,,,,,,,,,,,,,,,,,,,,,,,,,,,,,,,,,,,,,,,,,,,,,,,,,,,,,,,,,,,,,,,,,,,,3744.403999955248,,form submission,,,,unhealthy,,chocolate.png,,,,,,,,,,,,,,,chocolate,,,,,,,,,,,,,,,,,,,,,,,,,,,,,,,,,,,,,,,,,,,,,,,,,,,,,,,,,false,,,,,,,,,163548.01499994937,163547.70999995526,159786.656,159788.21999998763,159803.306,163555.46,,,,100
rating_sequence,flow.Sequence,2_4_2_1_5,2021-01-14T19:43:21.762Z,,,,,,,,,,,,,,,,,,,,,,,,,,,,,,,,,,,,,,,,,,,,,,,,,,,,,,,,,,,,,,,,,,,,,,,,,,,,,,,,,,,,,,,,,,,,,,,,,,,,,,,,,,,,,,,,,,,4244.140999955271,,completion,,,,unhealthy,,chocolate.png,,,,,,,,,,,,,,,chocolate,,,,,,,,,,,,,,,,,,,,,,,,,,,,,,,,,,,,,,,,,,,,,,,,,,,,,,,,,false,,,,,,,,,163548.194999923,163547.70999995526,159286.919,159297.01499990188,159303.569,163555.46,,,,
fixCross,canvas.Screen,2_4_2_1_6_0,2021-01-14T19:43:22.254Z,,,,,,,,,,,,,,,,,,,,,,,,,,,,,,,,,,,,,,,,,,,,,,,,,,,,,,,,,,,,,,,,,,,,,,,,,,,,,,,,,,,,,,,,,,,,,,,,,,,,,,,,,,,,,,,,,,,499.69800000000396,,timeout,,,,healthy,,strawberry.png,,,,,,,,,,,,,,,strawberry,,,,,,,,,,,,,,,,,,,,,,,,,,,,,,,,,,,,,,,,,,,,,,,,,,,,,,,,,false,,,,,,,,,164040.2400000021,164038.508,163538.81,163548.33999997936,163555.46,164055.158,,,,
Rating,html.Form,2_4_2_1_6_1,2021-01-14T19:43:31.882Z,,,,,,,,,,,,,,,,,,,,,,,,,,,,,,,,,,,,,,,,,,,,,,,,,,,,,,,,,,,,,,,,,,,,,,,,,,,,,,,,,,,,,,,,,,,,,,,,,,,,,,,,,,,,,,,,,,,9612.691999968898,,form submission,,,,healthy,,strawberry.png,,,,,,,,,,,,,,,strawberry,,,,,,,,,,,,,,,,,,,,,,,,,,,,,,,,,,,,,,,,,,,,,,,,,,,,,,,,,false,,,,,,,,,173668.29999990296,173667.8499999689,164038.508,164040.39499990176,164055.158,173676.652,,,,100
rating_sequence,flow.Sequence,2_4_2_1_6,2021-01-14T19:43:31.882Z,,,,,,,,,,,,,,,,,,,,,,,,,,,,,,,,,,,,,,,,,,,,,,,,,,,,,,,,,,,,,,,,,,,,,,,,,,,,,,,,,,,,,,,,,,,,,,,,,,,,,,,,,,,,,,,,,,,10112.389999968902,,completion,,,,healthy,,strawberry.png,,,,,,,,,,,,,,,strawberry,,,,,,,,,,,,,,,,,,,,,,,,,,,,,,,,,,,,,,,,,,,,,,,,,,,,,,,,,false,,,,,,,,,173668.61999989487,173667.8499999689,163538.81,163548.29499998596,163555.46,173676.652,,,,
fixCross,canvas.Screen,2_4_2_1_7_0,2021-01-14T19:43:32.375Z,,,,,,,,,,,,,,,,,,,,,,,,,,,,,,,,,,,,,,,,,,,,,,,,,,,,,,,,,,,,,,,,,,,,,,,,,,,,,,,,,,,,,,,,,,,,,,,,,,,,,,,,,,,,,,,,,,,499.627999999997,,timeout,,,,unhealthy,,chocolate_truffle.png,,,,,,,,,,,,,,,chocolate truffle,,,,,,,,,,,,,,,,,,,,,,,,,,,,,,,,,,,,,,,,,,,,,,,,,,,,,,,,,false,,,,,,,,,174161.54000000097,174159.63,173660.002,173668.89999993145,173676.652,174176.28,,,,
Rating,html.Form,2_4_2_1_7_1,2021-01-14T19:43:35.386Z,,,,,,,,,,,,,,,,,,,,,,,,,,,,,,,,,,,,,,,,,,,,,,,,,,,,,,,,,,,,,,,,,,,,,,,,,,,,,,,,,,,,,,,,,,,,,,,,,,,,,,,,,,,,,,,,,,,2995.3099999253463,,form submission,,,,unhealthy,,chocolate_truffle.png,,,,,,,,,,,,,,,chocolate truffle,,,,,,,,,,,,,,,,,,,,,,,,,,,,,,,,,,,,,,,,,,,,,,,,,,,,,,,,,false,,,,,,,,,177172.04499989748,177171.58999992535,174159.63,174161.74499993213,174176.28,177178.226,,,,100
rating_sequence,flow.Sequence,2_4_2_1_7,2021-01-14T19:43:35.386Z,,,,,,,,,,,,,,,,,,,,,,,,,,,,,,,,,,,,,,,,,,,,,,,,,,,,,,,,,,,,,,,,,,,,,,,,,,,,,,,,,,,,,,,,,,,,,,,,,,,,,,,,,,,,,,,,,,,3494.9379999253433,,completion,,,,unhealthy,,chocolate_truffle.png,,,,,,,,,,,,,,,chocolate truffle,,,,,,,,,,,,,,,,,,,,,,,,,,,,,,,,,,,,,,,,,,,,,,,,,,,,,,,,,false,,,,,,,,,177172.35499992967,177171.58999992535,173660.002,173668.80999994464,173676.652,177178.226,,,,
fixCross,canvas.Screen,2_4_2_1_8_0,2021-01-14T19:43:35.876Z,,,,,,,,,,,,,,,,,,,,,,,,,,,,,,,,,,,,,,,,,,,,,,,,,,,,,,,,,,,,,,,,,,,,,,,,,,,,,,,,,,,,,,,,,,,,,,,,,,,,,,,,,,,,,,,,,,,499.6389999999956,,timeout,,,,healthy,,grape.png,,,,,,,,,,,,,,,grape,,,,,,,,,,,,,,,,,,,,,,,,,,,,,,,,,,,,,,,,,,,,,,,,,,,,,,,,,false,,,,,,,,,177662.08499995992,177661.215,177161.576,177172.55499993917,177178.226,177677.865,,,,
Rating,html.Form,2_4_2_1_8_1,2021-01-14T19:43:39.666Z,,,,,,,,,,,,,,,,,,,,,,,,,,,,,,,,,,,,,,,,,,,,,,,,,,,,,,,,,,,,,,,,,,,,,,,,,,,,,,,,,,,,,,,,,,,,,,,,,,,,,,,,,,,,,,,,,,,3774.7649999561254,,form submission,,,,healthy,,grape.png,,,,,,,,,,,,,,,grape,,,,,,,,,,,,,,,,,,,,,,,,,,,,,,,,,,,,,,,,,,,,,,,,,,,,,,,,,false,,,,,,,,,181452.93499995023,181452.62999995612,177661.215,177662.29999996722,177677.865,181463.434,,,,100
rating_sequence,flow.Sequence,2_4_2_1_8,2021-01-14T19:43:39.666Z,,,,,,,,,,,,,,,,,,,,,,,,,,,,,,,,,,,,,,,,,,,,,,,,,,,,,,,,,,,,,,,,,,,,,,,,,,,,,,,,,,,,,,,,,,,,,,,,,,,,,,,,,,,,,,,,,,,4274.403999956121,,completion,,,,healthy,,grape.png,,,,,,,,,,,,,,,grape,,,,,,,,,,,,,,,,,,,,,,,,,,,,,,,,,,,,,,,,,,,,,,,,,,,,,,,,,false,,,,,,,,,181453.14999995753,181452.62999995612,177161.576,177172.49499994796,177178.226,181463.434,,,,
fixCross,canvas.Screen,2_4_2_1_9_0,2021-01-14T19:43:40.162Z,,,,,,,,,,,,,,,,,,,,,,,,,,,,,,,,,,,,,,,,,,,,,,,,,,,,,,,,,,,,,,,,,,,,,,,,,,,,,,,,,,,,,,,,,,,,,,,,,,,,,,,,,,,,,,,,,,,499.6149999999907,,timeout,,,,unhealthy,,marshmallow.png,,,,,,,,,,,,,,,marshmallow,,,,,,,,,,,,,,,,,,,,,,,,,,,,,,,,,,,,,,,,,,,,,,,,,,,,,,,,,false,,,,,,,,,181948.31999996677,181946.399,181446.784,181453.32999993116,181463.434,181963.049,,,,
Rating,html.Form,2_4_2_1_9_1,2021-01-14T19:43:44.056Z,,,,,,,,,,,,,,,,,,,,,,,,,,,,,,,,,,,,,,,,,,,,,,,,,,,,,,,,,,,,,,,,,,,,,,,,,,,,,,,,,,,,,,,,,,,,,,,,,,,,,,,,,,,,,,,,,,,3879.115999921807,,form submission,,,,unhealthy,,marshmallow.png,,,,,,,,,,,,,,,marshmallow,,,,,,,,,,,,,,,,,,,,,,,,,,,,,,,,,,,,,,,,,,,,,,,,,,,,,,,,,false,,,,,,,,,185842.474999954,185842.1649999218,181946.399,181948.60999996308,181963.049,185848.694,,,,92
rating_sequence,flow.Sequence,2_4_2_1_9,2021-01-14T19:43:44.056Z,,,,,,,,,,,,,,,,,,,,,,,,,,,,,,,,,,,,,,,,,,,,,,,,,,,,,,,,,,,,,,,,,,,,,,,,,,,,,,,,,,,,,,,,,,,,,,,,,,,,,,,,,,,,,,,,,,,4378.730999921798,,completion,,,,unhealthy,,marshmallow.png,,,,,,,,,,,,,,,marshmallow,,,,,,,,,,,,,,,,,,,,,,,,,,,,,,,,,,,,,,,,,,,,,,,,,,,,,,,,,false,,,,,,,,,185842.6899999613,185842.1649999218,181446.784,181453.26999993995,181463.434,185848.694,,,,
fixCross,canvas.Screen,2_4_2_1_10_0,2021-01-14T19:43:44.547Z,,,,,,,,,,,,,,,,,,,,,,,,,,,,,,,,,,,,,,,,,,,,,,,,,,,,,,,,,,,,,,,,,,,,,,,,,,,,,,,,,,,,,,,,,,,,,,,,,,,,,,,,,,,,,,,,,,,499.6800000000221,,timeout,,,,healthy,,orange.png,,,,,,,,,,,,,,,orange,,,,,,,,,,,,,,,,,,,,,,,,,,,,,,,,,,,,,,,,,,,,,,,,,,,,,,,,,false,,,,,,,,,186333.2249999512,186331.724,185832.044,185842.8449999774,185848.694,186348.374,,,,
Rating,html.Form,2_4_2_1_10_1,2021-01-14T19:43:47.335Z,,,,,,,,,,,,,,,,,,,,,,,,,,,,,,,,,,,,,,,,,,,,,,,,,,,,,,,,,,,,,,,,,,,,,,,,,,,,,,,,,,,,,,,,,,,,,,,,,,,,,,,,,,,,,,,,,,,2772.735999949102,,form submission,,,,healthy,,orange.png,,,,,,,,,,,,,,,orange,,,,,,,,,,,,,,,,,,,,,,,,,,,,,,,,,,,,,,,,,,,,,,,,,,,,,,,,,false,,,,,,,,,189121.40999990515,189121.1099999491,186331.724,186333.44499999657,186348.374,189133.468,,,,100
rating_sequence,flow.Sequence,2_4_2_1_10,2021-01-14T19:43:47.335Z,,,,,,,,,,,,,,,,,,,,,,,,,,,,,,,,,,,,,,,,,,,,,,,,,,,,,,,,,,,,,,,,,,,,,,,,,,,,,,,,,,,,,,,,,,,,,,,,,,,,,,,,,,,,,,,,,,,3272.415999949124,,completion,,,,healthy,,orange.png,,,,,,,,,,,,,,,orange,,,,,,,,,,,,,,,,,,,,,,,,,,,,,,,,,,,,,,,,,,,,,,,,,,,,,,,,,false,,,,,,,,,189121.8050000025,189121.1099999491,185832.044,185842.79999998398,185848.694,189133.468,,,,
fixCross,canvas.Screen,2_4_2_1_11_0,2021-01-14T19:43:47.831Z,,,,,,,,,,,,,,,,,,,,,,,,,,,,,,,,,,,,,,,,,,,,,,,,,,,,,,,,,,,,,,,,,,,,,,,,,,,,,,,,,,,,,,,,,,,,,,,,,,,,,,,,,,,,,,,,,,,499.5439999999944,,timeout,,,,healthy,,apple.png,,,,,,,,,,,,,,,apple,,,,,,,,,,,,,,,,,,,,,,,,,,,,,,,,,,,,,,,,,,,,,,,,,,,,,,,,,false,,,,,,,,,189617.2849999275,189616.362,189116.818,189121.99499993585,189133.468,189633.012,,,,
Rating,html.Form,2_4_2_1_11_1,2021-01-14T19:43:54.616Z,,,,,,,,,,,,,,,,,,,,,,,,,,,,,,,,,,,,,,,,,,,,,,,,,,,,,,,,,,,,,,,,,,,,,,,,,,,,,,,,,,,,,,,,,,,,,,,,,,,,,,,,,,,,,,,,,,,6769.687999976915,,form submission,,,,healthy,,apple.png,,,,,,,,,,,,,,,apple,,,,,,,,,,,,,,,,,,,,,,,,,,,,,,,,,,,,,,,,,,,,,,,,,,,,,,,,,false,,,,,,,,,196403.09499995783,196402.6999999769,189616.362,189617.45999997947,189633.012,196420.082,,,,91
rating_sequence,flow.Sequence,2_4_2_1_11,2021-01-14T19:43:54.617Z,,,,,,,,,,,,,,,,,,,,,,,,,,,,,,,,,,,,,,,,,,,,,,,,,,,,,,,,,,,,,,,,,,,,,,,,,,,,,,,,,,,,,,,,,,,,,,,,,,,,,,,,,,,,,,,,,,,7269.23199997691,,completion,,,,healthy,,apple.png,,,,,,,,,,,,,,,apple,,,,,,,,,,,,,,,,,,,,,,,,,,,,,,,,,,,,,,,,,,,,,,,,,,,,,,,,,false,,,,,,,,,196403.39999995194,196402.6999999769,189116.818,189121.93499994464,189133.468,196420.082,,,,
fixCross,canvas.Screen,2_4_2_1_12_0,2021-01-14T19:43:55.119Z,,,,,,,,,,,,,,,,,,,,,,,,,,,,,,,,,,,,,,,,,,,,,,,,,,,,,,,,,,,,,,,,,,,,,,,,,,,,,,,,,,,,,,,,,,,,,,,,,,,,,,,,,,,,,,,,,,,499.6389999999956,,timeout,,,,healthy,,cherry.png,,,,,,,,,,,,,,,cherry,,,,,,,,,,,,,,,,,,,,,,,,,,,,,,,,,,,,,,,,,,,,,,,,,,,,,,,,,false,,,,,,,,,196905.5599999847,196903.071,196386.782,196403.67999998853,196420.082,196919.721,,,,
Rating,html.Form,2_4_2_1_12_1,2021-01-14T19:43:58.027Z,,,,,,,,,,,,,,,,,,,,,,,,,,,,,,,,,,,,,,,,,,,,,,,,,,,,,,,,,,,,,,,,,,,,,,,,,,,,,,,,,,,,,,,,,,,,,,,,,,,,,,,,,,,,,,,,,,,2893.9039999515808,,form submission,,,,healthy,,cherry.png,,,,,,,,,,,,,,,cherry,,,,,,,,,,,,,,,,,,,,,,,,,,,,,,,,,,,,,,,,,,,,,,,,,,,,,,,,,false,,,,,,,,,199813.9249999076,199813.62499995157,196903.071,196905.72999999858,196919.721,199821.614,,,,100
rating_sequence,flow.Sequence,2_4_2_1_12,2021-01-14T19:43:58.027Z,,,,,,,,,,,,,,,,,,,,,,,,,,,,,,,,,,,,,,,,,,,,,,,,,,,,,,,,,,,,,,,,,,,,,,,,,,,,,,,,,,,,,,,,,,,,,,,,,,,,,,,,,,,,,,,,,,,3393.5429999515763,,completion,,,,healthy,,cherry.png,,,,,,,,,,,,,,,cherry,,,,,,,,,,,,,,,,,,,,,,,,,,,,,,,,,,,,,,,,,,,,,,,,,,,,,,,,,false,,,,,,,,,199814.12999995518,199813.62499995157,196386.782,196403.57999992557,196420.082,199821.614,,,,
fixCross,canvas.Screen,2_4_2_1_13_0,2021-01-14T19:43:58.520Z,,,,,,,,,,,,,,,,,,,,,,,,,,,,,,,,,,,,,,,,,,,,,,,,,,,,,,,,,,,,,,,,,,,,,,,,,,,,,,,,,,,,,,,,,,,,,,,,,,,,,,,,,,,,,,,,,,,499.62899999998626,,timeout,,,,healthy,,blueberry.png,,,,,,,,,,,,,,,blueberry,,,,,,,,,,,,,,,,,,,,,,,,,,,,,,,,,,,,,,,,,,,,,,,,,,,,,,,,,false,,,,,,,,,200306.20499991346,200304.593,199804.964,199814.294999931,199821.614,200321.243,,,,
Rating,html.Form,2_4_2_1_13_1,2021-01-14T19:44:08.012Z,,,,,,,,,,,,,,,,,,,,,,,,,,,,,,,,,,,,,,,,,,,,,,,,,,,,,,,,,,,,,,,,,,,,,,,,,,,,,,,,,,,,,,,,,,,,,,,,,,,,,,,,,,,,,,,,,,,9477.50199992003,,form submission,,,,healthy,,blueberry.png,,,,,,,,,,,,,,,blueberry,,,,,,,,,,,,,,,,,,,,,,,,,,,,,,,,,,,,,,,,,,,,,,,,,,,,,,,,,false,,,,,,,,,209799.05999999028,209798.74499992002,200304.593,200306.36499996763,200321.243,209809.323,,,,84
rating_sequence,flow.Sequence,2_4_2_1_13,2021-01-14T19:44:08.013Z,,,,,,,,,,,,,,,,,,,,,,,,,,,,,,,,,,,,,,,,,,,,,,,,,,,,,,,,,,,,,,,,,,,,,,,,,,,,,,,,,,,,,,,,,,,,,,,,,,,,,,,,,,,,,,,,,,,9977.130999920017,,completion,,,,healthy,,blueberry.png,,,,,,,,,,,,,,,blueberry,,,,,,,,,,,,,,,,,,,,,,,,,,,,,,,,,,,,,,,,,,,,,,,,,,,,,,,,,false,,,,,,,,,209799.25999999978,209798.74499992002,199804.964,199814.24499989953,199821.614,209809.323,,,,
fixCross,canvas.Screen,2_4_2_1_14_0,2021-01-14T19:44:08.507Z,,,,,,,,,,,,,,,,,,,,,,,,,,,,,,,,,,,,,,,,,,,,,,,,,,,,,,,,,,,,,,,,,,,,,,,,,,,,,,,,,,,,,,,,,,,,,,,,,,,,,,,,,,,,,,,,,,,499.5089999999909,,timeout,,,,unhealthy,,liqorice.png,,,,,,,,,,,,,,,liquorice,,,,,,,,,,,,,,,,,,,,,,,,,,,,,,,,,,,,,,,,,,,,,,,,,,,,,,,,,false,,,,,,,,,210293.98999991827,210292.182,209792.673,209799.41999993753,209809.323,210308.832,,,,
Rating,html.Form,2_4_2_1_14_1,2021-01-14T19:44:20.191Z,,,,,,,,,,,,,,,,,,,,,,,,,,,,,,,,,,,,,,,,,,,,,,,,,,,,,,,,,,,,,,,,,,,,,,,,,,,,,,,,,,,,,,,,,,,,,,,,,,,,,,,,,,,,,,,,,,,11668.592999931832,,form submission,,,,unhealthy,,liqorice.png,,,,,,,,,,,,,,,liquorice,,,,,,,,,,,,,,,,,,,,,,,,,,,,,,,,,,,,,,,,,,,,,,,,,,,,,,,,,false,,,,,,,,,221977.69999993034,221977.42499993183,210292.182,210294.14999997243,210308.832,221981.415,,,,40
rating_sequence,flow.Sequence,2_4_2_1_14,2021-01-14T19:44:20.191Z,,,,,,,,,,,,,,,,,,,,,,,,,,,,,,,,,,,,,,,,,,,,,,,,,,,,,,,,,,,,,,,,,,,,,,,,,,,,,,,,,,,,,,,,,,,,,,,,,,,,,,,,,,,,,,,,,,,12168.101999931823,,completion,,,,unhealthy,,liqorice.png,,,,,,,,,,,,,,,liquorice,,,,,,,,,,,,,,,,,,,,,,,,,,,,,,,,,,,,,,,,,,,,,,,,,,,,,,,,,false,,,,,,,,,221977.89499990176,221977.42499993183,209792.673,209799.35999994632,209809.323,221981.415,,,,
fixCross,canvas.Screen,2_4_2_1_15_0,2021-01-14T19:44:20.680Z,,,,,,,,,,,,,,,,,,,,,,,,,,,,,,,,,,,,,,,,,,,,,,,,,,,,,,,,,,,,,,,,,,,,,,,,,,,,,,,,,,,,,,,,,,,,,,,,,,,,,,,,,,,,,,,,,,,499.6839999999793,,timeout,,,,unhealthy,,gummybear.png,,,,,,,,,,,,,,,gummybear,,,,,,,,,,,,,,,,,,,,,,,,,,,,,,,,,,,,,,,,,,,,,,,,,,,,,,,,,false,,,,,,,,,222466.25499997754,222464.449,221964.765,221978.03999995813,221981.415,222481.099,,,,
Rating,html.Form,2_4_2_1_15_1,2021-01-14T19:44:24.282Z,,,,,,,,,,,,,,,,,,,,,,,,,,,,,,,,,,,,,,,,,,,,,,,,,,,,,,,,,,,,,,,,,,,,,,,,,,,,,,,,,,,,,,,,,,,,,,,,,,,,,,,,,,,,,,,,,,,3587.160999970918,,form submission,,,,unhealthy,,gummybear.png,,,,,,,,,,,,,,,gummybear,,,,,,,,,,,,,,,,,,,,,,,,,,,,,,,,,,,,,,,,,,,,,,,,,,,,,,,,,false,,,,,,,,,226068.6599999899,226068.2599999709,222464.449,222466.43499995116,222481.099,226083.199,,,,100
rating_sequence,flow.Sequence,2_4_2_1_15,2021-01-14T19:44:24.282Z,,,,,,,,,,,,,,,,,,,,,,,,,,,,,,,,,,,,,,,,,,,,,,,,,,,,,,,,,,,,,,,,,,,,,,,,,,,,,,,,,,,,,,,,,,,,,,,,,,,,,,,,,,,,,,,,,,,4086.8449999708973,,completion,,,,unhealthy,,gummybear.png,,,,,,,,,,,,,,,gummybear,,,,,,,,,,,,,,,,,,,,,,,,,,,,,,,,,,,,,,,,,,,,,,,,,,,,,,,,,false,,,,,,,,,226068.95499990787,226068.2599999709,221964.765,221978.0000000028,221981.415,226083.199,,,,
fixCross,canvas.Screen,2_4_2_1_16_0,2021-01-14T19:44:24.782Z,,,,,,,,,,,,,,,,,,,,,,,,,,,,,,,,,,,,,,,,,,,,,,,,,,,,,,,,,,,,,,,,,,,,,,,,,,,,,,,,,,,,,,,,,,,,,,,,,,,,,,,,,,,,,,,,,,,499.6710000000021,,timeout,,,,healthy,,pear.png,,,,,,,,,,,,,,,pear,,,,,,,,,,,,,,,,,,,,,,,,,,,,,,,,,,,,,,,,,,,,,,,,,,,,,,,,,false,,,,,,,,,226568.414999987,226566.22,226066.549,226069.15499991737,226083.199,226582.87,,,,
Rating,html.Form,2_4_2_1_16_1,2021-01-14T19:44:32.702Z,,,,,,,,,,,,,,,,,,,,,,,,,,,,,,,,,,,,,,,,,,,,,,,,,,,,,,,,,,,,,,,,,,,,,,,,,,,,,,,,,,,,,,,,,,,,,,,,,,,,,,,,,,,,,,,,,,,7905.644999975455,,form submission,,,,healthy,,pear.png,,,,,,,,,,,,,,,pear,,,,,,,,,,,,,,,,,,,,,,,,,,,,,,,,,,,,,,,,,,,,,,,,,,,,,,,,,false,,,,,,,,,234488.95499994978,234488.51499997545,226566.22,226568.74499993864,226582.87,234503.661,,,,47
rating_sequence,flow.Sequence,2_4_2_1_16,2021-01-14T19:44:32.703Z,,,,,,,,,,,,,,,,,,,,,,,,,,,,,,,,,,,,,,,,,,,,,,,,,,,,,,,,,,,,,,,,,,,,,,,,,,,,,,,,,,,,,,,,,,,,,,,,,,,,,,,,,,,,,,,,,,,8405.315999975457,,completion,,,,healthy,,pear.png,,,,,,,,,,,,,,,pear,,,,,,,,,,,,,,,,,,,,,,,,,,,,,,,,,,,,,,,,,,,,,,,,,,,,,,,,,false,,,,,,,,,234489.29499997757,234488.51499997545,226066.549,226069.09499992616,226083.199,234503.661,,,,
fixCross,canvas.Screen,2_4_2_1_17_0,2021-01-14T19:44:33.202Z,,,,,,,,,,,,,,,,,,,,,,,,,,,,,,,,,,,,,,,,,,,,,,,,,,,,,,,,,,,,,,,,,,,,,,,,,,,,,,,,,,,,,,,,,,,,,,,,,,,,,,,,,,,,,,,,,,,499.5940000000119,,timeout,,,,unhealthy,,m&m.png,,,,,,,,,,,,,,,m&m,,,,,,,,,,,,,,,,,,,,,,,,,,,,,,,,,,,,,,,,,,,,,,,,,,,,,,,,,false,,,,,,,,,234988.34999999963,234986.605,234487.011,234489.60499989334,234503.661,235003.255,,,,
Rating,html.Form,2_4_2_1_17_1,2021-01-14T19:44:37.073Z,,,,,,,,,,,,,,,,,,,,,,,,,,,,,,,,,,,,,,,,,,,,,,,,,,,,,,,,,,,,,,,,,,,,,,,,,,,,,,,,,,,,,,,,,,,,,,,,,,,,,,,,,,,,,,,,,,,3856.0599998923717,,form submission,,,,unhealthy,,m&m.png,,,,,,,,,,,,,,,m&m,,,,,,,,,,,,,,,,,,,,,,,,,,,,,,,,,,,,,,,,,,,,,,,,,,,,,,,,,false,,,,,,,,,238859.66999991797,238859.31499989238,234986.605,234988.61000000034,235003.255,238888.874,,,,100
rating_sequence,flow.Sequence,2_4_2_1_17,2021-01-14T19:44:37.073Z,,,,,,,,,,,,,,,,,,,,,,,,,,,,,,,,,,,,,,,,,,,,,,,,,,,,,,,,,,,,,,,,,,,,,,,,,,,,,,,,,,,,,,,,,,,,,,,,,,,,,,,,,,,,,,,,,,,4355.653999892384,,completion,,,,unhealthy,,m&m.png,,,,,,,,,,,,,,,m&m,,,,,,,,,,,,,,,,,,,,,,,,,,,,,,,,,,,,,,,,,,,,,,,,,,,,,,,,,false,,,,,,,,,238859.8800000036,238859.31499989238,234487.011,234489.51499990653,234503.661,238888.874,,,,
rating_loop,flow.Loop,2_4_2_1,2021-01-14T19:44:37.073Z,,,,,,,,,,,,,,,,,,,,,,,,,,,,,,,,,,,,,,,,,,,,,,,,,,,,,,,,,,,,,,,,,,,,,,,,,,,,,,,,,,,,,,,,,,,,,,,,,,,,,,,,,,,,,,,,,,,123167.40399989238,,completion,,,,,,,,,,,,,,,,,,,,,,,,,,,,,,,,,,,,,,,,,,,,,,,,,,,,,,,,,,,,,,,,,,,,,,,,,,,,,,false,,,,,,,,,238860.12999992818,238859.31499989238,115658.611,115673.58999990392,115691.911,238888.874,,,,
data_transmission,html.Screen,2_4_2_2,2021-01-14T19:44:37.083Z,,,,,,,,,,,,,,,,,,,,,,,,,,,,,,,,,,,,,,,,,,,,,,,,,,,,,,,,,,,,,,,,,,,,,,,,,,,,,,,,,,,,,,,,,,,,,,,,,,,,,,,,,,,,,,,,,,,NaN,,no compatible backend,,,,,,,,,,,,,,,Transferring data,,,,,,,,,,,,,,,,,,,,,,,,,,,,,,,,,,,,,,,,,,,,,,,,,,,,,,,,,,,,,,,false,,,Please wait a second…,,,,,,238869.34999993537,238869.03499998152,,238860.26999994647,,238888.874,,,,
instructions,html.Screen,2_4_2_3,2021-01-14T19:47:42.004Z,,,,,,,,,,,,,,,,,,,,,,,,,,,,,,,,,,,,,,,,,,,,,,,,,,,,,,,,,,,,,,,,,,,,,,,,,,,,,,,,,,,,,,,,,,,,,,,,,,,,,,,,,,,,,,,,,,,184901.02599997428,,done,,,,,,,,,,,,,,,,,,,,,,,,,,,,,,,,,,,,,,,,,,,,,,,,,,,,,,,,,,,,,,,,,,,,,,,,,,,,,,false,,,,,,,,,423790.16499989666,423789.8999999743,238855.574,238869.6349998936,238888.874,423814.629,,,,
Q1,html.Screen,2_4_2_4_0,2021-01-14T19:48:10.045Z,,,,,,,,,,,,,,,,,,,,,,,,,,,,,,,,,,,,,,,,,,,,,,,,,,,,,,,,,,,,,,,,,,,,,,,,,,,,,,,,,,,,,,,,,,,,,,,,,,,,,,,,,,,,,,,false,input_Q1==3,,,28013.76099992235,,response,,,,,,,,,,,,,,,,,,,,,,,,,Q1_i3,Q1_i1,Q1_i4,Q1_i2,3,1,4,2,correct,false,false,false,,,,,,,,,,,,,,,,,,,,,,,,,,,,,,,,,,,,,,,,,click #Q1_i3,false,,,,,,,,,451830.9999998892,451828.38999992236,423781.329,423790.3749999823,423814.629,451850.133,,,,
Q1_correct,html.Screen,2_4_2_4_1,2021-01-14T19:48:11.300Z,,,,,,,,,,,,,,,,,,,,,,,,,,,,,,,,,,,,,,,,,,,,,,,,,,,,,,,,,,,,,,,,,,,,,,,,,,,,,,,,,,,,,,,,,,,,,,,,,,,,,,,,,,,,,,,,,,,1235.2519999839715,,response,,,,,,,,,,,,,,,,,,,,,,,,,,,,,,,,,,,,,,,,,,,,,,,,,,,,,,,,,,,,,,,,,,,,,,,,,,,,,keypress,false,,,,,,,,,453086.1749999458,453085.38499998394,451816.833,451831.2399999704,451850.133,453115.7,,,,
Q2,html.Screen,2_4_2_4_2,2021-01-14T19:48:19.309Z,,,,,,,,,,,,,,,,,,,,,,,,,,,,,,,,,,,,,,,,,,,,,,,,,,,,,,,,,,,,,,,,,,,,,,,,,,,,,,,,,,,,,,,,,,,,,,,,,,,,,,,,,,,,,,,,,,,7978.8699999574455,,response,,,,,,,,,,,,,,,,,,,,,,,,,,,,,,,,,,,,,Q2_i2,Q2_i1,Q2_i3,Option 2,Option 1,Same amount,opt2,correct,same,,,,,,,,,,,,,,,,,,,,,,,,,,,,,,,,click #Q2_i1,false,,,,,,,,,461095.5799999647,461094.56999995746,453082.4,453086.4499999443,453115.7,461104.16,,,,
Q2_correct,html.Screen,2_4_2_4_3,2021-01-14T19:48:20.263Z,,,,,,,,,,,,,,,,,,,,,,,,,,,,,,,,,,,,,,,,,,,,,,,,,,,,,,,,,,,,,,,,,,,,,,,,,,,,,,,,,,,,,,,,,,,,,,,,,,,,,,,,,,,,,,,,,,,944.6349999515223,,response,,,,,,,,,,,,,,,,,,,,,,,,,,,,,,,,,,,,,,,,,,,,,,,,,,,,,,,,,,,,,,,,,,,,,,,,,,,,,keypress,false,,,,,,,,,462049.47499989066,462048.7949999515,461087.51,461095.8099999698,461104.16,462070.141,,,,
Q4,html.Screen,2_4_2_4_4,2021-01-14T19:48:33.581Z,,,,,,,,,,,,,,,,,,,,,,,,,,,,,,,,,,,,,,,,,,,,,,,,,,,,,,,,,,,,,,,,,,,,,,,,,,,,,,,,,,,,,,,,,,,,,,,,,,,,,,,,,,,,,,,,,,,13296.248999981035,,response,,,,,,,,,,,,,,,,,,,,,,,,,,,,,,,,,,,,,,,,,,,,,,Q4_i3,Q4_i1,Q4_i4,Q4_i2,Press the arrow key that corresponds with the snack option with more food items,Press the arrow key that corresponds with the snack option I prefer,Press the space key,Indicate the number of food items in each snack option,morefood,correct,pressspace,indicate,,,,,,,,,,,,,,,,,,,,click #Q4_i1,false,,,,,,,,,475367.50999989454,475366.38999998104,462036.841,462049.6249999851,462070.141,475377.275,,,,
Q4_correct,html.Screen,2_4_2_4_5,2021-01-14T19:48:34.617Z,,,,,,,,,,,,,,,,,,,,,,,,,,,,,,,,,,,,,,,,,,,,,,,,,,,,,,,,,,,,,,,,,,,,,,,,,,,,,,,,,,,,,,,,,,,,,,,,,,,,,,,,,,,,,,,,,,,1025.399999902933,,response,,,,,,,,,,,,,,,,,,,,,,,,,,,,,,,,,,,,,,,,,,,,,,,,,,,,,,,,,,,,,,,,,,,,,,,,,,,,,keypress,false,,,,,,,,,476403.73499994166,476402.67499990296,475360.625,475367.96999990474,475377.275,476442.974,,,,
Q5,html.Screen,2_4_2_4_6,2021-01-14T19:48:57.032Z,,,,,,,,,,,,,,,,,,,,,,,,,,,,,,,,,,,,,,,,,,,,,,,,,,,,,,,,,,,,,,,,,,,,,,,,,,,,,,,,,,,,,,,,,,,,,,,,,,,,,,,,,,,,,,,,,,,22374.505999968795,,response,,,,,,,,,,,,,,,,,,,,,,,,,,,,,,,,,,,,,,,,,,,,,,,,,,,,,,,,,,Q5_i2,Q5_i3,Q5_i1,Q5_i4,There are more pieces of chocolate in snack Option 2,There are more slices of kiwi in snack Option 1,Snack Option 2 has been chosen,Snack Option 1 has been chosen,morechoc2,morekiwi1,correct,chose1,,,,,,,,click #Q5_i1,false,,,,,,,,,498818.44999990426,498817.4799999688,476393.024,476403.87499995995,476442.974,498837.685,,,,
Q5_correct,html.Screen,2_4_2_4_7,2021-01-14T19:48:57.966Z,,,,,,,,,,,,,,,,,,,,,,,,,,,,,,,,,,,,,,,,,,,,,,,,,,,,,,,,,,,,,,,,,,,,,,,,,,,,,,,,,,,,,,,,,,,,,,,,,,,,,,,,,,,,,,,,,,,913.7299999478855,,response,,,,,,,,,,,,,,,,,,,,,,,,,,,,,,,,,,,,,,,,,,,,,,,,,,,,,,,,,,,,,,,,,,,,,,,,,,,,,keypress,false,,,,,,,,,499752.2099999478,499751.4149999479,498804.385,498818.7349999789,498837.685,499770.235,,,,
practice_sequence,flow.Sequence,2_4_2_4,2021-01-14T19:48:57.966Z,,,,,,,,,,,,,,,,,,,,,,,,,,,,,,,,,,,,,,,,,,,,,,,,,,,,,,,,,,,,,,,,,,,,,,,,,,,,,,,,,,,,,,,,,,,,,,,,,,,,,,,,,,,,,,,,,,,75936.78599994787,,completion,,,,,,,,,,,,,,,,,,,,,,,,,,,,,,,,,,,,,,,,,,,,,,,,,,,,,,,,,,,,,,,,,,,,,,,,,,,,,,false,,,,,,,,,499752.52499990165,499751.4149999479,423781.329,423790.3249999508,423814.629,499770.235,,,,
final_instru,html.Screen,2_4_2_5,2021-01-14T19:49:43.299Z,,,,,,,,,,,,,,,,,,,,,,,,,,,,,,,,,,,,,,,,,,,,,,,,,,,,,,,,,,,,,,,,,,,,,,,,,,,,,,,,,,,,,,,,,,,,,,,,,,,,,,,,,,,,,,,,,,,45314.59999998694,,done,,,,,,,,,,,,,,,,,,,,,,,,,,,,,,,,,,,,,,,,,,,,,,,,,,,,,,,,,,,,,,,,,,,,,,,,,,,,,,false,,,,,,,,,545085.064999992,545084.8349999869,499736.935,499752.7049999917,499770.235,545103.286,,,,
blank_screen,canvas.Screen,2_4_2_6_0,2021-01-14T19:49:45.305Z,,,,,,,,,,,,,,,,,,,,,,,,,,,,,,,,,,,,,,,,,,,,,,,,,,,,,,,,,,,,,,,,,,,,,,,,,,,,,,,,,,,,,,,,,,,,,,,,,,,,,,,,,,,,,,,,,,,2053.011000000057,,timeout,,,,,,,,,,,,,,,,,,,,,,,,,,,,,,,,,,,,,,,,,,,,,,,,,,,,,,,,,,,,,,,,,,,,,,,,,,,,,,false,,,,,,,,,547091.3149999687,547089.697,545069.986,545085.2349998895,545103.286,547156.297,,,,
fixCross,canvas.Screen,2_4_2_6_1_0_0_0_0_0_0,2021-01-14T19:49:45.908Z,,,blank.png,"[""praline.png""]",blank.png,blank.png,blank.png,blank.png,blank.png,blank.png,blank.png,blank.png,blank.png,blank.png,blank.png,,,,,,,,,,,,,,,,,,,,,,,,,,,,,"[""praline.png""]","[""strawberry.png""]",PB17.png,,,,,,,,,,,0,6,"[""strawberry.png""]","[""strawberry.png""]","[""strawberry.png""]","[""strawberry.png""]","[""strawberry.png""]","[""strawberry.png""]",blank.png,PB18.png,PB18.png,"[""strawberry.png""]","[""strawberry.png""]","[""strawberry.png""]","[""strawberry.png""]","[""strawberry.png""]","[""strawberry.png""]","[""strawberry.png""]","[""strawberry.png""]","[""strawberry.png""]","[""strawberry.png""]","[""strawberry.png""]","[""strawberry.png""]",1,"[""praline.png""]",blank.png,blank.png,blank.png,6,"[""strawberry.png""]","[""strawberry.png""]","[""strawberry.png""]","[""strawberry.png""]","[""strawberry.png""]","[""strawberry.png""]",PB17.png,,,,,,,,,,,1,,,,,,,,,,,,1618.0019999999786,,timeout,,,,,,,,,,,,,3,,,,,,,,,,,,,,,,,,,,,,,,,,,,,,,,,,,,,,,,,,,,,,,,,,,,,,,,,"[""strawberry.png""]","[""praline.png""]",,,,1,,,false,,1,,,,,,,547694.5199999027,547692.049,547089.697,547141.1849999567,547156.297,548774.299,1,,,
timeout,canvas.Screen,2_4_2_6_1_0_0_0_0_0_1,2021-01-14T19:49:47.473Z,,,blank.png,"[""praline.png""]",blank.png,blank.png,blank.png,blank.png,blank.png,blank.png,blank.png,blank.png,blank.png,blank.png,blank.png,,,,,,,,,,,,,,,,,,,,,,,,,,,,,"[""praline.png""]","[""strawberry.png""]",PB17.png,,,,,,,,,,,0,6,"[""strawberry.png""]","[""strawberry.png""]","[""strawberry.png""]","[""strawberry.png""]","[""strawberry.png""]","[""strawberry.png""]",blank.png,PB18.png,PB18.png,"[""strawberry.png""]","[""strawberry.png""]","[""strawberry.png""]","[""strawberry.png""]","[""strawberry.png""]","[""strawberry.png""]","[""strawberry.png""]","[""strawberry.png""]","[""strawberry.png""]","[""strawberry.png""]","[""strawberry.png""]","[""strawberry.png""]",1,"[""praline.png""]",blank.png,blank.png,blank.png,6,"[""strawberry.png""]","[""strawberry.png""]","[""strawberry.png""]","[""strawberry.png""]","[""strawberry.png""]","[""strawberry.png""]",PB17.png,,,,,,,,,,,1,,,,,,,,,,,,3180.241000000038,,timeout,,,,,,,,,,,,,3,,,,,,,,,,,,,,,,,,,,,,,,,,,,,,,,,,,,,,,,,,,,,,,,,,,,,,,,,"[""strawberry.png""]","[""praline.png""]",,,,1,,,false,,1,,,,,,,549259.2399999266,549257.24,547692.049,548965.8699999563,548774.299,551954.54,,,,
choice,canvas.Screen,2_4_2_6_1_0_0_0_0_0_2,2021-01-14T19:49:52.202Z,,,blank.png,"[""praline.png""]",blank.png,blank.png,blank.png,blank.png,blank.png,blank.png,blank.png,blank.png,blank.png,blank.png,blank.png,,,,,,,,,,,,,,,,,,,,,,,,,,,,,"[""praline.png""]","[""strawberry.png""]",PB17.png,,,,,,,,,,,0,6,"[""strawberry.png""]","[""strawberry.png""]","[""strawberry.png""]","[""strawberry.png""]","[""strawberry.png""]","[""strawberry.png""]",blank.png,PB18.png,PB18.png,"[""strawberry.png""]","[""strawberry.png""]","[""strawberry.png""]","[""strawberry.png""]","[""strawberry.png""]","[""strawberry.png""]","[""strawberry.png""]","[""strawberry.png""]","[""strawberry.png""]","[""strawberry.png""]","[""strawberry.png""]","[""strawberry.png""]",1,"[""praline.png""]",blank.png,blank.png,blank.png,6,"[""strawberry.png""]","[""strawberry.png""]","[""strawberry.png""]","[""strawberry.png""]","[""strawberry.png""]","[""strawberry.png""]",PB17.png,,,,,,,,,,,1,,,,,,,,,,,,2032.6249999403954,,response,,,,,,,,,,,,,3,,,,,,,,,,,,,,,,,,,,,,,,,,,,,,,,,,,,,,,,,,,,,,,,,,,,,,,,,"[""strawberry.png""]","[""praline.png""]",,,,1,left,keydown(ArrowLeft),false,,1,,,,,,,553988.1749999477,553987.1649999404,549257.24,551963.5249999119,551954.54,555004.146,,1,,
square,canvas.Screen,2_4_2_6_1_0_0_0_0_0_3,2021-01-14T19:49:54.210Z,,,blank.png,"[""praline.png""]",blank.png,blank.png,blank.png,blank.png,blank.png,blank.png,blank.png,blank.png,blank.png,blank.png,blank.png,,,,,,,,,,,,,,,,,,,,,,,,,,,,,"[""praline.png""]","[""strawberry.png""]",PB17.png,,,,,,,,,,,0,6,"[""strawberry.png""]","[""strawberry.png""]","[""strawberry.png""]","[""strawberry.png""]","[""strawberry.png""]","[""strawberry.png""]",blank.png,PB18.png,PB18.png,"[""strawberry.png""]","[""strawberry.png""]","[""strawberry.png""]","[""strawberry.png""]","[""strawberry.png""]","[""strawberry.png""]","[""strawberry.png""]","[""strawberry.png""]","[""strawberry.png""]","[""strawberry.png""]","[""strawberry.png""]","[""strawberry.png""]",1,"[""praline.png""]",blank.png,blank.png,blank.png,6,"[""strawberry.png""]","[""strawberry.png""]","[""strawberry.png""]","[""strawberry.png""]","[""strawberry.png""]","[""strawberry.png""]",PB17.png,,,,,,,,,,,1,,#33ff3f,#808080,,,,,,,,,1007.5960000000196,,timeout,,,,,,,,,,,,,3,,,,,,,,,,,,,,,,,,,,,,,,,,,,,,,,,,,,,,,,,,,,,,,,,,,,,,,,,"[""strawberry.png""]","[""praline.png""]",,,,1,,,false,,1,,,,,black,white,555996.5499999234,555995.092,554970.846,554958.8099999819,555004.146,556011.742,,,,
ITI_late,canvas.Screen,2_4_2_6_1_0_0_0_0_0_4,2021-01-14T19:49:54.461Z,,,blank.png,"[""praline.png""]",blank.png,blank.png,blank.png,blank.png,blank.png,blank.png,blank.png,blank.png,blank.png,blank.png,blank.png,,,,,,,,,,,,,,,,,,,,,,,,,,,,,"[""praline.png""]","[""strawberry.png""]",PB17.png,,,,,,,,,,,0,6,"[""strawberry.png""]","[""strawberry.png""]","[""strawberry.png""]","[""strawberry.png""]","[""strawberry.png""]","[""strawberry.png""]",blank.png,PB18.png,PB18.png,"[""strawberry.png""]","[""strawberry.png""]","[""strawberry.png""]","[""strawberry.png""]","[""strawberry.png""]","[""strawberry.png""]","[""strawberry.png""]","[""strawberry.png""]","[""strawberry.png""]","[""strawberry.png""]","[""strawberry.png""]","[""strawberry.png""]",1,"[""praline.png""]",blank.png,blank.png,blank.png,6,"[""strawberry.png""]","[""strawberry.png""]","[""strawberry.png""]","[""strawberry.png""]","[""strawberry.png""]","[""strawberry.png""]",PB17.png,,,,,,,,,,,1,,,,,,,,,,,,249.8279999999795,,timeout,,,,,,,,,,,,white,3,,,,,,,,,,,,,,,,,,,,,,,,,,,,,,,,,,,,,,,,,,,,,,,,,,,,,,,,,"[""strawberry.png""]","[""praline.png""]",,,,1,,,false,,1,,,,,,,556247.1899999073,556244.92,555995.092,555998.8449999364,556011.742,556261.57,,,,
choice_sequence,flow.Sequence,2_4_2_6_1_0_0_0_0_0,2021-01-14T19:49:54.462Z,,,blank.png,"[""praline.png""]",blank.png,blank.png,blank.png,blank.png,blank.png,blank.png,blank.png,blank.png,blank.png,blank.png,blank.png,,,,,,,,,,,,,,,,,,,,,,,,,,,,,"[""praline.png""]","[""strawberry.png""]",PB17.png,,,,,,,,,,,0,6,"[""strawberry.png""]","[""strawberry.png""]","[""strawberry.png""]","[""strawberry.png""]","[""strawberry.png""]","[""strawberry.png""]",blank.png,PB18.png,PB18.png,"[""strawberry.png""]","[""strawberry.png""]","[""strawberry.png""]","[""strawberry.png""]","[""strawberry.png""]","[""strawberry.png""]","[""strawberry.png""]","[""strawberry.png""]","[""strawberry.png""]","[""strawberry.png""]","[""strawberry.png""]","[""strawberry.png""]",1,"[""praline.png""]",blank.png,blank.png,blank.png,6,"[""strawberry.png""]","[""strawberry.png""]","[""strawberry.png""]","[""strawberry.png""]","[""strawberry.png""]","[""strawberry.png""]",PB17.png,,,,,,,,,,,1,,,,,,,,,,,,9088.623000000021,,completion,,,,,,,,,,,,,3,,,,,,,,,,,,,,,,,,,,,,,,,,,,,,,,,,,,,,,,,,,,,,,,,,,,,,,,,"[""strawberry.png""]","[""praline.png""]",,,,1,,,false,,1,,,,,,,556247.9699999094,556244.92,547089.697,547138.1699999329,547156.297,556261.57,,,,
fixCross,canvas.Screen,2_4_2_6_1_0_0_0_0_1_0,2021-01-14T19:49:55.211Z,,,blank.png,"[""praline.png""]",blank.png,blank.png,blank.png,blank.png,blank.png,blank.png,blank.png,blank.png,blank.png,blank.png,blank.png,,,,,,,,,,,,,,,,,,,,,,,,,,,,,"[""praline.png""]","[""strawberry.png""]",PB16.png,,,,,,,,,,,0,6,"[""strawberry.png""]","[""strawberry.png""]","[""strawberry.png""]","[""strawberry.png""]","[""strawberry.png""]","[""strawberry.png""]",blank.png,PB18.png,PB18.png,"[""strawberry.png""]","[""strawberry.png""]","[""strawberry.png""]","[""strawberry.png""]","[""strawberry.png""]",blank.png,"[""strawberry.png""]","[""strawberry.png""]","[""strawberry.png""]","[""strawberry.png""]","[""strawberry.png""]","[""strawberry.png""]",1,"[""praline.png""]",blank.png,blank.png,blank.png,5,"[""strawberry.png""]","[""strawberry.png""]","[""strawberry.png""]","[""strawberry.png""]","[""strawberry.png""]",blank.png,PB16.png,,,,,,,,,,,1,,,,,,,,,,,,1649.7719999999972,,timeout,,,,,,,,,,,,,3,,,,,,,,,,,,,,,,,,,,,,,,,,,,,,,,,,,,,,,,,,,,,,,,,,,,,,,,,"[""strawberry.png""]","[""praline.png""]",,,,1,,,false,,1,,,,,,,556997.304999968,556995.592,556244.92,556255.5649999995,556261.57,557911.342,2,,,
timeout,canvas.Screen,2_4_2_6_1_0_0_0_0_1_1,2021-01-14T19:49:56.612Z,,,blank.png,"[""praline.png""]",blank.png,blank.png,blank.png,blank.png,blank.png,blank.png,blank.png,blank.png,blank.png,blank.png,blank.png,,,,,,,,,,,,,,,,,,,,,,,,,,,,,"[""praline.png""]","[""strawberry.png""]",PB16.png,,,,,,,,,,,0,6,"[""strawberry.png""]","[""strawberry.png""]","[""strawberry.png""]","[""strawberry.png""]","[""strawberry.png""]","[""strawberry.png""]",blank.png,PB18.png,PB18.png,"[""strawberry.png""]","[""strawberry.png""]","[""strawberry.png""]","[""strawberry.png""]","[""strawberry.png""]",blank.png,"[""strawberry.png""]","[""strawberry.png""]","[""strawberry.png""]","[""strawberry.png""]","[""strawberry.png""]","[""strawberry.png""]",1,"[""praline.png""]",blank.png,blank.png,blank.png,5,"[""strawberry.png""]","[""strawberry.png""]","[""strawberry.png""]","[""strawberry.png""]","[""strawberry.png""]",blank.png,PB16.png,,,,,,,,,,,1,,,,,,,,,,,,1451.2850000000326,,timeout,,,,,,,,,,,,,3,,,,,,,,,,,,,,,,,,,,,,,,,,,,,,,,,,,,,,,,,,,,,,,,,,,,,,,,,"[""strawberry.png""]","[""praline.png""]",,,,1,,,false,,1,,,,,,,558398.189999978,558396.927,556995.592,557923.4099999303,557911.342,559362.627,,,,
choice,canvas.Screen,2_4_2_6_1_0_0_0_0_1_2,2021-01-14T19:50:01.136Z,,,blank.png,"[""praline.png""]",blank.png,blank.png,blank.png,blank.png,blank.png,blank.png,blank.png,blank.png,blank.png,blank.png,blank.png,,,,,,,,,,,,,,,,,,,,,,,,,,,,,"[""praline.png""]","[""strawberry.png""]",PB16.png,,,,,,,,,,,0,6,"[""strawberry.png""]","[""strawberry.png""]","[""strawberry.png""]","[""strawberry.png""]","[""strawberry.png""]","[""strawberry.png""]",blank.png,PB18.png,PB18.png,"[""strawberry.png""]","[""strawberry.png""]","[""strawberry.png""]","[""strawberry.png""]","[""strawberry.png""]",blank.png,"[""strawberry.png""]","[""strawberry.png""]","[""strawberry.png""]","[""strawberry.png""]","[""strawberry.png""]","[""strawberry.png""]",1,"[""praline.png""]",blank.png,blank.png,blank.png,5,"[""strawberry.png""]","[""strawberry.png""]","[""strawberry.png""]","[""strawberry.png""]","[""strawberry.png""]",blank.png,PB16.png,,,,,,,,,,,1,,,,,,,,,,,,3556.932999951183,,response,,,,,,,,,,,,,3,,,,,,,,,,,,,,,,,,,,,,,,,,,,,,,,,,,,,,,,,,,,,,,,,,,,,,,,,"[""strawberry.png""]","[""praline.png""]",,,,1,left,keydown(ArrowLeft),false,,1,,,,,,,562922.3999999231,562919.5599999512,558396.927,559320.9949999582,559362.627,563941.437,,2,,
square,canvas.Screen,2_4_2_6_1_0_0_0_0_1_3,2021-01-14T19:50:03.158Z,,,blank.png,"[""praline.png""]",blank.png,blank.png,blank.png,blank.png,blank.png,blank.png,blank.png,blank.png,blank.png,blank.png,blank.png,,,,,,,,,,,,,,,,,,,,,,,,,,,,,"[""praline.png""]","[""strawberry.png""]",PB16.png,,,,,,,,,,,0,6,"[""strawberry.png""]","[""strawberry.png""]","[""strawberry.png""]","[""strawberry.png""]","[""strawberry.png""]","[""strawberry.png""]",blank.png,PB18.png,PB18.png,"[""strawberry.png""]","[""strawberry.png""]","[""strawberry.png""]","[""strawberry.png""]","[""strawberry.png""]",blank.png,"[""strawberry.png""]","[""strawberry.png""]","[""strawberry.png""]","[""strawberry.png""]","[""strawberry.png""]","[""strawberry.png""]",1,"[""praline.png""]",blank.png,blank.png,blank.png,5,"[""strawberry.png""]","[""strawberry.png""]","[""strawberry.png""]","[""strawberry.png""]","[""strawberry.png""]",blank.png,PB16.png,,,,,,,,,,,1,,#33ff3f,#808080,,,,,,,,,1022.9549999999581,,timeout,,,,,,,,,,,,,3,,,,,,,,,,,,,,,,,,,,,,,,,,,,,,,,,,,,,,,,,,,,,,,,,,,,,,,,,"[""strawberry.png""]","[""praline.png""]",,,,1,,,false,,1,,,,,black,white,564944.4249999942,564931.092,563908.137,563914.8699999787,563941.437,564964.392,,,,
ITI_late,canvas.Screen,2_4_2_6_1_0_0_0_0_1_4,2021-01-14T19:50:04.164Z,,,blank.png,"[""praline.png""]",blank.png,blank.png,blank.png,blank.png,blank.png,blank.png,blank.png,blank.png,blank.png,blank.png,blank.png,,,,,,,,,,,,,,,,,,,,,,,,,,,,,"[""praline.png""]","[""strawberry.png""]",PB16.png,,,,,,,,,,,0,6,"[""strawberry.png""]","[""strawberry.png""]","[""strawberry.png""]","[""strawberry.png""]","[""strawberry.png""]","[""strawberry.png""]",blank.png,PB18.png,PB18.png,"[""strawberry.png""]","[""strawberry.png""]","[""strawberry.png""]","[""strawberry.png""]","[""strawberry.png""]",blank.png,"[""strawberry.png""]","[""strawberry.png""]","[""strawberry.png""]","[""strawberry.png""]","[""strawberry.png""]","[""strawberry.png""]",1,"[""praline.png""]",blank.png,blank.png,blank.png,5,"[""strawberry.png""]","[""strawberry.png""]","[""strawberry.png""]","[""strawberry.png""]","[""strawberry.png""]",blank.png,PB16.png,,,,,,,,,,,1,,,,,,,,,,,,1000.3320000000531,,timeout,,,,,,,,,,,,white,3,,,,,,,,,,,,,,,,,,,,,,,,,,,,,,,,,,,,,,,,,,,,,,,,,,,,,,,,,"[""strawberry.png""]","[""praline.png""]",,,,1,,,false,,1,,,,,,,565949.9300000025,565948.074,564931.092,564946.704999893,564964.392,565964.724,,,,
choice_sequence,flow.Sequence,2_4_2_6_1_0_0_0_0_1,2021-01-14T19:50:04.165Z,,,blank.png,"[""praline.png""]",blank.png,blank.png,blank.png,blank.png,blank.png,blank.png,blank.png,blank.png,blank.png,blank.png,blank.png,,,,,,,,,,,,,,,,,,,,,,,,,,,,,"[""praline.png""]","[""strawberry.png""]",PB16.png,,,,,,,,,,,0,6,"[""strawberry.png""]","[""strawberry.png""]","[""strawberry.png""]","[""strawberry.png""]","[""strawberry.png""]","[""strawberry.png""]",blank.png,PB18.png,PB18.png,"[""strawberry.png""]","[""strawberry.png""]","[""strawberry.png""]","[""strawberry.png""]","[""strawberry.png""]",blank.png,"[""strawberry.png""]","[""strawberry.png""]","[""strawberry.png""]","[""strawberry.png""]","[""strawberry.png""]","[""strawberry.png""]",1,"[""praline.png""]",blank.png,blank.png,blank.png,5,"[""strawberry.png""]","[""strawberry.png""]","[""strawberry.png""]","[""strawberry.png""]","[""strawberry.png""]",blank.png,PB16.png,,,,,,,,,,,1,,,,,,,,,,,,9686.504000000074,,completion,,,,,,,,,,,,,3,,,,,,,,,,,,,,,,,,,,,,,,,,,,,,,,,,,,,,,,,,,,,,,,,,,,,,,,,"[""strawberry.png""]","[""praline.png""]",,,,1,,,false,,1,,,,,,,565951.2899999972,565948.074,556244.92,556254.2699999176,556261.57,565964.724,,,,
fixCross,canvas.Screen,2_4_2_6_1_0_0_0_0_2_0,2021-01-14T19:50:04.414Z,,,blank.png,"[""praline.png""]",blank.png,blank.png,blank.png,blank.png,blank.png,blank.png,blank.png,blank.png,blank.png,blank.png,blank.png,,,,,,,,,,,,,,,,,,,,,,,,,,,,,"[""praline.png""]","[""strawberry.png""]",PB01.png,,,,,,,,,,,0,6,"[""strawberry.png""]","[""strawberry.png""]","[""strawberry.png""]","[""strawberry.png""]","[""strawberry.png""]","[""strawberry.png""]",blank.png,PB18.png,PB18.png,blank.png,blank.png,blank.png,blank.png,blank.png,blank.png,"[""strawberry.png""]","[""strawberry.png""]","[""strawberry.png""]","[""strawberry.png""]","[""strawberry.png""]","[""strawberry.png""]",1,"[""praline.png""]",blank.png,blank.png,blank.png,0,blank.png,blank.png,blank.png,blank.png,blank.png,blank.png,PB01.png,,,,,,,,,,,1,,,,,,,,,,,,1200.310999999987,,timeout,,,,,,,,,,,,,3,,,,,,,,,,,,,,,,,,,,,,,,,,,,,,,,,,,,,,,,,,,,,,,,,,,,,,,,,"[""strawberry.png""]","[""praline.png""]",,,,1,,,false,,1,,,,,,,566200.3249999834,566199.335,565948.074,565965.7749999315,565964.724,567165.035,3,,,
timeout,canvas.Screen,2_4_2_6_1_0_0_0_0_2_1,2021-01-14T19:50:05.864Z,,,blank.png,"[""praline.png""]",blank.png,blank.png,blank.png,blank.png,blank.png,blank.png,blank.png,blank.png,blank.png,blank.png,blank.png,,,,,,,,,,,,,,,,,,,,,,,,,,,,,"[""praline.png""]","[""strawberry.png""]",PB01.png,,,,,,,,,,,0,6,"[""strawberry.png""]","[""strawberry.png""]","[""strawberry.png""]","[""strawberry.png""]","[""strawberry.png""]","[""strawberry.png""]",blank.png,PB18.png,PB18.png,blank.png,blank.png,blank.png,blank.png,blank.png,blank.png,"[""strawberry.png""]","[""strawberry.png""]","[""strawberry.png""]","[""strawberry.png""]","[""strawberry.png""]","[""strawberry.png""]",1,"[""praline.png""]",blank.png,blank.png,blank.png,0,blank.png,blank.png,blank.png,blank.png,blank.png,blank.png,PB01.png,,,,,,,,,,,1,,,,,,,,,,,,1416.689000000013,,timeout,,,,,,,,,,,,,3,,,,,,,,,,,,,,,,,,,,,,,,,,,,,,,,,,,,,,,,,,,,,,,,,,,,,,,,,"[""strawberry.png""]","[""praline.png""]",,,,1,,,false,,1,,,,,,,567650.6799999624,567649.324,566199.335,567178.3699999796,567165.035,568581.724,,,,
choice,canvas.Screen,2_4_2_6_1_0_0_0_0_2_2,2021-01-14T19:50:09.773Z,,,blank.png,"[""praline.png""]",blank.png,blank.png,blank.png,blank.png,blank.png,blank.png,blank.png,blank.png,blank.png,blank.png,blank.png,,,,,,,,,,,,,,,,,,,,,,,,,,,,,"[""praline.png""]","[""strawberry.png""]",PB01.png,,,,,,,,,,,0,6,"[""strawberry.png""]","[""strawberry.png""]","[""strawberry.png""]","[""strawberry.png""]","[""strawberry.png""]","[""strawberry.png""]",blank.png,PB18.png,PB18.png,blank.png,blank.png,blank.png,blank.png,blank.png,blank.png,"[""strawberry.png""]","[""strawberry.png""]","[""strawberry.png""]","[""strawberry.png""]","[""strawberry.png""]","[""strawberry.png""]",1,"[""praline.png""]",blank.png,blank.png,blank.png,0,blank.png,blank.png,blank.png,blank.png,blank.png,blank.png,PB01.png,,,,,,,,,,,1,,,,,,,,,,,,2974.8459998987382,,response,,,,,,,,,,,,,3,,,,,,,,,,,,,,,,,,,,,,,,,,,,,,,,,,,,,,,,,,,,,,,,,,,,,,,,,"[""strawberry.png""]","[""praline.png""]",,,,1,right,keydown(ArrowRight),false,,1,,,,,,,571559.0349999256,571556.5699998988,567649.324,568570.464999997,568581.724,572279.787,,3,,
square,canvas.Screen,2_4_2_6_1_0_0_0_0_2_3,2021-01-14T19:50:11.484Z,,,blank.png,"[""praline.png""]",blank.png,blank.png,blank.png,blank.png,blank.png,blank.png,blank.png,blank.png,blank.png,blank.png,blank.png,,,,,,,,,,,,,,,,,,,,,,,,,,,,,"[""praline.png""]","[""strawberry.png""]",PB01.png,,,,,,,,,,,0,6,"[""strawberry.png""]","[""strawberry.png""]","[""strawberry.png""]","[""strawberry.png""]","[""strawberry.png""]","[""strawberry.png""]",blank.png,PB18.png,PB18.png,blank.png,blank.png,blank.png,blank.png,blank.png,blank.png,"[""strawberry.png""]","[""strawberry.png""]","[""strawberry.png""]","[""strawberry.png""]","[""strawberry.png""]","[""strawberry.png""]",1,"[""praline.png""]",blank.png,blank.png,blank.png,0,blank.png,blank.png,blank.png,blank.png,blank.png,blank.png,PB01.png,,,,,,,,,,,1,,#808080,#33ff3f,,,,,,,,,1005.4470000000438,,timeout,,,,,,,,,,,,,3,,,,,,,,,,,,,,,,,,,,,,,,,,,,,,,,,,,,,,,,,,,,,,,,,,,,,,,,,"[""strawberry.png""]","[""praline.png""]",,,,1,,,false,,1,,,,,white,black,573270.5049999058,573268.584,572263.137,572240.5499999877,572279.787,573285.234,,,,
ITI_late,canvas.Screen,2_4_2_6_1_0_0_0_0_2_4,2021-01-14T19:50:12.234Z,,,blank.png,"[""praline.png""]",blank.png,blank.png,blank.png,blank.png,blank.png,blank.png,blank.png,blank.png,blank.png,blank.png,blank.png,,,,,,,,,,,,,,,,,,,,,,,,,,,,,"[""praline.png""]","[""strawberry.png""]",PB01.png,,,,,,,,,,,0,6,"[""strawberry.png""]","[""strawberry.png""]","[""strawberry.png""]","[""strawberry.png""]","[""strawberry.png""]","[""strawberry.png""]",blank.png,PB18.png,PB18.png,blank.png,blank.png,blank.png,blank.png,blank.png,blank.png,"[""strawberry.png""]","[""strawberry.png""]","[""strawberry.png""]","[""strawberry.png""]","[""strawberry.png""]","[""strawberry.png""]",1,"[""praline.png""]",blank.png,blank.png,blank.png,0,blank.png,blank.png,blank.png,blank.png,blank.png,blank.png,PB01.png,,,,,,,,,,,1,,,,,,,,,,,,750.140999999945,,timeout,,,,,,,,,,,,white,3,,,,,,,,,,,,,,,,,,,,,,,,,,,,,,,,,,,,,,,,,,,,,,,,,,,,,,,,,"[""strawberry.png""]","[""praline.png""]",,,,1,,,false,,1,,,,,,,574020.5399999395,574018.725,573268.584,573274.134999956,573285.234,574035.375,,,,
choice_sequence,flow.Sequence,2_4_2_6_1_0_0_0_0_2,2021-01-14T19:50:12.235Z,,,blank.png,"[""praline.png""]",blank.png,blank.png,blank.png,blank.png,blank.png,blank.png,blank.png,blank.png,blank.png,blank.png,blank.png,,,,,,,,,,,,,,,,,,,,,,,,,,,,,"[""praline.png""]","[""strawberry.png""]",PB01.png,,,,,,,,,,,0,6,"[""strawberry.png""]","[""strawberry.png""]","[""strawberry.png""]","[""strawberry.png""]","[""strawberry.png""]","[""strawberry.png""]",blank.png,PB18.png,PB18.png,blank.png,blank.png,blank.png,blank.png,blank.png,blank.png,"[""strawberry.png""]","[""strawberry.png""]","[""strawberry.png""]","[""strawberry.png""]","[""strawberry.png""]","[""strawberry.png""]",1,"[""praline.png""]",blank.png,blank.png,blank.png,0,blank.png,blank.png,blank.png,blank.png,blank.png,blank.png,PB01.png,,,,,,,,,,,1,,,,,,,,,,,,8054.000999999931,,completion,,,,,,,,,,,,,3,,,,,,,,,,,,,,,,,,,,,,,,,,,,,,,,,,,,,,,,,,,,,,,,,,,,,,,,,"[""strawberry.png""]","[""praline.png""]",,,,1,,,false,,1,,,,,,,574021.1949999211,574018.725,565948.074,565962.3649999266,565964.724,574035.375,,,,
fixCross,canvas.Screen,2_4_2_6_1_0_0_0_0_3_0,2021-01-14T19:50:12.485Z,,,blank.png,blank.png,blank.png,blank.png,blank.png,blank.png,blank.png,"[""praline.png""]",blank.png,blank.png,blank.png,blank.png,blank.png,,,,,,,,,,,,,,,,,,,,,,,,,,,,,"[""praline.png""]","[""strawberry.png""]",PB18.png,,,,,,,,,,,0,6,"[""strawberry.png""]","[""strawberry.png""]","[""strawberry.png""]","[""strawberry.png""]","[""strawberry.png""]","[""strawberry.png""]",blank.png,PB18.png,PB07.png,"[""strawberry.png""]","[""strawberry.png""]","[""strawberry.png""]","[""strawberry.png""]","[""strawberry.png""]","[""strawberry.png""]","[""strawberry.png""]",blank.png,blank.png,blank.png,blank.png,blank.png,1,"[""praline.png""]",blank.png,blank.png,blank.png,1,"[""strawberry.png""]",blank.png,blank.png,blank.png,blank.png,blank.png,PB07.png,,,,,,,,,,,1,,,,,,,,,,,,950.4749999999767,,timeout,,,,,,,,,,,,,4,,,,,,,,,,,,,,,,,,,,,,,,,,,,,,,,,,,,,,,,,,,,,,,,,,,,,,,,,"[""strawberry.png""]","[""praline.png""]",,,,1,,,false,,1,,,,,,,574270.9299999988,574269.9,574018.725,574028.2799999695,574035.375,574985.85,4,,,
timeout,canvas.Screen,2_4_2_6_1_0_0_0_0_3_1,2021-01-14T19:50:13.685Z,,,blank.png,blank.png,blank.png,blank.png,blank.png,blank.png,blank.png,"[""praline.png""]",blank.png,blank.png,blank.png,blank.png,blank.png,,,,,,,,,,,,,,,,,,,,,,,,,,,,,"[""praline.png""]","[""strawberry.png""]",PB18.png,,,,,,,,,,,0,6,"[""strawberry.png""]","[""strawberry.png""]","[""strawberry.png""]","[""strawberry.png""]","[""strawberry.png""]","[""strawberry.png""]",blank.png,PB18.png,PB07.png,"[""strawberry.png""]","[""strawberry.png""]","[""strawberry.png""]","[""strawberry.png""]","[""strawberry.png""]","[""strawberry.png""]","[""strawberry.png""]",blank.png,blank.png,blank.png,blank.png,blank.png,1,"[""praline.png""]",blank.png,blank.png,blank.png,1,"[""strawberry.png""]",blank.png,blank.png,blank.png,blank.png,blank.png,PB07.png,,,,,,,,,,,1,,,,,,,,,,,,1216.5520000000251,,timeout,,,,,,,,,,,,,4,,,,,,,,,,,,,,,,,,,,,,,,,,,,,,,,,,,,,,,,,,,,,,,,,,,,,,,,,"[""strawberry.png""]","[""praline.png""]",,,,1,,,false,,1,,,,,,,575471.2399999844,575469.802,574269.9,574994.7349999566,574985.85,576202.402,,,,
choice,canvas.Screen,2_4_2_6_1_0_0_0_0_3_2,2021-01-14T19:50:19.967Z,,,blank.png,blank.png,blank.png,blank.png,blank.png,blank.png,blank.png,"[""praline.png""]",blank.png,blank.png,blank.png,blank.png,blank.png,,,,,,,,,,,,,,,,,,,,,,,,,,,,,"[""praline.png""]","[""strawberry.png""]",PB18.png,,,,,,,,,,,0,6,"[""strawberry.png""]","[""strawberry.png""]","[""strawberry.png""]","[""strawberry.png""]","[""strawberry.png""]","[""strawberry.png""]",blank.png,PB18.png,PB07.png,"[""strawberry.png""]","[""strawberry.png""]","[""strawberry.png""]","[""strawberry.png""]","[""strawberry.png""]","[""strawberry.png""]","[""strawberry.png""]",blank.png,blank.png,blank.png,blank.png,blank.png,1,"[""praline.png""]",blank.png,blank.png,blank.png,1,"[""strawberry.png""]",blank.png,blank.png,blank.png,blank.png,blank.png,PB07.png,,,,,,,,,,,1,,,,,,,,,,,,5548.397999921581,,response,,,,,,,,,,,,,4,,,,,,,,,,,,,,,,,,,,,,,,,,,,,,,,,,,,,,,,,,,,,,,,,,,,,,,,,"[""strawberry.png""]","[""praline.png""]",,,,1,left,keydown(ArrowLeft),false,,1,,,,,,,581753.5349999089,581750.7999999216,575469.802,576201.8849999877,576202.402,582497.568,,4,,
square,canvas.Screen,2_4_2_6_1_0_0_0_0_3_3,2021-01-14T19:50:21.688Z,,,blank.png,blank.png,blank.png,blank.png,blank.png,blank.png,blank.png,"[""praline.png""]",blank.png,blank.png,blank.png,blank.png,blank.png,,,,,,,,,,,,,,,,,,,,,,,,,,,,,"[""praline.png""]","[""strawberry.png""]",PB18.png,,,,,,,,,,,0,6,"[""strawberry.png""]","[""strawberry.png""]","[""strawberry.png""]","[""strawberry.png""]","[""strawberry.png""]","[""strawberry.png""]",blank.png,PB18.png,PB07.png,"[""strawberry.png""]","[""strawberry.png""]","[""strawberry.png""]","[""strawberry.png""]","[""strawberry.png""]","[""strawberry.png""]","[""strawberry.png""]",blank.png,blank.png,blank.png,blank.png,blank.png,1,"[""praline.png""]",blank.png,blank.png,blank.png,1,"[""strawberry.png""]",blank.png,blank.png,blank.png,blank.png,blank.png,PB07.png,,,,,,,,,,,1,,#33ff3f,#808080,,,,,,,,,993.1199999999953,,timeout,,,,,,,,,,,,,4,,,,,,,,,,,,,,,,,,,,,,,,,,,,,,,,,,,,,,,,,,,,,,,,,,,,,,,,,"[""strawberry.png""]","[""praline.png""]",,,,1,,,false,,1,,,,,black,white,583475.1099999994,583474.038,582464.268,582467.3349999357,582497.568,583490.688,,,,
ITI_late,canvas.Screen,2_4_2_6_1_0_0_0_0_3_4,2021-01-14T19:50:22.438Z,,,blank.png,blank.png,blank.png,blank.png,blank.png,blank.png,blank.png,"[""praline.png""]",blank.png,blank.png,blank.png,blank.png,blank.png,,,,,,,,,,,,,,,,,,,,,,,,,,,,,"[""praline.png""]","[""strawberry.png""]",PB18.png,,,,,,,,,,,0,6,"[""strawberry.png""]","[""strawberry.png""]","[""strawberry.png""]","[""strawberry.png""]","[""strawberry.png""]","[""strawberry.png""]",blank.png,PB18.png,PB07.png,"[""strawberry.png""]","[""strawberry.png""]","[""strawberry.png""]","[""strawberry.png""]","[""strawberry.png""]","[""strawberry.png""]","[""strawberry.png""]",blank.png,blank.png,blank.png,blank.png,blank.png,1,"[""praline.png""]",blank.png,blank.png,blank.png,1,"[""strawberry.png""]",blank.png,blank.png,blank.png,blank.png,blank.png,PB07.png,,,,,,,,,,,1,,,,,,,,,,,,749.3240000000224,,timeout,,,,,,,,,,,,black,4,,,,,,,,,,,,,,,,,,,,,,,,,,,,,,,,,,,,,,,,,,,,,,,,,,,,,,,,,"[""strawberry.png""]","[""praline.png""]",,,,1,,,false,,1,,,,,,,584225.0849999255,584223.362,583474.038,583477.4549999274,583490.688,584240.012,,,,
choice_sequence,flow.Sequence,2_4_2_6_1_0_0_0_0_3,2021-01-14T19:50:22.439Z,,,blank.png,blank.png,blank.png,blank.png,blank.png,blank.png,blank.png,"[""praline.png""]",blank.png,blank.png,blank.png,blank.png,blank.png,,,,,,,,,,,,,,,,,,,,,,,,,,,,,"[""praline.png""]","[""strawberry.png""]",PB18.png,,,,,,,,,,,0,6,"[""strawberry.png""]","[""strawberry.png""]","[""strawberry.png""]","[""strawberry.png""]","[""strawberry.png""]","[""strawberry.png""]",blank.png,PB18.png,PB07.png,"[""strawberry.png""]","[""strawberry.png""]","[""strawberry.png""]","[""strawberry.png""]","[""strawberry.png""]","[""strawberry.png""]","[""strawberry.png""]",blank.png,blank.png,blank.png,blank.png,blank.png,1,"[""praline.png""]",blank.png,blank.png,blank.png,1,"[""strawberry.png""]",blank.png,blank.png,blank.png,blank.png,blank.png,PB07.png,,,,,,,,,,,1,,,,,,,,,,,,10187.986999999965,,completion,,,,,,,,,,,,,4,,,,,,,,,,,,,,,,,,,,,,,,,,,,,,,,,,,,,,,,,,,,,,,,,,,,,,,,,"[""strawberry.png""]","[""praline.png""]",,,,1,,,false,,1,,,,,,,584225.7499999832,584223.362,574018.725,574027.1399999037,574035.375,584240.012,,,,
fixCross,canvas.Screen,2_4_2_6_1_0_0_0_0_4_0,2021-01-14T19:50:22.739Z,,,blank.png,blank.png,blank.png,blank.png,blank.png,blank.png,blank.png,"[""praline.png""]",blank.png,blank.png,blank.png,blank.png,blank.png,,,,,,,,,,,,,,,,,,,,,,,,,,,,,"[""praline.png""]","[""strawberry.png""]",PB18.png,,,,,,,,,,,0,6,"[""strawberry.png""]","[""strawberry.png""]","[""strawberry.png""]","[""strawberry.png""]","[""strawberry.png""]","[""strawberry.png""]",blank.png,PB18.png,PB12.png,"[""strawberry.png""]","[""strawberry.png""]","[""strawberry.png""]","[""strawberry.png""]","[""strawberry.png""]","[""strawberry.png""]","[""strawberry.png""]","[""strawberry.png""]",blank.png,blank.png,blank.png,blank.png,1,"[""praline.png""]",blank.png,blank.png,blank.png,2,"[""strawberry.png""]","[""strawberry.png""]",blank.png,blank.png,blank.png,blank.png,PB12.png,,,,,,,,,,,1,,,,,,,,,,,,1050.2719999999972,,timeout,,,,,,,,,,,,,4,,,,,,,,,,,,,,,,,,,,,,,,,,,,,,,,,,,,,,,,,,,,,,,,,,,,,,,,,"[""strawberry.png""]","[""praline.png""]",,,,1,,,false,,1,,,,,,,584526.0399999097,584524.384,584223.362,584232.0249999175,584240.012,585290.284,5,,,
timeout,canvas.Screen,2_4_2_6_1_0_0_0_0_4_1,2021-01-14T19:50:23.989Z,,,blank.png,blank.png,blank.png,blank.png,blank.png,blank.png,blank.png,"[""praline.png""]",blank.png,blank.png,blank.png,blank.png,blank.png,,,,,,,,,,,,,,,,,,,,,,,,,,,,,"[""praline.png""]","[""strawberry.png""]",PB18.png,,,,,,,,,,,0,6,"[""strawberry.png""]","[""strawberry.png""]","[""strawberry.png""]","[""strawberry.png""]","[""strawberry.png""]","[""strawberry.png""]",blank.png,PB18.png,PB12.png,"[""strawberry.png""]","[""strawberry.png""]","[""strawberry.png""]","[""strawberry.png""]","[""strawberry.png""]","[""strawberry.png""]","[""strawberry.png""]","[""strawberry.png""]",blank.png,blank.png,blank.png,blank.png,1,"[""praline.png""]",blank.png,blank.png,blank.png,2,"[""strawberry.png""]","[""strawberry.png""]",blank.png,blank.png,blank.png,blank.png,PB12.png,,,,,,,,,,,1,,,,,,,,,,,,1316.4309999999823,,timeout,,,,,,,,,,,,,4,,,,,,,,,,,,,,,,,,,,,,,,,,,,,,,,,,,,,,,,,,,,,,,,,,,,,,,,,"[""strawberry.png""]","[""praline.png""]",,,,1,,,false,,1,,,,,,,585776.1149998987,585774.215,584524.384,585309.9749999819,585290.284,586606.715,,,,
choice,canvas.Screen,2_4_2_6_1_0_0_0_0_4_2,2021-01-14T19:50:25.357Z,,,blank.png,blank.png,blank.png,blank.png,blank.png,blank.png,blank.png,"[""praline.png""]",blank.png,blank.png,blank.png,blank.png,blank.png,,,,,,,,,,,,,,,,,,,,,,,,,,,,,"[""praline.png""]","[""strawberry.png""]",PB18.png,,,,,,,,,,,0,6,"[""strawberry.png""]","[""strawberry.png""]","[""strawberry.png""]","[""strawberry.png""]","[""strawberry.png""]","[""strawberry.png""]",blank.png,PB18.png,PB12.png,"[""strawberry.png""]","[""strawberry.png""]","[""strawberry.png""]","[""strawberry.png""]","[""strawberry.png""]","[""strawberry.png""]","[""strawberry.png""]","[""strawberry.png""]",blank.png,blank.png,blank.png,blank.png,1,"[""praline.png""]",blank.png,blank.png,blank.png,2,"[""strawberry.png""]","[""strawberry.png""]",blank.png,blank.png,blank.png,blank.png,PB12.png,,,,,,,,,,,1,,,,,,,,,,,,535.6449999398319,,response,,,,,,,,,,,,,4,,,,,,,,,,,,,,,,,,,,,,,,,,,,,,,,,,,,,,,,,,,,,,,,,,,,,,,,,"[""strawberry.png""]","[""praline.png""]",,,,1,right,keydown(ArrowRight),false,,1,,,,,,,587144.0349998884,587142.3599999398,585774.215,586597.1699999645,586606.715,587923.652,,5,,
square,canvas.Screen,2_4_2_6_1_0_0_0_0_4_3,2021-01-14T19:50:27.125Z,,,blank.png,blank.png,blank.png,blank.png,blank.png,blank.png,blank.png,"[""praline.png""]",blank.png,blank.png,blank.png,blank.png,blank.png,,,,,,,,,,,,,,,,,,,,,,,,,,,,,"[""praline.png""]","[""strawberry.png""]",PB18.png,,,,,,,,,,,0,6,"[""strawberry.png""]","[""strawberry.png""]","[""strawberry.png""]","[""strawberry.png""]","[""strawberry.png""]","[""strawberry.png""]",blank.png,PB18.png,PB12.png,"[""strawberry.png""]","[""strawberry.png""]","[""strawberry.png""]","[""strawberry.png""]","[""strawberry.png""]","[""strawberry.png""]","[""strawberry.png""]","[""strawberry.png""]",blank.png,blank.png,blank.png,blank.png,1,"[""praline.png""]",blank.png,blank.png,blank.png,2,"[""strawberry.png""]","[""strawberry.png""]",blank.png,blank.png,blank.png,blank.png,PB12.png,,,,,,,,,,,1,,#808080,#33ff3f,,,,,,,,,1001.7439999999478,,timeout,,,,,,,,,,,,,4,,,,,,,,,,,,,,,,,,,,,,,,,,,,,,,,,,,,,,,,,,,,,,,,,,,,,,,,,"[""strawberry.png""]","[""praline.png""]",,,,1,,,false,,1,,,,,white,black,588911.509999889,588908.746,587907.002,587922.6399998879,587923.652,588925.396,,,,
ITI_late,canvas.Screen,2_4_2_6_1_0_0_0_0_4_4,2021-01-14T19:50:27.376Z,,,blank.png,blank.png,blank.png,blank.png,blank.png,blank.png,blank.png,"[""praline.png""]",blank.png,blank.png,blank.png,blank.png,blank.png,,,,,,,,,,,,,,,,,,,,,,,,,,,,,"[""praline.png""]","[""strawberry.png""]",PB18.png,,,,,,,,,,,0,6,"[""strawberry.png""]","[""strawberry.png""]","[""strawberry.png""]","[""strawberry.png""]","[""strawberry.png""]","[""strawberry.png""]",blank.png,PB18.png,PB12.png,"[""strawberry.png""]","[""strawberry.png""]","[""strawberry.png""]","[""strawberry.png""]","[""strawberry.png""]","[""strawberry.png""]","[""strawberry.png""]","[""strawberry.png""]",blank.png,blank.png,blank.png,blank.png,1,"[""praline.png""]",blank.png,blank.png,blank.png,2,"[""strawberry.png""]","[""strawberry.png""]",blank.png,blank.png,blank.png,blank.png,PB12.png,,,,,,,,,,,1,,,,,,,,,,,,252.1930000000866,,timeout,,,,,,,,,,,,white,4,,,,,,,,,,,,,,,,,,,,,,,,,,,,,,,,,,,,,,,,,,,,,,,,,,,,,,,,,"[""strawberry.png""]","[""praline.png""]",,,,1,,,false,,1,,,,,,,589163.0349999759,589160.939,588908.746,588914.13499997,588925.396,589177.589,,,,
choice_sequence,flow.Sequence,2_4_2_6_1_0_0_0_0_4,2021-01-14T19:50:27.377Z,,,blank.png,blank.png,blank.png,blank.png,blank.png,blank.png,blank.png,"[""praline.png""]",blank.png,blank.png,blank.png,blank.png,blank.png,,,,,,,,,,,,,,,,,,,,,,,,,,,,,"[""praline.png""]","[""strawberry.png""]",PB18.png,,,,,,,,,,,0,6,"[""strawberry.png""]","[""strawberry.png""]","[""strawberry.png""]","[""strawberry.png""]","[""strawberry.png""]","[""strawberry.png""]",blank.png,PB18.png,PB12.png,"[""strawberry.png""]","[""strawberry.png""]","[""strawberry.png""]","[""strawberry.png""]","[""strawberry.png""]","[""strawberry.png""]","[""strawberry.png""]","[""strawberry.png""]",blank.png,blank.png,blank.png,blank.png,1,"[""praline.png""]",blank.png,blank.png,blank.png,2,"[""strawberry.png""]","[""strawberry.png""]",blank.png,blank.png,blank.png,blank.png,PB12.png,,,,,,,,,,,1,,,,,,,,,,,,4920.927000000025,,completion,,,,,,,,,,,,,4,,,,,,,,,,,,,,,,,,,,,,,,,,,,,,,,,,,,,,,,,,,,,,,,,,,,,,,,,"[""strawberry.png""]","[""praline.png""]",,,,1,,,false,,1,,,,,,,589163.7799999444,589160.939,584223.362,584230.9149999637,584240.012,589177.589,,,,
fixCross,canvas.Screen,2_4_2_6_1_0_0_0_0_5_0,2021-01-14T19:50:28.075Z,,,blank.png,"[""praline.png""]",blank.png,blank.png,blank.png,blank.png,blank.png,blank.png,blank.png,blank.png,blank.png,blank.png,blank.png,,,,,,,,,,,,,,,,,,,,,,,,,,,,,"[""praline.png""]","[""strawberry.png""]",PB14.png,,,,,,,,,,,0,6,"[""strawberry.png""]","[""strawberry.png""]","[""strawberry.png""]","[""strawberry.png""]","[""strawberry.png""]","[""strawberry.png""]",blank.png,PB18.png,PB18.png,"[""strawberry.png""]","[""strawberry.png""]","[""strawberry.png""]",blank.png,blank.png,blank.png,"[""strawberry.png""]","[""strawberry.png""]","[""strawberry.png""]","[""strawberry.png""]","[""strawberry.png""]","[""strawberry.png""]",1,"[""praline.png""]",blank.png,blank.png,blank.png,3,"[""strawberry.png""]","[""strawberry.png""]","[""strawberry.png""]",blank.png,blank.png,blank.png,PB14.png,,,,,,,,,,,1,,,,,,,,,,,,1498.8800000000047,,timeout,,,,,,,,,,,,,3,,,,,,,,,,,,,,,,,,,,,,,,,,,,,,,,,,,,,,,,,,,,,,,,,,,,,,,,,"[""strawberry.png""]","[""praline.png""]",,,,1,,,false,,1,,,,,,,589861.9649999309,589860.619,589160.939,589170.5199999269,589177.589,590676.469,6,,,
timeout,canvas.Screen,2_4_2_6_1_0_0_0_0_5_1,2021-01-14T19:50:29.375Z,,,blank.png,"[""praline.png""]",blank.png,blank.png,blank.png,blank.png,blank.png,blank.png,blank.png,blank.png,blank.png,blank.png,blank.png,,,,,,,,,,,,,,,,,,,,,,,,,,,,,"[""praline.png""]","[""strawberry.png""]",PB14.png,,,,,,,,,,,0,6,"[""strawberry.png""]","[""strawberry.png""]","[""strawberry.png""]","[""strawberry.png""]","[""strawberry.png""]","[""strawberry.png""]",blank.png,PB18.png,PB18.png,"[""strawberry.png""]","[""strawberry.png""]","[""strawberry.png""]",blank.png,blank.png,blank.png,"[""strawberry.png""]","[""strawberry.png""]","[""strawberry.png""]","[""strawberry.png""]","[""strawberry.png""]","[""strawberry.png""]",1,"[""praline.png""]",blank.png,blank.png,blank.png,3,"[""strawberry.png""]","[""strawberry.png""]","[""strawberry.png""]",blank.png,blank.png,blank.png,PB14.png,,,,,,,,,,,1,,,,,,,,,,,,1399.2419999999693,,timeout,,,,,,,,,,,,,3,,,,,,,,,,,,,,,,,,,,,,,,,,,,,,,,,,,,,,,,,,,,,,,,,,,,,,,,,"[""strawberry.png""]","[""praline.png""]",,,,1,,,false,,1,,,,,,,591161.7249998963,591159.961,589860.619,590691.839999985,590676.469,592075.711,,,,
choice,canvas.Screen,2_4_2_6_1_0_0_0_0_5_2,2021-01-14T19:50:30.294Z,,,blank.png,"[""praline.png""]",blank.png,blank.png,blank.png,blank.png,blank.png,blank.png,blank.png,blank.png,blank.png,blank.png,blank.png,,,,,,,,,,,,,,,,,,,,,,,,,,,,,"[""praline.png""]","[""strawberry.png""]",PB14.png,,,,,,,,,,,0,6,"[""strawberry.png""]","[""strawberry.png""]","[""strawberry.png""]","[""strawberry.png""]","[""strawberry.png""]","[""strawberry.png""]",blank.png,PB18.png,PB18.png,"[""strawberry.png""]","[""strawberry.png""]","[""strawberry.png""]",blank.png,blank.png,blank.png,"[""strawberry.png""]","[""strawberry.png""]","[""strawberry.png""]","[""strawberry.png""]","[""strawberry.png""]","[""strawberry.png""]",1,"[""praline.png""]",blank.png,blank.png,blank.png,3,"[""strawberry.png""]","[""strawberry.png""]","[""strawberry.png""]",blank.png,blank.png,blank.png,PB14.png,,,,,,,,,,,1,,,,,,,,,,,,861.4189999328228,,response,,,,,,,,,,,,,3,,,,,,,,,,,,,,,,,,,,,,,,,,,,,,,,,,,,,,,,,,,,,,,,,,,,,,,,,"[""strawberry.png""]","[""praline.png""]",,,,1,left,keydown(ArrowLeft),false,,1,,,,,,,592080.6899999734,592021.3799999328,591159.961,592067.06999999,,592978.323,,6,,
square,canvas.Screen,2_4_2_6_1_0_0_0_0_5_3,2021-01-14T19:50:32.176Z,,,blank.png,"[""praline.png""]",blank.png,blank.png,blank.png,blank.png,blank.png,blank.png,blank.png,blank.png,blank.png,blank.png,blank.png,,,,,,,,,,,,,,,,,,,,,,,,,,,,,"[""praline.png""]","[""strawberry.png""]",PB14.png,,,,,,,,,,,0,6,"[""strawberry.png""]","[""strawberry.png""]","[""strawberry.png""]","[""strawberry.png""]","[""strawberry.png""]","[""strawberry.png""]",blank.png,PB18.png,PB18.png,"[""strawberry.png""]","[""strawberry.png""]","[""strawberry.png""]",blank.png,blank.png,blank.png,"[""strawberry.png""]","[""strawberry.png""]","[""strawberry.png""]","[""strawberry.png""]","[""strawberry.png""]","[""strawberry.png""]",1,"[""praline.png""]",blank.png,blank.png,blank.png,3,"[""strawberry.png""]","[""strawberry.png""]","[""strawberry.png""]",blank.png,blank.png,blank.png,PB14.png,,,,,,,,,,,1,,#33ff3f,#808080,,,,,,,,,1000.2970000000205,,timeout,,,,,,,,,,,,,3,,,,,,,,,,,,,,,,,,,,,,,,,,,,,,,,,,,,,,,,,,,,,,,,,,,,,,,,,"[""strawberry.png""]","[""praline.png""]",,,,1,,,false,,1,,,,,black,white,593963.0999999354,593961.97,592075.711,592973.4199999366,592978.323,593978.62,,,,
ITI_late,canvas.Screen,2_4_2_6_1_0_0_0_0_5_4,2021-01-14T19:50:33.426Z,,,blank.png,"[""praline.png""]",blank.png,blank.png,blank.png,blank.png,blank.png,blank.png,blank.png,blank.png,blank.png,blank.png,blank.png,,,,,,,,,,,,,,,,,,,,,,,,,,,,,"[""praline.png""]","[""strawberry.png""]",PB14.png,,,,,,,,,,,0,6,"[""strawberry.png""]","[""strawberry.png""]","[""strawberry.png""]","[""strawberry.png""]","[""strawberry.png""]","[""strawberry.png""]",blank.png,PB18.png,PB18.png,"[""strawberry.png""]","[""strawberry.png""]","[""strawberry.png""]",blank.png,blank.png,blank.png,"[""strawberry.png""]","[""strawberry.png""]","[""strawberry.png""]","[""strawberry.png""]","[""strawberry.png""]","[""strawberry.png""]",1,"[""praline.png""]",blank.png,blank.png,blank.png,3,"[""strawberry.png""]","[""strawberry.png""]","[""strawberry.png""]",blank.png,blank.png,blank.png,PB14.png,,,,,,,,,,,1,,,,,,,,,,,,1248.7970000000205,,timeout,,,,,,,,,,,,white,3,,,,,,,,,,,,,,,,,,,,,,,,,,,,,,,,,,,,,,,,,,,,,,,,,,,,,,,,,"[""strawberry.png""]","[""praline.png""]",,,,1,,,false,,1,,,,,,,595212.5149999047,595210.767,593961.97,593965.3199999593,593978.62,595227.417,,,,
choice_sequence,flow.Sequence,2_4_2_6_1_0_0_0_0_5,2021-01-14T19:50:33.426Z,,,blank.png,"[""praline.png""]",blank.png,blank.png,blank.png,blank.png,blank.png,blank.png,blank.png,blank.png,blank.png,blank.png,blank.png,,,,,,,,,,,,,,,,,,,,,,,,,,,,,"[""praline.png""]","[""strawberry.png""]",PB14.png,,,,,,,,,,,0,6,"[""strawberry.png""]","[""strawberry.png""]","[""strawberry.png""]","[""strawberry.png""]","[""strawberry.png""]","[""strawberry.png""]",blank.png,PB18.png,PB18.png,"[""strawberry.png""]","[""strawberry.png""]","[""strawberry.png""]",blank.png,blank.png,blank.png,"[""strawberry.png""]","[""strawberry.png""]","[""strawberry.png""]","[""strawberry.png""]","[""strawberry.png""]","[""strawberry.png""]",1,"[""praline.png""]",blank.png,blank.png,blank.png,3,"[""strawberry.png""]","[""strawberry.png""]","[""strawberry.png""]",blank.png,blank.png,blank.png,PB14.png,,,,,,,,,,,1,,,,,,,,,,,,6033.177999999956,,completion,,,,,,,,,,,,,3,,,,,,,,,,,,,,,,,,,,,,,,,,,,,,,,,,,,,,,,,,,,,,,,,,,,,,,,,"[""strawberry.png""]","[""praline.png""]",,,,1,,,false,,1,,,,,,,595213.1850000005,595210.767,589160.939,589169.2699999548,589177.589,595227.417,,,,
fixCross,canvas.Screen,2_4_2_6_1_0_0_0_0_6_0,2021-01-14T19:50:33.776Z,,,blank.png,"[""praline.png""]",blank.png,blank.png,blank.png,blank.png,blank.png,blank.png,blank.png,blank.png,blank.png,blank.png,blank.png,,,,,,,,,,,,,,,,,,,,,,,,,,,,,"[""praline.png""]","[""strawberry.png""]",PB15.png,,,,,,,,,,,0,6,"[""strawberry.png""]","[""strawberry.png""]","[""strawberry.png""]","[""strawberry.png""]","[""strawberry.png""]","[""strawberry.png""]",blank.png,PB18.png,PB18.png,"[""strawberry.png""]","[""strawberry.png""]","[""strawberry.png""]","[""strawberry.png""]",blank.png,blank.png,"[""strawberry.png""]","[""strawberry.png""]","[""strawberry.png""]","[""strawberry.png""]","[""strawberry.png""]","[""strawberry.png""]",1,"[""praline.png""]",blank.png,blank.png,blank.png,4,"[""strawberry.png""]","[""strawberry.png""]","[""strawberry.png""]","[""strawberry.png""]",blank.png,blank.png,PB15.png,,,,,,,,,,,1,,,,,,,,,,,,1200.204000000027,,timeout,,,,,,,,,,,,,3,,,,,,,,,,,,,,,,,,,,,,,,,,,,,,,,,,,,,,,,,,,,,,,,,,,,,,,,,"[""strawberry.png""]","[""praline.png""]",,,,1,,,false,,1,,,,,,,595563.194999937,595561.821,595210.767,595219.8599999538,595227.417,596427.621,7,,,
timeout,canvas.Screen,2_4_2_6_1_0_0_0_0_6_1,2021-01-14T19:50:35.127Z,,,blank.png,"[""praline.png""]",blank.png,blank.png,blank.png,blank.png,blank.png,blank.png,blank.png,blank.png,blank.png,blank.png,blank.png,,,,,,,,,,,,,,,,,,,,,,,,,,,,,"[""praline.png""]","[""strawberry.png""]",PB15.png,,,,,,,,,,,0,6,"[""strawberry.png""]","[""strawberry.png""]","[""strawberry.png""]","[""strawberry.png""]","[""strawberry.png""]","[""strawberry.png""]",blank.png,PB18.png,PB18.png,"[""strawberry.png""]","[""strawberry.png""]","[""strawberry.png""]","[""strawberry.png""]",blank.png,blank.png,"[""strawberry.png""]","[""strawberry.png""]","[""strawberry.png""]","[""strawberry.png""]","[""strawberry.png""]","[""strawberry.png""]",1,"[""praline.png""]",blank.png,blank.png,blank.png,4,"[""strawberry.png""]","[""strawberry.png""]","[""strawberry.png""]","[""strawberry.png""]",blank.png,blank.png,PB15.png,,,,,,,,,,,1,,,,,,,,,,,,1333.8499999999767,,timeout,,,,,,,,,,,,,3,,,,,,,,,,,,,,,,,,,,,,,,,,,,,,,,,,,,,,,,,,,,,,,,,,,,,,,,,"[""strawberry.png""]","[""praline.png""]",,,,1,,,false,,1,,,,,,,596913.8749999693,596912.321,595561.821,596446.6799999354,596427.621,597761.471,,,,
choice,canvas.Screen,2_4_2_6_1_0_0_0_0_6_2,2021-01-14T19:50:36.566Z,,,blank.png,"[""praline.png""]",blank.png,blank.png,blank.png,blank.png,blank.png,blank.png,blank.png,blank.png,blank.png,blank.png,blank.png,,,,,,,,,,,,,,,,,,,,,,,,,,,,,"[""praline.png""]","[""strawberry.png""]",PB15.png,,,,,,,,,,,0,6,"[""strawberry.png""]","[""strawberry.png""]","[""strawberry.png""]","[""strawberry.png""]","[""strawberry.png""]","[""strawberry.png""]",blank.png,PB18.png,PB18.png,"[""strawberry.png""]","[""strawberry.png""]","[""strawberry.png""]","[""strawberry.png""]",blank.png,blank.png,"[""strawberry.png""]","[""strawberry.png""]","[""strawberry.png""]","[""strawberry.png""]","[""strawberry.png""]","[""strawberry.png""]",1,"[""praline.png""]",blank.png,blank.png,blank.png,4,"[""strawberry.png""]","[""strawberry.png""]","[""strawberry.png""]","[""strawberry.png""]",blank.png,blank.png,PB15.png,,,,,,,,,,,1,,,,,,,,,,,,589.5789999392582,,response,,,,,,,,,,,,,3,,,,,,,,,,,,,,,,,,,,,,,,,,,,,,,,,,,,,,,,,,,,,,,,,,,,,,,,,"[""strawberry.png""]","[""praline.png""]",,,,1,left,keydown(ArrowLeft),false,,1,,,,,,,598352.5399999926,598351.0499999393,596912.321,597761.4149999572,597761.471,599228.442,,7,,
square,canvas.Screen,2_4_2_6_1_0_0_0_0_6_3,2021-01-14T19:50:38.429Z,,,blank.png,"[""praline.png""]",blank.png,blank.png,blank.png,blank.png,blank.png,blank.png,blank.png,blank.png,blank.png,blank.png,blank.png,,,,,,,,,,,,,,,,,,,,,,,,,,,,,"[""praline.png""]","[""strawberry.png""]",PB15.png,,,,,,,,,,,0,6,"[""strawberry.png""]","[""strawberry.png""]","[""strawberry.png""]","[""strawberry.png""]","[""strawberry.png""]","[""strawberry.png""]",blank.png,PB18.png,PB18.png,"[""strawberry.png""]","[""strawberry.png""]","[""strawberry.png""]","[""strawberry.png""]",blank.png,blank.png,"[""strawberry.png""]","[""strawberry.png""]","[""strawberry.png""]","[""strawberry.png""]","[""strawberry.png""]","[""strawberry.png""]",1,"[""praline.png""]",blank.png,blank.png,blank.png,4,"[""strawberry.png""]","[""strawberry.png""]","[""strawberry.png""]","[""strawberry.png""]",blank.png,blank.png,PB15.png,,,,,,,,,,,1,,#33ff3f,#808080,,,,,,,,,1001.8439999999246,,timeout,,,,,,,,,,,,,3,,,,,,,,,,,,,,,,,,,,,,,,,,,,,,,,,,,,,,,,,,,,,,,,,,,,,,,,,"[""strawberry.png""]","[""praline.png""]",,,,1,,,false,,1,,,,,black,white,600215.5099998927,600213.636,599211.792,599201.2699999614,599228.442,600230.286,,,,
ITI_late,canvas.Screen,2_4_2_6_1_0_0_0_0_6_4,2021-01-14T19:50:39.429Z,,,blank.png,"[""praline.png""]",blank.png,blank.png,blank.png,blank.png,blank.png,blank.png,blank.png,blank.png,blank.png,blank.png,blank.png,,,,,,,,,,,,,,,,,,,,,,,,,,,,,"[""praline.png""]","[""strawberry.png""]",PB15.png,,,,,,,,,,,0,6,"[""strawberry.png""]","[""strawberry.png""]","[""strawberry.png""]","[""strawberry.png""]","[""strawberry.png""]","[""strawberry.png""]",blank.png,PB18.png,PB18.png,"[""strawberry.png""]","[""strawberry.png""]","[""strawberry.png""]","[""strawberry.png""]",blank.png,blank.png,"[""strawberry.png""]","[""strawberry.png""]","[""strawberry.png""]","[""strawberry.png""]","[""strawberry.png""]","[""strawberry.png""]",1,"[""praline.png""]",blank.png,blank.png,blank.png,4,"[""strawberry.png""]","[""strawberry.png""]","[""strawberry.png""]","[""strawberry.png""]",blank.png,blank.png,PB15.png,,,,,,,,,,,1,,,,,,,,,,,,1016.8649999999907,,timeout,,,,,,,,,,,,white,3,,,,,,,,,,,,,,,,,,,,,,,,,,,,,,,,,,,,,,,,,,,,,,,,,,,,,,,,,"[""strawberry.png""]","[""praline.png""]",,,,1,,,false,,1,,,,,,,601215.2649998898,601213.851,600213.636,600219.7299998952,600230.286,601247.151,,,,
choice_sequence,flow.Sequence,2_4_2_6_1_0_0_0_0_6,2021-01-14T19:50:39.429Z,,,blank.png,"[""praline.png""]",blank.png,blank.png,blank.png,blank.png,blank.png,blank.png,blank.png,blank.png,blank.png,blank.png,blank.png,,,,,,,,,,,,,,,,,,,,,,,,,,,,,"[""praline.png""]","[""strawberry.png""]",PB15.png,,,,,,,,,,,0,6,"[""strawberry.png""]","[""strawberry.png""]","[""strawberry.png""]","[""strawberry.png""]","[""strawberry.png""]","[""strawberry.png""]",blank.png,PB18.png,PB18.png,"[""strawberry.png""]","[""strawberry.png""]","[""strawberry.png""]","[""strawberry.png""]",blank.png,blank.png,"[""strawberry.png""]","[""strawberry.png""]","[""strawberry.png""]","[""strawberry.png""]","[""strawberry.png""]","[""strawberry.png""]",1,"[""praline.png""]",blank.png,blank.png,blank.png,4,"[""strawberry.png""]","[""strawberry.png""]","[""strawberry.png""]","[""strawberry.png""]",blank.png,blank.png,PB15.png,,,,,,,,,,,1,,,,,,,,,,,,5986.434000000008,,completion,,,,,,,,,,,,,3,,,,,,,,,,,,,,,,,,,,,,,,,,,,,,,,,,,,,,,,,,,,,,,,,,,,,,,,,"[""strawberry.png""]","[""praline.png""]",,,,1,,,false,,1,,,,,,,601215.979999979,601213.851,595210.767,595218.6949999304,595227.417,601247.151,,,,
choice_loop,flow.Loop,2_4_2_6_1_0_0_0_0,2021-01-14T19:50:39.430Z,,,,,,,,,,,,,,,,,,,,,,,,,,,,,,,,,,,,,,,,,,,,"[""praline.png""]","[""strawberry.png""]",,,,,,,,,,,,,,,,,,,,,,,,,,,,,,,,,,,,,,,,,,,,,,,,,,,,,,,,,,,,,,,,,,,,,,54057.554000000004,,completion,,,,,,,,,,,,,,,,,,,,,,,,,,,,,,,,,,,,,,,,,,,,,,,,,,,,,,,,,,,,,,,,,,,,,,"[""strawberry.png""]","[""praline.png""]",,,,1,,,false,,,,,,,,,601216.4099999936,601213.851,547089.697,547133.7150000036,547156.297,601247.151,,,,
choice_frame,html.Frame,2_4_2_6_1_0_0_0,2021-01-14T19:50:39.430Z,,,,,,,,,,,,,,,,,,,,,,,,,,,,,,,,,,,,,,,,,,,,,,,,,,,,,,,,,,,,,,,,,,,,,,,,,,,,,,,,,,,,,,,,,,,,,,,,,,,,,,,,,,,,,,,,,,,54060.307999965036,,,,,,,,,,,,,,,,,,,,,,,,,,,,,,,,,,,,,,,,,,,,,,,,,,,,,,,,,,,,,,,,,,,,,,,,,,,,,1,,,false,,,,,,,,,601216.7849999387,601216.604999965,547089.697,547091.6999999899,547156.297,601263.801,,,,
sublock_1,flow.Sequence,2_4_2_6_1_0_0,2021-01-14T19:50:39.430Z,,,,,,,,,,,,,,,,,,,,,,,,,,,,,,,,,,,,,,,,,,,,,,,,,,,,,,,,,,,,,,,,,,,,,,,,,,,,,,,,,,,,,,,,,,,,,,,,,,,,,,,,,,,,,,,,,,,54060.307999965036,,completion,,,,,,,,,,,,,,,,,,,,,,,,,,,,,,,,,,,,,,,,,,,,,,,,,,,,,,,,,,,,,,,,,,,,,,,,,,,1,,,false,,,,,,,,,601216.9699999504,601216.604999965,547089.697,547091.6349999607,547156.297,601263.801,,,,
fixCross,canvas.Screen,2_4_2_6_1_0_1_0_0_0_0,2021-01-14T19:50:39.865Z,,,blank.png,blank.png,blank.png,blank.png,blank.png,blank.png,blank.png,"[""praline.png""]",blank.png,blank.png,blank.png,blank.png,blank.png,,,,,,,,,,,,,,,,,,,,,,,,,,,,,"[""praline.png""]","[""strawberry.png""]",PB18.png,,,,,,,,,,,0,6,"[""strawberry.png""]","[""strawberry.png""]","[""strawberry.png""]","[""strawberry.png""]","[""strawberry.png""]","[""strawberry.png""]",blank.png,PB18.png,PB15.png,"[""strawberry.png""]","[""strawberry.png""]","[""strawberry.png""]","[""strawberry.png""]","[""strawberry.png""]","[""strawberry.png""]","[""strawberry.png""]","[""strawberry.png""]","[""strawberry.png""]","[""strawberry.png""]",blank.png,blank.png,1,"[""praline.png""]",blank.png,blank.png,blank.png,4,"[""strawberry.png""]","[""strawberry.png""]","[""strawberry.png""]","[""strawberry.png""]",blank.png,blank.png,PB15.png,,,,,,,,,,,1,,,,,,,,,,,,1318.2179999999935,,timeout,,,,,,,,,,,,,4,,,,,,,,,,,,,,,,,,,,,,,,,,,,,,,,,,,,,,,,,,,,,,,,,,,,,,,,,"[""strawberry.png""]","[""praline.png""]",,,,6,,,false,,1,,,,,,,601651.2299999595,601649.619,601247.151,601259.9749999354,601263.801,602582.019,8,,,
timeout,canvas.Screen,2_4_2_6_1_0_1_0_0_0_1,2021-01-14T19:50:41.281Z,,,blank.png,blank.png,blank.png,blank.png,blank.png,blank.png,blank.png,"[""praline.png""]",blank.png,blank.png,blank.png,blank.png,blank.png,,,,,,,,,,,,,,,,,,,,,,,,,,,,,"[""praline.png""]","[""strawberry.png""]",PB18.png,,,,,,,,,,,0,6,"[""strawberry.png""]","[""strawberry.png""]","[""strawberry.png""]","[""strawberry.png""]","[""strawberry.png""]","[""strawberry.png""]",blank.png,PB18.png,PB15.png,"[""strawberry.png""]","[""strawberry.png""]","[""strawberry.png""]","[""strawberry.png""]","[""strawberry.png""]","[""strawberry.png""]","[""strawberry.png""]","[""strawberry.png""]","[""strawberry.png""]","[""strawberry.png""]",blank.png,blank.png,1,"[""praline.png""]",blank.png,blank.png,blank.png,4,"[""strawberry.png""]","[""strawberry.png""]","[""strawberry.png""]","[""strawberry.png""]",blank.png,blank.png,PB15.png,,,,,,,,,,,1,,,,,,,,,,,,1431.9610000000102,,timeout,,,,,,,,,,,,,4,,,,,,,,,,,,,,,,,,,,,,,,,,,,,,,,,,,,,,,,,,,,,,,,,,,,,,,,,"[""strawberry.png""]","[""praline.png""]",,,,6,,,false,,1,,,,,,,603067.5150000025,603064.93,601649.619,602559.6999999834,602582.019,604013.98,,,,
choice,canvas.Screen,2_4_2_6_1_0_1_0_0_0_2,2021-01-14T19:50:42.627Z,,,blank.png,blank.png,blank.png,blank.png,blank.png,blank.png,blank.png,"[""praline.png""]",blank.png,blank.png,blank.png,blank.png,blank.png,,,,,,,,,,,,,,,,,,,,,,,,,,,,,"[""praline.png""]","[""strawberry.png""]",PB18.png,,,,,,,,,,,0,6,"[""strawberry.png""]","[""strawberry.png""]","[""strawberry.png""]","[""strawberry.png""]","[""strawberry.png""]","[""strawberry.png""]",blank.png,PB18.png,PB15.png,"[""strawberry.png""]","[""strawberry.png""]","[""strawberry.png""]","[""strawberry.png""]","[""strawberry.png""]","[""strawberry.png""]","[""strawberry.png""]","[""strawberry.png""]","[""strawberry.png""]","[""strawberry.png""]",blank.png,blank.png,1,"[""praline.png""]",blank.png,blank.png,blank.png,4,"[""strawberry.png""]","[""strawberry.png""]","[""strawberry.png""]","[""strawberry.png""]",blank.png,blank.png,PB15.png,,,,,,,,,,,1,,,,,,,,,,,,398.20999994454905,,response,,,,,,,,,,,,,4,,,,,,,,,,,,,,,,,,,,,,,,,,,,,,,,,,,,,,,,,,,,,,,,,,,,,,,,,"[""strawberry.png""]","[""praline.png""]",,,,6,right,keydown(ArrowRight),false,,1,,,,,,,604413.9349999605,604412.1899999445,603064.93,604006.7449999042,604013.98,605364.463,,8,,
square,canvas.Screen,2_4_2_6_1_0_1_0_0_0_3,2021-01-14T19:50:44.567Z,,,blank.png,blank.png,blank.png,blank.png,blank.png,blank.png,blank.png,"[""praline.png""]",blank.png,blank.png,blank.png,blank.png,blank.png,,,,,,,,,,,,,,,,,,,,,,,,,,,,,"[""praline.png""]","[""strawberry.png""]",PB18.png,,,,,,,,,,,0,6,"[""strawberry.png""]","[""strawberry.png""]","[""strawberry.png""]","[""strawberry.png""]","[""strawberry.png""]","[""strawberry.png""]",blank.png,PB18.png,PB15.png,"[""strawberry.png""]","[""strawberry.png""]","[""strawberry.png""]","[""strawberry.png""]","[""strawberry.png""]","[""strawberry.png""]","[""strawberry.png""]","[""strawberry.png""]","[""strawberry.png""]","[""strawberry.png""]",blank.png,blank.png,1,"[""praline.png""]",blank.png,blank.png,blank.png,4,"[""strawberry.png""]","[""strawberry.png""]","[""strawberry.png""]","[""strawberry.png""]",blank.png,blank.png,PB15.png,,,,,,,,,,,1,,#808080,#33ff3f,,,,,,,,,1003.0820000000531,,timeout,,,,,,,,,,,,,4,,,,,,,,,,,,,,,,,,,,,,,,,,,,,,,,,,,,,,,,,,,,,,,,,,,,,,,,,"[""strawberry.png""]","[""praline.png""]",,,,6,,,false,,1,,,,,white,black,606353.4949999303,606350.895,605347.813,605342.8999999305,605364.463,606367.545,,,,
ITI_late,canvas.Screen,2_4_2_6_1_0_1_0_0_0_4,2021-01-14T19:50:45.065Z,,,blank.png,blank.png,blank.png,blank.png,blank.png,blank.png,blank.png,"[""praline.png""]",blank.png,blank.png,blank.png,blank.png,blank.png,,,,,,,,,,,,,,,,,,,,,,,,,,,,,"[""praline.png""]","[""strawberry.png""]",PB18.png,,,,,,,,,,,0,6,"[""strawberry.png""]","[""strawberry.png""]","[""strawberry.png""]","[""strawberry.png""]","[""strawberry.png""]","[""strawberry.png""]",blank.png,PB18.png,PB15.png,"[""strawberry.png""]","[""strawberry.png""]","[""strawberry.png""]","[""strawberry.png""]","[""strawberry.png""]","[""strawberry.png""]","[""strawberry.png""]","[""strawberry.png""]","[""strawberry.png""]","[""strawberry.png""]",blank.png,blank.png,1,"[""praline.png""]",blank.png,blank.png,blank.png,4,"[""strawberry.png""]","[""strawberry.png""]","[""strawberry.png""]","[""strawberry.png""]",blank.png,blank.png,PB15.png,,,,,,,,,,,1,,,,,,,,,,,,499.50500000000466,,timeout,,,,,,,,,,,,white,4,,,,,,,,,,,,,,,,,,,,,,,,,,,,,,,,,,,,,,,,,,,,,,,,,,,,,,,,,"[""strawberry.png""]","[""praline.png""]",,,,6,,,false,,1,,,,,,,606852.1049999399,606850.4,606350.895,606355.8249999769,606367.545,606867.05,,,,
choice_sequence,flow.Sequence,2_4_2_6_1_0_1_0_0_0,2021-01-14T19:50:45.066Z,,,blank.png,blank.png,blank.png,blank.png,blank.png,blank.png,blank.png,"[""praline.png""]",blank.png,blank.png,blank.png,blank.png,blank.png,,,,,,,,,,,,,,,,,,,,,,,,,,,,,"[""praline.png""]","[""strawberry.png""]",PB18.png,,,,,,,,,,,0,6,"[""strawberry.png""]","[""strawberry.png""]","[""strawberry.png""]","[""strawberry.png""]","[""strawberry.png""]","[""strawberry.png""]",blank.png,PB18.png,PB15.png,"[""strawberry.png""]","[""strawberry.png""]","[""strawberry.png""]","[""strawberry.png""]","[""strawberry.png""]","[""strawberry.png""]","[""strawberry.png""]","[""strawberry.png""]","[""strawberry.png""]","[""strawberry.png""]",blank.png,blank.png,1,"[""praline.png""]",blank.png,blank.png,blank.png,4,"[""strawberry.png""]","[""strawberry.png""]","[""strawberry.png""]","[""strawberry.png""]",blank.png,blank.png,PB15.png,,,,,,,,,,,1,,,,,,,,,,,,5586.599000000046,,completion,,,,,,,,,,,,,4,,,,,,,,,,,,,,,,,,,,,,,,,,,,,,,,,,,,,,,,,,,,,,,,,,,,,,,,,"[""strawberry.png""]","[""praline.png""]",,,,6,,,false,,1,,,,,,,606852.8649999062,606850.4,601247.151,601258.8249999098,601263.801,606867.05,,,,
fixCross,canvas.Screen,2_4_2_6_1_0_1_0_0_1_0,2021-01-14T19:50:45.616Z,,,blank.png,"[""praline.png""]",blank.png,blank.png,blank.png,blank.png,blank.png,blank.png,blank.png,blank.png,blank.png,blank.png,blank.png,,,,,,,,,,,,,,,,,,,,,,,,,,,,,"[""praline.png""]","[""strawberry.png""]",PB01.png,,,,,,,,,,,0,6,"[""strawberry.png""]","[""strawberry.png""]","[""strawberry.png""]","[""strawberry.png""]","[""strawberry.png""]","[""strawberry.png""]",blank.png,PB18.png,PB18.png,blank.png,blank.png,blank.png,blank.png,blank.png,blank.png,"[""strawberry.png""]","[""strawberry.png""]","[""strawberry.png""]","[""strawberry.png""]","[""strawberry.png""]","[""strawberry.png""]",1,"[""praline.png""]",blank.png,blank.png,blank.png,0,blank.png,blank.png,blank.png,blank.png,blank.png,blank.png,PB01.png,,,,,,,,,,,1,,,,,,,,,,,,1233.5039999999572,,timeout,,,,,,,,,,,,,3,,,,,,,,,,,,,,,,,,,,,,,,,,,,,,,,,,,,,,,,,,,,,,,,,,,,,,,,,"[""strawberry.png""]","[""praline.png""]",,,,6,,,false,,1,,,,,,,607403.149999911,607401.254,606850.4,606859.5049999421,606867.05,608100.554,9,,,
timeout,canvas.Screen,2_4_2_6_1_0_1_0_0_1_1,2021-01-14T19:50:46.799Z,,,blank.png,"[""praline.png""]",blank.png,blank.png,blank.png,blank.png,blank.png,blank.png,blank.png,blank.png,blank.png,blank.png,blank.png,,,,,,,,,,,,,,,,,,,,,,,,,,,,,"[""praline.png""]","[""strawberry.png""]",PB01.png,,,,,,,,,,,0,6,"[""strawberry.png""]","[""strawberry.png""]","[""strawberry.png""]","[""strawberry.png""]","[""strawberry.png""]","[""strawberry.png""]",blank.png,PB18.png,PB18.png,blank.png,blank.png,blank.png,blank.png,blank.png,blank.png,"[""strawberry.png""]","[""strawberry.png""]","[""strawberry.png""]","[""strawberry.png""]","[""strawberry.png""]","[""strawberry.png""]",1,"[""praline.png""]",blank.png,blank.png,blank.png,0,blank.png,blank.png,blank.png,blank.png,blank.png,blank.png,PB01.png,,,,,,,,,,,1,,,,,,,,,,,,1166.2260000000242,,timeout,,,,,,,,,,,,,3,,,,,,,,,,,,,,,,,,,,,,,,,,,,,,,,,,,,,,,,,,,,,,,,,,,,,,,,,"[""strawberry.png""]","[""praline.png""]",,,,6,,,false,,1,,,,,,,608585.7499999693,608584.13,607401.254,608081.8299999228,608100.554,609266.78,,,,
choice,canvas.Screen,2_4_2_6_1_0_1_0_0_1_2,2021-01-14T19:50:48.104Z,,,blank.png,"[""praline.png""]",blank.png,blank.png,blank.png,blank.png,blank.png,blank.png,blank.png,blank.png,blank.png,blank.png,blank.png,,,,,,,,,,,,,,,,,,,,,,,,,,,,,"[""praline.png""]","[""strawberry.png""]",PB01.png,,,,,,,,,,,0,6,"[""strawberry.png""]","[""strawberry.png""]","[""strawberry.png""]","[""strawberry.png""]","[""strawberry.png""]","[""strawberry.png""]",blank.png,PB18.png,PB18.png,blank.png,blank.png,blank.png,blank.png,blank.png,blank.png,"[""strawberry.png""]","[""strawberry.png""]","[""strawberry.png""]","[""strawberry.png""]","[""strawberry.png""]","[""strawberry.png""]",1,"[""praline.png""]",blank.png,blank.png,blank.png,0,blank.png,blank.png,blank.png,blank.png,blank.png,blank.png,PB01.png,,,,,,,,,,,1,,,,,,,,,,,,621.814999909373,,response,,,,,,,,,,,,,3,,,,,,,,,,,,,,,,,,,,,,,,,,,,,,,,,,,,,,,,,,,,,,,,,,,,,,,,,"[""strawberry.png""]","[""praline.png""]",,,,6,right,keydown(ArrowRight),false,,1,,,,,,,609890.3649999993,609888.5949999094,608584.13,609270.4099999974,609266.78,610583.895,,9,,
square,canvas.Screen,2_4_2_6_1_0_1_0_0_1_3,2021-01-14T19:50:49.784Z,,,blank.png,"[""praline.png""]",blank.png,blank.png,blank.png,blank.png,blank.png,blank.png,blank.png,blank.png,blank.png,blank.png,blank.png,,,,,,,,,,,,,,,,,,,,,,,,,,,,,"[""praline.png""]","[""strawberry.png""]",PB01.png,,,,,,,,,,,0,6,"[""strawberry.png""]","[""strawberry.png""]","[""strawberry.png""]","[""strawberry.png""]","[""strawberry.png""]","[""strawberry.png""]",blank.png,PB18.png,PB18.png,blank.png,blank.png,blank.png,blank.png,blank.png,blank.png,"[""strawberry.png""]","[""strawberry.png""]","[""strawberry.png""]","[""strawberry.png""]","[""strawberry.png""]","[""strawberry.png""]",1,"[""praline.png""]",blank.png,blank.png,blank.png,0,blank.png,blank.png,blank.png,blank.png,blank.png,blank.png,PB01.png,,,,,,,,,,,1,,#808080,#33ff3f,,,,,,,,,1001.655999999959,,timeout,,,,,,,,,,,,,3,,,,,,,,,,,,,,,,,,,,,,,,,,,,,,,,,,,,,,,,,,,,,,,,,,,,,,,,,"[""strawberry.png""]","[""praline.png""]",,,,6,,,false,,1,,,,,white,black,611570.4149999656,611568.901,610550.595,610554.8549999949,610583.895,611585.551,,,,
ITI_late,canvas.Screen,2_4_2_6_1_0_1_0_0_1_4,2021-01-14T19:50:51.034Z,,,blank.png,"[""praline.png""]",blank.png,blank.png,blank.png,blank.png,blank.png,blank.png,blank.png,blank.png,blank.png,blank.png,blank.png,,,,,,,,,,,,,,,,,,,,,,,,,,,,,"[""praline.png""]","[""strawberry.png""]",PB01.png,,,,,,,,,,,0,6,"[""strawberry.png""]","[""strawberry.png""]","[""strawberry.png""]","[""strawberry.png""]","[""strawberry.png""]","[""strawberry.png""]",blank.png,PB18.png,PB18.png,blank.png,blank.png,blank.png,blank.png,blank.png,blank.png,"[""strawberry.png""]","[""strawberry.png""]","[""strawberry.png""]","[""strawberry.png""]","[""strawberry.png""]","[""strawberry.png""]",1,"[""praline.png""]",blank.png,blank.png,blank.png,0,blank.png,blank.png,blank.png,blank.png,blank.png,blank.png,PB01.png,,,,,,,,,,,1,,,,,,,,,,,,1249.6870000000345,,timeout,,,,,,,,,,,,white,3,,,,,,,,,,,,,,,,,,,,,,,,,,,,,,,,,,,,,,,,,,,,,,,,,,,,,,,,,"[""strawberry.png""]","[""praline.png""]",,,,6,,,false,,1,,,,,,,612821.0199999157,612818.588,611568.901,611572.754999972,611585.551,612835.238,,,,
choice_sequence,flow.Sequence,2_4_2_6_1_0_1_0_0_1,2021-01-14T19:50:51.035Z,,,blank.png,"[""praline.png""]",blank.png,blank.png,blank.png,blank.png,blank.png,blank.png,blank.png,blank.png,blank.png,blank.png,blank.png,,,,,,,,,,,,,,,,,,,,,,,,,,,,,"[""praline.png""]","[""strawberry.png""]",PB01.png,,,,,,,,,,,0,6,"[""strawberry.png""]","[""strawberry.png""]","[""strawberry.png""]","[""strawberry.png""]","[""strawberry.png""]","[""strawberry.png""]",blank.png,PB18.png,PB18.png,blank.png,blank.png,blank.png,blank.png,blank.png,blank.png,"[""strawberry.png""]","[""strawberry.png""]","[""strawberry.png""]","[""strawberry.png""]","[""strawberry.png""]","[""strawberry.png""]",1,"[""praline.png""]",blank.png,blank.png,blank.png,0,blank.png,blank.png,blank.png,blank.png,blank.png,blank.png,PB01.png,,,,,,,,,,,1,,,,,,,,,,,,5951.537999999942,,completion,,,,,,,,,,,,,3,,,,,,,,,,,,,,,,,,,,,,,,,,,,,,,,,,,,,,,,,,,,,,,,,,,,,,,,,"[""strawberry.png""]","[""praline.png""]",,,,6,,,false,,1,,,,,,,612821.7449999647,612818.588,606850.4,606858.349999995,606867.05,612835.238,,,,
fixCross,canvas.Screen,2_4_2_6_1_0_1_0_0_2_0,2021-01-14T19:50:51.385Z,,,blank.png,blank.png,blank.png,blank.png,blank.png,blank.png,blank.png,"[""praline.png""]",blank.png,blank.png,blank.png,blank.png,blank.png,,,,,,,,,,,,,,,,,,,,,,,,,,,,,"[""praline.png""]","[""strawberry.png""]",PB18.png,,,,,,,,,,,0,6,"[""strawberry.png""]","[""strawberry.png""]","[""strawberry.png""]","[""strawberry.png""]","[""strawberry.png""]","[""strawberry.png""]",blank.png,PB18.png,PB16.png,"[""strawberry.png""]","[""strawberry.png""]","[""strawberry.png""]","[""strawberry.png""]","[""strawberry.png""]","[""strawberry.png""]","[""strawberry.png""]","[""strawberry.png""]","[""strawberry.png""]","[""strawberry.png""]","[""strawberry.png""]",blank.png,1,"[""praline.png""]",blank.png,blank.png,blank.png,5,"[""strawberry.png""]","[""strawberry.png""]","[""strawberry.png""]","[""strawberry.png""]","[""strawberry.png""]",blank.png,PB16.png,,,,,,,,,,,1,,,,,,,,,,,,1216.8649999999907,,timeout,,,,,,,,,,,,,4,,,,,,,,,,,,,,,,,,,,,,,,,,,,,,,,,,,,,,,,,,,,,,,,,,,,,,,,,"[""strawberry.png""]","[""praline.png""]",,,,6,,,false,,1,,,,,,,613172.1849999158,613169.653,612818.588,612830.7749999221,612835.238,614052.103,10,,,
