sender,sender_type,sender_id,timestamp,meta,,Blank,DownLeft1,DownLeft2,DownLeft3,DownLeft4,DownLeft5,DownLeft6,DownRight1,DownRight2,DownRight3,DownRight4,DownRight5,DownRight6,FoodHabits_Fru_item1,FoodHabits_Fru_item2,FoodHabits_Fru_item3,FoodHabits_Fru_item4,FoodHabits_Fru_item5,FoodHabits_Fru_item6,FoodHabits_Fru_item7,FoodHabits_Meat_item1,FoodHabits_Meat_item2,FoodHabits_Meat_item3,FoodHabits_Meat_item4,FoodHabits_Meat_item5,FoodHabits_Meat_item6,FoodHabits_Meat_item7,FoodHabits_Swe_item1,FoodHabits_Swe_item2,FoodHabits_Swe_item3,FoodHabits_Swe_item4,FoodHabits_Swe_item5,FoodHabits_Swe_item6,FoodHabits_Swe_item7,FoodHabits_Veg_item1,FoodHabits_Veg_item2,FoodHabits_Veg_item3,FoodHabits_Veg_item4,FoodHabits_Veg_item5,FoodHabits_Veg_item6,FoodHabits_Veg_item7,ImgA,ImgB,LeftBar,PSS_item01,PSS_item02,PSS_item03,PSS_item04,PSS_item05,PSS_item06,PSS_item07,PSS_item08,PSS_item09,PSS_item10,RefA,RefB,RefB1,RefB2,RefB3,RefB4,RefB5,RefB6,RefB7,Ref_PB,RightBar,UpLeft1,UpLeft2,UpLeft3,UpLeft4,UpLeft5,UpLeft6,UpRight1,UpRight2,UpRight3,UpRight4,UpRight5,UpRight6,VarA,VarA1,VarA2,VarA3,VarA4,VarB,VarB1,VarB2,VarB3,VarB4,VarB5,VarB6,Var_PB,attCheck_fileA,attCheck_fileB,attCheck_fileC,attCheck_fileD,attCheck_options,attCheck_valueA,attCheck_valueB,attCheck_valueC,attCheck_valueD,attention_check,block,break1,browser_name,choseL,choseR,consent_form1,consent_form2,consentconfirmation_form1,consentconfirmation_form2,correct,correctResponse,diet,disorder,duration,edu,ended_on,enjoy,full_version,gender,group,hunger,img,imgTask,input_age,input_meal,input_occ,input_remark,lateRespFeed,list,major_version,message,mixQ_item1,mixQ_item2,mixQ_item3,mixQ_item4,mixQ_item5,name,navigator_appName,navigator_userAgent,os,pracQ1_IDa,pracQ1_IDb,pracQ1_IDc,pracQ1_IDd,pracQ1_optionA,pracQ1_optionB,pracQ1_optionC,pracQ1_optionD,pracQ1_valueA,pracQ1_valueB,pracQ1_valueC,pracQ1_valueD,pracQ2_IDa,pracQ2_IDb,pracQ2_IDc,pracQ2_optionA,pracQ2_optionB,pracQ2_optionC,pracQ2_valueA,pracQ2_valueB,pracQ2_valueC,pracQ4_IDa,pracQ4_IDb,pracQ4_IDc,pracQ4_IDd,pracQ4_optionA,pracQ4_optionB,pracQ4_optionC,pracQ4_optionD,pracQ4_valueA,pracQ4_valueB,pracQ4_valueC,pracQ4_valueD,pracQ5_IDa,pracQ5_IDb,pracQ5_IDc,pracQ5_IDd,pracQ5_optionA,pracQ5_optionB,pracQ5_optionC,pracQ5_optionD,pracQ5_valueA,pracQ5_valueB,pracQ5_valueC,pracQ5_valueD,prefHealty,prefUnhealthy,prolific_ID,psessionID,pstudyID,rep,response,response_action,skip,snack,sublock,subtitle,task_difficulty,task_engagement,task_focus,textL,textR,time_commit,time_end,time_render,time_run,time_show,time_switch,trial_count,trial_countO,url,valence
Title,html.Page,0,2021-05-24T15:55:37.183Z,"{""labjs_version"":""20.2.2"",""labjs_build"":{""flavor"":""production"",""commit"":""a25486e0c714a0ae2ce03ff94b7bb6896854dcfa""},""location"":""https://run.pavlovia.org/E3lab/rebund/html/?PROLIFIC_PID=5595204cfdf99b075818cb41&STUDY_ID=60008f34cd719d13b0d706dd&SESSION_ID=60abcc68c3faad3857f2e112"",""userAgent"":""Mozilla/5.0 (Windows NT 10.0; Win64; x64) AppleWebKit/537.36 (KHTML, like Gecko) Chrome/90.0.4430.212 Safari/537.36"",""platform"":""Win32"",""language"":""en-US"",""locale"":""en-US"",""timeZone"":""Europe/London"",""timezoneOffset"":-60,""screen_width"":1366,""screen_height"":768,""scroll_width"":1366,""scroll_height"":577,""window_innerWidth"":1366,""window_innerHeight"":625,""devicePixelRatio"":1}",,,,,,,,,,,,,,,,,,,,,,,,,,,,,,,,,,,,,,,,,,,,,,,,,,,,,,,,,,,,,,,,,,,,,,,,,,,,,,,,,,,,,,,,,,,,,,,,,,,,,,,,,,,,,,,,,,,4888.492000164658,,form submission,,,,,,,,,,,,,,,,,,,,,,,,,,,,,,,,,,,,,,,,,,,,,,,,,,,,,,,,,,,,,,,,,,,,,,,,,,,,,,,,,,,,,,,8946.62500009872,8946.175000164658,4024.432,4054.119999986142,4057.683,8961.429,,,"{""PROLIFIC_PID"":""5595204cfdf99b075818cb41"",""STUDY_ID"":""60008f34cd719d13b0d706dd"",""SESSION_ID"":""60abcc68c3faad3857f2e112""}",
get_systemInfo,canvas.Screen,1,2021-05-24T15:55:37.203Z,,,,,,,,,,,,,,,,,,,,,,,,,,,,,,,,,,,,,,,,,,,,,,,,,,,,,,,,,,,,,,,,,,,,,,,,,,,,,,,,,,,,,,,,,,,,,,,,,,,,,,,,,Chrome,,,,,,,,,,,108296.886,,timeout,,90.0.4430.212,,,,,,,,,,,,90,,,,,,,,Netscape,"Mozilla/5.0 (Windows NT 10.0; Win64; x64) AppleWebKit/537.36 (KHTML, like Gecko) Chrome/90.0.4430.212 Safari/537.36",Windows,,,,,,,,,,,,,,,,,,,,,,,,,,,,,,,,,,,,,,,,,,,,,,,,5595204cfdf99b075818cb41,,60008f34cd719d13b0d706dd,,,,,,,,,,,,,8966.6950001847,8966.135000111535,8944.776,8947.785000083968,8961.429,117258.315,,,,
ConsentForm,html.Form,2_0,2021-05-24T16:41:41.837Z,,,,,,,,,,,,,,,,,,,,,,,,,,,,,,,,,,,,,,,,,,,,,,,,,,,,,,,,,,,,,,,,,,,,,,,,,,,,,,,,,,,,,,,,,,,,,,,,,,,,,,,,,,,,true,true,,,,,,,2656363.4250000897,,form submission,,,,,,,,,,,,,,,,,,,,,,,,,,,,,,,,,,,,,,,,,,,,,,,,,,,,,,,,,,,,,,,,,,,,,,,,,,,,,,,,,,,,,,,2773622.4350000266,2773621.7400000896,8966.135000111535,117257.66500015743,117258.315,2773630.256,,,,
PepTalk,html.Page,2_1,2021-05-24T16:41:47.497Z,,,,,,,,,,,,,,,,,,,,,,,,,,,,,,,,,,,,,,,,,,,,,,,,,,,,,,,,,,,,,,,,,,,,,,,,,,,,,,,,,,,,,,,,,,,,,,,,,,,,,,,,,,,,,,,,,,,,5651.989000125788,,form submission,,,,,,,,,,,,,,,,,,,,,,,,,,,,,,,,,,,,,,,,,,,,,,,,,,,,,,,,,,,,,,,,,,,,,,,,,,,,,,,,,,,,,,,2779282.5750000775,2779282.245000126,2773613.649,2773622.8450001217,2773630.256,2779298.6,,,,
Demographics,html.Form,2_2,2021-05-24T16:42:04.742Z,,,,,,,,,,,,,,,,,,,,,,,,,,,,,,,,,,,,,,,,,,,,,,,,,,,,,,,,,,,,,,,,,,,,,,,,,,,,,,,,,,,,,,,,,,,,,,,,,,,,,,,,,,,,,,,,,,,,17228.235000142362,5,form submission,,,1,,,,,40,,Researcher,,,,,,,,,,,,,,,,,,,,,,,,,,,,,,,,,,,,,,,,,,,,,,,,,,,,,,,,,,,,,,,,,,,,,,,,,,,,,2796527.1250000224,2796526.8350001425,2779281.948,2779282.7650001273,2779298.6,2796536.291,,,,
InclusionCrit,html.Form,2_3,2021-05-24T16:46:24.994Z,,,,,,,,,,,,,,,,,,,,,,,,,,,,,,,,,,,,,,,,,,,,,,,,,,,,,,,,,,,,,,,,,,,,,,,,,,,,,,,,,,,,,,,,,,,,,,,,,,,,,,,,,,,,,,,,,,1,1,260243.69900018442,,form submission,1,,,,,,,,,,,,,,,,,,,,,,,,,,,,,,,,,,,,,,,,,,,,,,,,,,,,,,,,,,,,,,,,,,,,,,,,,,,,,,,,,,,,,,3056780.2750000264,3056779.9900001846,2796519.663,2796527.2400001995,2796536.291,3056781.307,,,,
Selection,html.Page,2_4_0,2021-05-24T16:46:33.170Z,,,,,,,,,,,,,,,,,,,,,,,,,,,,,,,,,,,,,,,,,,,,,,,,,,,,,,,,,,,,,,,,,,,,,,,,,,,,,,,,,,,,,,,,,,,,,,,,,,,,,,,,,,,,,,,,,,,,8174.638000052422,,form submission,,,,,,,,,,,,,,,,,,,,,,,,,,,,,,,,,,,,,,,,,,,,,,,,,,,,,,,,,,,,,,,,,,,,,,,,,,,,,,,0,,,,,,,,3064956.1850000173,3064955.9450000525,3056764.458,3056780.4450001568,3056781.307,3064959.47,,,,
Load,html.Page,2_4_1,2021-05-24T16:46:33.179Z,,,,,,,,,,,,,,,,,,,,,,,,,,,,,,,,,,,,,,,,,,,,,,,,,,,,,,,,,,,,,,,,,,,,,,,,,,,,,,,,,,,,,,,,,,,,,,,,,,,,,,,,,,,,,,,,,,,,13364.645999999717,,timeout,,,,,,,,,,,,,,,,,,,,,,,,,,,,,,,,,,,,,,,,,,,,,,,,,,,,,,,,,,,,,,,,,,,,,,,,,,,,,,,,,,,,,,,3064965.205000015,3064964.565000031,3064942.831,3064956.315000076,3064959.47,3078324.116,,,,
ratings_instructions,html.Screen,2_4_2_0,2021-05-24T16:47:02.699Z,,,,,,,,,,,,,,,,,,,,,,,,,,,,,,,,,,,,,,,,,,,,,,,,,,,,,,,,,,,,,,,,,,,,,,,,,,,,,,,,,,,,,,,,,,,,,,,,,,,,,,,,,,,,,,,,,,,,16159.384000089485,,response,,,,,,,,,,,,,,,,,,,,,,,,,,,,,,,,,,,,,,,,,,,,,,,,,,,,,,,,,,,,,,,,,,,,,,,,,,,,continue,keypress(Space),false,,,,,,,,,3094485.3000000585,3094483.5000000894,3064964.565000031,3078364.1050001606,3078324.116,3094497.994,0,0,,
fixCross,canvas.Screen,2_4_2_1_0_0,2021-05-24T16:47:03.195Z,,,,,,,,,,,,,,,,,,,,,,,,,,,,,,,,,,,,,,,,,,,,,,,,,,,,,,,,,,,,,,,,,,,,,,,,,,,,,,,,,,,,,,,,,,,,,,,,,,,,,,,,,,,,,,,,,,,,498.92700000014156,,timeout,,,,healthy,,cherry.png,,,,,,,,,,,,,,,cherry,,,,,,,,,,,,,,,,,,,,,,,,,,,,,,,,,,,,,,,,,,,,,,,,,,,,,,,,,false,,,,,,,,,3094981.035000179,3094980.134,3094480.896,3094485.4650001507,3094497.994,3094996.921,,,,
Rating,html.Form,2_4_2_1_0_1,2021-05-24T16:47:12.640Z,,,,,,,,,,,,,,,,,,,,,,,,,,,,,,,,,,,,,,,,,,,,,,,,,,,,,,,,,,,,,,,,,,,,,,,,,,,,,,,,,,,,,,,,,,,,,,,,,,,,,,,,,,,,,,,,,,,,9429.189000116661,,form submission,,,,healthy,,cherry.png,,,,,,,,,,,,,,,cherry,,,,,,,,,,,,,,,,,,,,,,,,,,,,,,,,,,,,,,,,,,,,,,,,,,,,,,,,,false,,,,,,,,,3104426.2850000523,3104426.1100001168,3094980.134,3094981.2000000384,3094996.921,3104438.337,,,,85
rating_sequence,flow.Sequence,2_4_2_1_0,2021-05-24T16:47:12.641Z,,,,,,,,,,,,,,,,,,,,,,,,,,,,,,,,,,,,,,,,,,,,,,,,,,,,,,,,,,,,,,,,,,,,,,,,,,,,,,,,,,,,,,,,,,,,,,,,,,,,,,,,,,,,,,,,,,,,9928.116000116803,,completion,,,,healthy,,cherry.png,,,,,,,,,,,,,,,cherry,,,,,,,,,,,,,,,,,,,,,,,,,,,,,,,,,,,,,,,,,,,,,,,,,,,,,,,,,false,,,,,,,,,3104427.665000083,3104426.1100001168,3094480.896,3094485.440000193,3094497.994,3104438.337,,,,
fixCross,canvas.Screen,2_4_2_1_1_0,2021-05-24T16:47:13.135Z,,,,,,,,,,,,,,,,,,,,,,,,,,,,,,,,,,,,,,,,,,,,,,,,,,,,,,,,,,,,,,,,,,,,,,,,,,,,,,,,,,,,,,,,,,,,,,,,,,,,,,,,,,,,,,,,,,,,498.7080000001006,,timeout,,,,unhealthy,,liqorice.png,,,,,,,,,,,,,,,liquorice,,,,,,,,,,,,,,,,,,,,,,,,,,,,,,,,,,,,,,,,,,,,,,,,,,,,,,,,,false,,,,,,,,,3104920.9150001407,3104920.412,3104421.679,3104427.765000146,3104438.337,3104937.045,,,,
Rating,html.Form,2_4_2_1_1_1,2021-05-24T16:47:21.260Z,,,,,,,,,,,,,,,,,,,,,,,,,,,,,,,,,,,,,,,,,,,,,,,,,,,,,,,,,,,,,,,,,,,,,,,,,,,,,,,,,,,,,,,,,,,,,,,,,,,,,,,,,,,,,,,,,,,,8109.275000197813,,form submission,,,,unhealthy,,liqorice.png,,,,,,,,,,,,,,,liquorice,,,,,,,,,,,,,,,,,,,,,,,,,,,,,,,,,,,,,,,,,,,,,,,,,,,,,,,,,false,,,,,,,,,3113046.4700001758,3113046.3200001977,3104920.412,3104921.0050001275,3104937.045,3113049.074,,,,1
rating_sequence,flow.Sequence,2_4_2_1_1,2021-05-24T16:47:21.261Z,,,,,,,,,,,,,,,,,,,,,,,,,,,,,,,,,,,,,,,,,,,,,,,,,,,,,,,,,,,,,,,,,,,,,,,,,,,,,,,,,,,,,,,,,,,,,,,,,,,,,,,,,,,,,,,,,,,,8607.983000197913,,completion,,,,unhealthy,,liqorice.png,,,,,,,,,,,,,,,liquorice,,,,,,,,,,,,,,,,,,,,,,,,,,,,,,,,,,,,,,,,,,,,,,,,,,,,,,,,,false,,,,,,,,,3113046.5950001962,3113046.3200001977,3104421.679,3104427.7350001503,3104438.337,3113049.074,,,,
fixCross,canvas.Screen,2_4_2_1_2_0,2021-05-24T16:47:21.746Z,,,,,,,,,,,,,,,,,,,,,,,,,,,,,,,,,,,,,,,,,,,,,,,,,,,,,,,,,,,,,,,,,,,,,,,,,,,,,,,,,,,,,,,,,,,,,,,,,,,,,,,,,,,,,,,,,,,,498.4920000000857,,timeout,,,,unhealthy,,praline.png,,,,,,,,,,,,,,,praline,,,,,,,,,,,,,,,,,,,,,,,,,,,,,,,,,,,,,,,,,,,,,,,,,,,,,,,,,false,,,,,,,,,3113531.6200000234,3113530.923,3113032.283,3113046.665000031,3113049.074,3113547.566,,,,
Rating,html.Form,2_4_2_1_2_1,2021-05-24T16:47:27.536Z,,,,,,,,,,,,,,,,,,,,,,,,,,,,,,,,,,,,,,,,,,,,,,,,,,,,,,,,,,,,,,,,,,,,,,,,,,,,,,,,,,,,,,,,,,,,,,,,,,,,,,,,,,,,,,,,,,,,5774.004000145476,,form submission,,,,unhealthy,,praline.png,,,,,,,,,,,,,,,praline,,,,,,,,,,,,,,,,,,,,,,,,,,,,,,,,,,,,,,,,,,,,,,,,,,,,,,,,,false,,,,,,,,,3119321.7600001954,3119321.5700001456,3113530.923,3113531.700000167,3113547.566,3119332.262,,,,50
rating_sequence,flow.Sequence,2_4_2_1_2,2021-05-24T16:47:27.536Z,,,,,,,,,,,,,,,,,,,,,,,,,,,,,,,,,,,,,,,,,,,,,,,,,,,,,,,,,,,,,,,,,,,,,,,,,,,,,,,,,,,,,,,,,,,,,,,,,,,,,,,,,,,,,,,,,,,,6272.496000145562,,completion,,,,unhealthy,,praline.png,,,,,,,,,,,,,,,praline,,,,,,,,,,,,,,,,,,,,,,,,,,,,,,,,,,,,,,,,,,,,,,,,,,,,,,,,,false,,,,,,,,,3119321.9250000548,3119321.5700001456,3113032.283,3113046.6400000732,3113049.074,3119332.262,,,,
fixCross,canvas.Screen,2_4_2_1_3_0,2021-05-24T16:47:28.029Z,,,,,,,,,,,,,,,,,,,,,,,,,,,,,,,,,,,,,,,,,,,,,,,,,,,,,,,,,,,,,,,,,,,,,,,,,,,,,,,,,,,,,,,,,,,,,,,,,,,,,,,,,,,,,,,,,,,,498.70200000004843,,timeout,,,,unhealthy,,marshmallow.png,,,,,,,,,,,,,,,marshmallow,,,,,,,,,,,,,,,,,,,,,,,,,,,,,,,,,,,,,,,,,,,,,,,,,,,,,,,,,false,,,,,,,,,3119814.8800001945,3119814.306,3119315.679,3119322.0150000416,3119332.262,3119830.964,,,,
Rating,html.Form,2_4_2_1_3_1,2021-05-24T16:47:33.372Z,,,,,,,,,,,,,,,,,,,,,,,,,,,,,,,,,,,,,,,,,,,,,,,,,,,,,,,,,,,,,,,,,,,,,,,,,,,,,,,,,,,,,,,,,,,,,,,,,,,,,,,,,,,,,,,,,,,,5327.341000047978,,form submission,,,,unhealthy,,marshmallow.png,,,,,,,,,,,,,,,marshmallow,,,,,,,,,,,,,,,,,,,,,,,,,,,,,,,,,,,,,,,,,,,,,,,,,,,,,,,,,false,,,,,,,,,3125158.460000064,3125158.305000048,3119814.306,3119814.9650001433,3119830.964,3125166.824,,,,1
rating_sequence,flow.Sequence,2_4_2_1_3,2021-05-24T16:47:33.373Z,,,,,,,,,,,,,,,,,,,,,,,,,,,,,,,,,,,,,,,,,,,,,,,,,,,,,,,,,,,,,,,,,,,,,,,,,,,,,,,,,,,,,,,,,,,,,,,,,,,,,,,,,,,,,,,,,,,,5826.043000048026,,completion,,,,unhealthy,,marshmallow.png,,,,,,,,,,,,,,,marshmallow,,,,,,,,,,,,,,,,,,,,,,,,,,,,,,,,,,,,,,,,,,,,,,,,,,,,,,,,,false,,,,,,,,,3125158.5800000466,3125158.305000048,3119315.679,3119321.990000084,3119332.262,3125166.824,,,,
fixCross,canvas.Screen,2_4_2_1_4_0,2021-05-24T16:47:33.863Z,,,,,,,,,,,,,,,,,,,,,,,,,,,,,,,,,,,,,,,,,,,,,,,,,,,,,,,,,,,,,,,,,,,,,,,,,,,,,,,,,,,,,,,,,,,,,,,,,,,,,,,,,,,,,,,,,,,,498.7229999997653,,timeout,,,,unhealthy,,gummybear.png,,,,,,,,,,,,,,,gummybear,,,,,,,,,,,,,,,,,,,,,,,,,,,,,,,,,,,,,,,,,,,,,,,,,,,,,,,,,false,,,,,,,,,3125649.510000134,3125648.931,3125150.204,3125158.6649999954,3125166.824,3125665.547,,,,
Rating,html.Form,2_4_2_1_4_1,2021-05-24T16:47:38.469Z,,,,,,,,,,,,,,,,,,,,,,,,,,,,,,,,,,,,,,,,,,,,,,,,,,,,,,,,,,,,,,,,,,,,,,,,,,,,,,,,,,,,,,,,,,,,,,,,,,,,,,,,,,,,,,,,,,,,4589.603000099305,,form submission,,,,unhealthy,,gummybear.png,,,,,,,,,,,,,,,gummybear,,,,,,,,,,,,,,,,,,,,,,,,,,,,,,,,,,,,,,,,,,,,,,,,,,,,,,,,,false,,,,,,,,,3130255.3300000727,3130255.150000099,3125648.931,3125649.6400001924,3125665.547,3130270.032,,,,9
rating_sequence,flow.Sequence,2_4_2_1_4,2021-05-24T16:47:38.469Z,,,,,,,,,,,,,,,,,,,,,,,,,,,,,,,,,,,,,,,,,,,,,,,,,,,,,,,,,,,,,,,,,,,,,,,,,,,,,,,,,,,,,,,,,,,,,,,,,,,,,,,,,,,,,,,,,,,,5088.32600009907,,completion,,,,unhealthy,,gummybear.png,,,,,,,,,,,,,,,gummybear,,,,,,,,,,,,,,,,,,,,,,,,,,,,,,,,,,,,,,,,,,,,,,,,,,,,,,,,,false,,,,,,,,,3130255.4600001313,3130255.150000099,3125150.204,3125158.640000038,3125166.824,3130270.032,,,,
fixCross,canvas.Screen,2_4_2_1_5_0,2021-05-24T16:47:38.967Z,,,,,,,,,,,,,,,,,,,,,,,,,,,,,,,,,,,,,,,,,,,,,,,,,,,,,,,,,,,,,,,,,,,,,,,,,,,,,,,,,,,,,,,,,,,,,,,,,,,,,,,,,,,,,,,,,,,,498.6569999996573,,timeout,,,,healthy,,strawberry.png,,,,,,,,,,,,,,,strawberry,,,,,,,,,,,,,,,,,,,,,,,,,,,,,,,,,,,,,,,,,,,,,,,,,,,,,,,,,false,,,,,,,,,3130752.755000023,3130752.118,3130253.406,3130255.540000042,3130270.032,3130768.689,,,,
Rating,html.Form,2_4_2_1_5_1,2021-05-24T16:47:43.352Z,,,,,,,,,,,,,,,,,,,,,,,,,,,,,,,,,,,,,,,,,,,,,,,,,,,,,,,,,,,,,,,,,,,,,,,,,,,,,,,,,,,,,,,,,,,,,,,,,,,,,,,,,,,,,,,,,,,,4369.166000095662,,form submission,,,,healthy,,strawberry.png,,,,,,,,,,,,,,,strawberry,,,,,,,,,,,,,,,,,,,,,,,,,,,,,,,,,,,,,,,,,,,,,,,,,,,,,,,,,false,,,,,,,,,3135138.035000069,3135137.8550000954,3130752.118,3130752.9150000773,3130768.689,3135157.045,,,,90
rating_sequence,flow.Sequence,2_4_2_1_5,2021-05-24T16:47:43.352Z,,,,,,,,,,,,,,,,,,,,,,,,,,,,,,,,,,,,,,,,,,,,,,,,,,,,,,,,,,,,,,,,,,,,,,,,,,,,,,,,,,,,,,,,,,,,,,,,,,,,,,,,,,,,,,,,,,,,4867.823000095319,,completion,,,,healthy,,strawberry.png,,,,,,,,,,,,,,,strawberry,,,,,,,,,,,,,,,,,,,,,,,,,,,,,,,,,,,,,,,,,,,,,,,,,,,,,,,,,false,,,,,,,,,3135138.174999971,3135137.8550000954,3130253.406,3130255.5100000463,3130270.032,3135157.045,,,,
fixCross,canvas.Screen,2_4_2_1_6_0,2021-05-24T16:47:43.854Z,,,,,,,,,,,,,,,,,,,,,,,,,,,,,,,,,,,,,,,,,,,,,,,,,,,,,,,,,,,,,,,,,,,,,,,,,,,,,,,,,,,,,,,,,,,,,,,,,,,,,,,,,,,,,,,,,,,,498.76699999999255,,timeout,,,,healthy,,grape.png,,,,,,,,,,,,,,,grape,,,,,,,,,,,,,,,,,,,,,,,,,,,,,,,,,,,,,,,,,,,,,,,,,,,,,,,,,false,,,,,,,,,3135639.795000199,3135639.136,3135123.824,3135138.28500011,3135157.045,3135655.812,,,,
Rating,html.Form,2_4_2_1_6_1,2021-05-24T16:47:48.331Z,,,,,,,,,,,,,,,,,,,,,,,,,,,,,,,,,,,,,,,,,,,,,,,,,,,,,,,,,,,,,,,,,,,,,,,,,,,,,,,,,,,,,,,,,,,,,,,,,,,,,,,,,,,,,,,,,,,,4460.708000156097,,form submission,,,,healthy,,grape.png,,,,,,,,,,,,,,,grape,,,,,,,,,,,,,,,,,,,,,,,,,,,,,,,,,,,,,,,,,,,,,,,,,,,,,,,,,false,,,,,,,,,3140116.7000001296,3140116.520000156,3135639.136,3135639.925000025,3135655.812,3140127.246,,,,88
rating_sequence,flow.Sequence,2_4_2_1_6,2021-05-24T16:47:48.331Z,,,,,,,,,,,,,,,,,,,,,,,,,,,,,,,,,,,,,,,,,,,,,,,,,,,,,,,,,,,,,,,,,,,,,,,,,,,,,,,,,,,,,,,,,,,,,,,,,,,,,,,,,,,,,,,,,,,,4959.47500015609,,completion,,,,healthy,,grape.png,,,,,,,,,,,,,,,grape,,,,,,,,,,,,,,,,,,,,,,,,,,,,,,,,,,,,,,,,,,,,,,,,,,,,,,,,,false,,,,,,,,,3140116.8400000315,3140116.520000156,3135123.824,3135138.24,3135157.045,3140127.246,,,,
fixCross,canvas.Screen,2_4_2_1_7_0,2021-05-24T16:47:48.824Z,,,,,,,,,,,,,,,,,,,,,,,,,,,,,,,,,,,,,,,,,,,,,,,,,,,,,,,,,,,,,,,,,,,,,,,,,,,,,,,,,,,,,,,,,,,,,,,,,,,,,,,,,,,,,,,,,,,,498.9280000003055,,timeout,,,,healthy,,orange.png,,,,,,,,,,,,,,,orange,,,,,,,,,,,,,,,,,,,,,,,,,,,,,,,,,,,,,,,,,,,,,,,,,,,,,,,,,false,,,,,,,,,3140609.9900000263,3140609.321,3140110.66,3140116.920000175,3140127.246,3140626.174,,,,
Rating,html.Form,2_4_2_1_7_1,2021-05-24T16:47:52.696Z,,,,,,,,,,,,,,,,,,,,,,,,,,,,,,,,,,,,,,,,,,,,,,,,,,,,,,,,,,,,,,,,,,,,,,,,,,,,,,,,,,,,,,,,,,,,,,,,,,,,,,,,,,,,,,,,,,,,3855.2910001934506,,form submission,,,,healthy,,orange.png,,,,,,,,,,,,,,,orange,,,,,,,,,,,,,,,,,,,,,,,,,,,,,,,,,,,,,,,,,,,,,,,,,,,,,,,,,false,,,,,,,,,3144481.625000015,3144481.4650001936,3140609.321,3140610.175000038,3140626.174,3144482.361,,,,92
rating_sequence,flow.Sequence,2_4_2_1_7,2021-05-24T16:47:52.696Z,,,,,,,,,,,,,,,,,,,,,,,,,,,,,,,,,,,,,,,,,,,,,,,,,,,,,,,,,,,,,,,,,,,,,,,,,,,,,,,,,,,,,,,,,,,,,,,,,,,,,,,,,,,,,,,,,,,,4354.219000193756,,completion,,,,healthy,,orange.png,,,,,,,,,,,,,,,orange,,,,,,,,,,,,,,,,,,,,,,,,,,,,,,,,,,,,,,,,,,,,,,,,,,,,,,,,,false,,,,,,,,,3144481.7600001115,3144481.4650001936,3140110.66,3140116.9000000227,3140127.246,3144482.361,,,,
fixCross,canvas.Screen,2_4_2_1_8_0,2021-05-24T16:47:53.179Z,,,,,,,,,,,,,,,,,,,,,,,,,,,,,,,,,,,,,,,,,,,,,,,,,,,,,,,,,,,,,,,,,,,,,,,,,,,,,,,,,,,,,,,,,,,,,,,,,,,,,,,,,,,,,,,,,,,,498.7029999997467,,timeout,,,,unhealthy,,chocolate.png,,,,,,,,,,,,,,,chocolate,,,,,,,,,,,,,,,,,,,,,,,,,,,,,,,,,,,,,,,,,,,,,,,,,,,,,,,,,false,,,,,,,,,3144965.049999999,3144964.461,3144465.811,3144481.8450000603,3144482.361,3144981.064,,,,
Rating,html.Form,2_4_2_1_8_1,2021-05-24T16:47:57.285Z,,,,,,,,,,,,,,,,,,,,,,,,,,,,,,,,,,,,,,,,,,,,,,,,,,,,,,,,,,,,,,,,,,,,,,,,,,,,,,,,,,,,,,,,,,,,,,,,,,,,,,,,,,,,,,,,,,,,4089.8109999760054,,form submission,,,,unhealthy,,chocolate.png,,,,,,,,,,,,,,,chocolate,,,,,,,,,,,,,,,,,,,,,,,,,,,,,,,,,,,,,,,,,,,,,,,,,,,,,,,,,false,,,,,,,,,3149071.140000131,3149070.874999976,3144964.461,3144965.1850000955,3144981.064,3149103.48,,,,63
rating_sequence,flow.Sequence,2_4_2_1_8,2021-05-24T16:47:57.285Z,,,,,,,,,,,,,,,,,,,,,,,,,,,,,,,,,,,,,,,,,,,,,,,,,,,,,,,,,,,,,,,,,,,,,,,,,,,,,,,,,,,,,,,,,,,,,,,,,,,,,,,,,,,,,,,,,,,,4588.513999975752,,completion,,,,unhealthy,,chocolate.png,,,,,,,,,,,,,,,chocolate,,,,,,,,,,,,,,,,,,,,,,,,,,,,,,,,,,,,,,,,,,,,,,,,,,,,,,,,,false,,,,,,,,,3149071.4200001676,3149070.874999976,3144465.811,3144481.8200001027,3144482.361,3149103.48,,,,
fixCross,canvas.Screen,2_4_2_1_9_0,2021-05-24T16:47:57.800Z,,,,,,,,,,,,,,,,,,,,,,,,,,,,,,,,,,,,,,,,,,,,,,,,,,,,,,,,,,,,,,,,,,,,,,,,,,,,,,,,,,,,,,,,,,,,,,,,,,,,,,,,,,,,,,,,,,,,498.72099999990314,,timeout,,,,healthy,,coconut.png,,,,,,,,,,,,,,,coconut,,,,,,,,,,,,,,,,,,,,,,,,,,,,,,,,,,,,,,,,,,,,,,,,,,,,,,,,,false,,,,,,,,,3149586.065000156,3149585.573,3149088.318,3149071.579999989,3149103.48,3149602.201,,,,
Rating,html.Form,2_4_2_1_9_1,2021-05-24T16:48:02.457Z,,,,,,,,,,,,,,,,,,,,,,,,,,,,,,,,,,,,,,,,,,,,,,,,,,,,,,,,,,,,,,,,,,,,,,,,,,,,,,,,,,,,,,,,,,,,,,,,,,,,,,,,,,,,,,,,,,,,4640.724000144284,,form submission,,,,healthy,,coconut.png,,,,,,,,,,,,,,,coconut,,,,,,,,,,,,,,,,,,,,,,,,,,,,,,,,,,,,,,,,,,,,,,,,,,,,,,,,,false,,,,,,,,,3154243.060000008,3154242.925000144,3149585.573,3149586.160000181,3149602.201,3154256.546,,,,94
rating_sequence,flow.Sequence,2_4_2_1_9,2021-05-24T16:48:02.457Z,,,,,,,,,,,,,,,,,,,,,,,,,,,,,,,,,,,,,,,,,,,,,,,,,,,,,,,,,,,,,,,,,,,,,,,,,,,,,,,,,,,,,,,,,,,,,,,,,,,,,,,,,,,,,,,,,,,,5139.445000144187,,completion,,,,healthy,,coconut.png,,,,,,,,,,,,,,,coconut,,,,,,,,,,,,,,,,,,,,,,,,,,,,,,,,,,,,,,,,,,,,,,,,,,,,,,,,,false,,,,,,,,,3154243.1799999904,3154242.925000144,3149088.318,3149071.535000112,3149103.48,3154256.546,,,,
fixCross,canvas.Screen,2_4_2_1_10_0,2021-05-24T16:48:02.953Z,,,,,,,,,,,,,,,,,,,,,,,,,,,,,,,,,,,,,,,,,,,,,,,,,,,,,,,,,,,,,,,,,,,,,,,,,,,,,,,,,,,,,,,,,,,,,,,,,,,,,,,,,,,,,,,,,,,,498.6790000000037,,timeout,,,,unhealthy,,chocolate_truffle.png,,,,,,,,,,,,,,,chocolate truffle,,,,,,,,,,,,,,,,,,,,,,,,,,,,,,,,,,,,,,,,,,,,,,,,,,,,,,,,,false,,,,,,,,,3154739.370000083,3154738.635,3154239.884,3154243.265000172,3154256.546,3154755.225,,,,
Rating,html.Form,2_4_2_1_10_1,2021-05-24T16:48:07.253Z,,,,,,,,,,,,,,,,,,,,,,,,,,,,,,,,,,,,,,,,,,,,,,,,,,,,,,,,,,,,,,,,,,,,,,,,,,,,,,,,,,,,,,,,,,,,,,,,,,,,,,,,,,,,,,,,,,,,4283.31500009587,,form submission,,,,unhealthy,,chocolate_truffle.png,,,,,,,,,,,,,,,chocolate truffle,,,,,,,,,,,,,,,,,,,,,,,,,,,,,,,,,,,,,,,,,,,,,,,,,,,,,,,,,false,,,,,,,,,3159038.7099999934,3159038.540000096,3154738.635,3154739.5350001752,3154755.225,3159043.873,,,,81
rating_sequence,flow.Sequence,2_4_2_1_10,2021-05-24T16:48:07.253Z,,,,,,,,,,,,,,,,,,,,,,,,,,,,,,,,,,,,,,,,,,,,,,,,,,,,,,,,,,,,,,,,,,,,,,,,,,,,,,,,,,,,,,,,,,,,,,,,,,,,,,,,,,,,,,,,,,,,4781.994000095874,,completion,,,,unhealthy,,chocolate_truffle.png,,,,,,,,,,,,,,,chocolate truffle,,,,,,,,,,,,,,,,,,,,,,,,,,,,,,,,,,,,,,,,,,,,,,,,,,,,,,,,,false,,,,,,,,,3159038.829999976,3159038.540000096,3154239.884,3154243.2399999816,3154256.546,3159043.873,,,,
fixCross,canvas.Screen,2_4_2_1_11_0,2021-05-24T16:48:07.741Z,,,,,,,,,,,,,,,,,,,,,,,,,,,,,,,,,,,,,,,,,,,,,,,,,,,,,,,,,,,,,,,,,,,,,,,,,,,,,,,,,,,,,,,,,,,,,,,,,,,,,,,,,,,,,,,,,,,,498.6739999996498,,timeout,,,,healthy,,pear.png,,,,,,,,,,,,,,,pear,,,,,,,,,,,,,,,,,,,,,,,,,,,,,,,,,,,,,,,,,,,,,,,,,,,,,,,,,false,,,,,,,,,3159526.599999983,3159525.876,3159027.294,3159038.9250000007,3159043.873,3159542.547,,,,
Rating,html.Form,2_4_2_1_11_1,2021-05-24T16:48:13.020Z,,,,,,,,,,,,,,,,,,,,,,,,,,,,,,,,,,,,,,,,,,,,,,,,,,,,,,,,,,,,,,,,,,,,,,,,,,,,,,,,,,,,,,,,,,,,,,,,,,,,,,,,,,,,,,,,,,,,5262.848000148777,,form submission,,,,healthy,,pear.png,,,,,,,,,,,,,,,pear,,,,,,,,,,,,,,,,,,,,,,,,,,,,,,,,,,,,,,,,,,,,,,,,,,,,,,,,,false,,,,,,,,,3164805.5350000504,3164805.3950001486,3159525.876,3159526.7250000034,3159542.547,3164811.921,,,,57
rating_sequence,flow.Sequence,2_4_2_1_11,2021-05-24T16:48:13.020Z,,,,,,,,,,,,,,,,,,,,,,,,,,,,,,,,,,,,,,,,,,,,,,,,,,,,,,,,,,,,,,,,,,,,,,,,,,,,,,,,,,,,,,,,,,,,,,,,,,,,,,,,,,,,,,,,,,,,5761.522000148427,,completion,,,,healthy,,pear.png,,,,,,,,,,,,,,,pear,,,,,,,,,,,,,,,,,,,,,,,,,,,,,,,,,,,,,,,,,,,,,,,,,,,,,,,,,false,,,,,,,,,3164805.670000147,3164805.3950001486,3159027.294,3159038.895000005,3159043.873,3164811.921,,,,
fixCross,canvas.Screen,2_4_2_1_12_0,2021-05-24T16:48:13.508Z,,,,,,,,,,,,,,,,,,,,,,,,,,,,,,,,,,,,,,,,,,,,,,,,,,,,,,,,,,,,,,,,,,,,,,,,,,,,,,,,,,,,,,,,,,,,,,,,,,,,,,,,,,,,,,,,,,,,498.68399999989197,,timeout,,,,unhealthy,,candy.png,,,,,,,,,,,,,,,candy,,,,,,,,,,,,,,,,,,,,,,,,,,,,,,,,,,,,,,,,,,,,,,,,,,,,,,,,,false,,,,,,,,,3165294.5000000764,3165294.023,3164795.362,3164805.7500000577,3164811.921,3165310.605,,,,
Rating,html.Form,2_4_2_1_12_1,2021-05-24T16:48:17.890Z,,,,,,,,,,,,,,,,,,,,,,,,,,,,,,,,,,,,,,,,,,,,,,,,,,,,,,,,,,,,,,,,,,,,,,,,,,,,,,,,,,,,,,,,,,,,,,,,,,,,,,,,,,,,,,,,,,,,4364.990000153426,,form submission,,,,unhealthy,,candy.png,,,,,,,,,,,,,,,candy,,,,,,,,,,,,,,,,,,,,,,,,,,,,,,,,,,,,,,,,,,,,,,,,,,,,,,,,,false,,,,,,,,,3169675.7950000465,3169675.5950001534,3165294.023,3165294.579999987,3165310.605,3169682.424,,,,50
rating_sequence,flow.Sequence,2_4_2_1_12,2021-05-24T16:48:17.890Z,,,,,,,,,,,,,,,,,,,,,,,,,,,,,,,,,,,,,,,,,,,,,,,,,,,,,,,,,,,,,,,,,,,,,,,,,,,,,,,,,,,,,,,,,,,,,,,,,,,,,,,,,,,,,,,,,,,,4863.674000153318,,completion,,,,unhealthy,,candy.png,,,,,,,,,,,,,,,candy,,,,,,,,,,,,,,,,,,,,,,,,,,,,,,,,,,,,,,,,,,,,,,,,,,,,,,,,,false,,,,,,,,,3169675.969999982,3169675.5950001534,3164795.362,3164805.7300001383,3164811.921,3169682.424,,,,
fixCross,canvas.Screen,2_4_2_1_13_0,2021-05-24T16:48:18.379Z,,,,,,,,,,,,,,,,,,,,,,,,,,,,,,,,,,,,,,,,,,,,,,,,,,,,,,,,,,,,,,,,,,,,,,,,,,,,,,,,,,,,,,,,,,,,,,,,,,,,,,,,,,,,,,,,,,,,498.70599999977276,,timeout,,,,unhealthy,,m&m.png,,,,,,,,,,,,,,,m&m,,,,,,,,,,,,,,,,,,,,,,,,,,,,,,,,,,,,,,,,,,,,,,,,,,,,,,,,,false,,,,,,,,,3170165.0800001808,3170164.47,3169665.836,3169676.059999969,3169682.424,3170181.13,,,,
Rating,html.Form,2_4_2_1_13_1,2021-05-24T16:48:23.708Z,,,,,,,,,,,,,,,,,,,,,,,,,,,,,,,,,,,,,,,,,,,,,,,,,,,,,,,,,,,,,,,,,,,,,,,,,,,,,,,,,,,,,,,,,,,,,,,,,,,,,,,,,,,,,,,,,,,,5312.190000125207,,form submission,,,,unhealthy,,m&m.png,,,,,,,,,,,,,,,m&m,,,,,,,,,,,,,,,,,,,,,,,,,,,,,,,,,,,,,,,,,,,,,,,,,,,,,,,,,false,,,,,,,,,3175493.4849999845,3175493.320000125,3170164.47,3170165.185000049,3170181.13,3175500.344,,,,11
rating_sequence,flow.Sequence,2_4_2_1_13,2021-05-24T16:48:23.708Z,,,,,,,,,,,,,,,,,,,,,,,,,,,,,,,,,,,,,,,,,,,,,,,,,,,,,,,,,,,,,,,,,,,,,,,,,,,,,,,,,,,,,,,,,,,,,,,,,,,,,,,,,,,,,,,,,,,,5810.89600012498,,completion,,,,unhealthy,,m&m.png,,,,,,,,,,,,,,,m&m,,,,,,,,,,,,,,,,,,,,,,,,,,,,,,,,,,,,,,,,,,,,,,,,,,,,,,,,,false,,,,,,,,,3175493.610000005,3175493.320000125,3169665.836,3169676.0400000494,3169682.424,3175500.344,,,,
fixCross,canvas.Screen,2_4_2_1_14_0,2021-05-24T16:48:24.197Z,,,,,,,,,,,,,,,,,,,,,,,,,,,,,,,,,,,,,,,,,,,,,,,,,,,,,,,,,,,,,,,,,,,,,,,,,,,,,,,,,,,,,,,,,,,,,,,,,,,,,,,,,,,,,,,,,,,,498.70899999979883,,timeout,,,,healthy,,blueberry.png,,,,,,,,,,,,,,,blueberry,,,,,,,,,,,,,,,,,,,,,,,,,,,,,,,,,,,,,,,,,,,,,,,,,,,,,,,,,false,,,,,,,,,3175983.11999999,3175982.396,3175483.708,3175493.6900001485,3175500.344,3175999.053,,,,
Rating,html.Form,2_4_2_1_14_1,2021-05-24T16:48:28.394Z,,,,,,,,,,,,,,,,,,,,,,,,,,,,,,,,,,,,,,,,,,,,,,,,,,,,,,,,,,,,,,,,,,,,,,,,,,,,,,,,,,,,,,,,,,,,,,,,,,,,,,,,,,,,,,,,,,,,4180.732000160497,,form submission,,,,healthy,,blueberry.png,,,,,,,,,,,,,,,blueberry,,,,,,,,,,,,,,,,,,,,,,,,,,,,,,,,,,,,,,,,,,,,,,,,,,,,,,,,,false,,,,,,,,,3180179.9350001384,3180179.7850001603,3175982.396,3175983.3050000016,3175999.053,3180187.976,,,,87
rating_sequence,flow.Sequence,2_4_2_1_14,2021-05-24T16:48:28.394Z,,,,,,,,,,,,,,,,,,,,,,,,,,,,,,,,,,,,,,,,,,,,,,,,,,,,,,,,,,,,,,,,,,,,,,,,,,,,,,,,,,,,,,,,,,,,,,,,,,,,,,,,,,,,,,,,,,,,4679.4410001602955,,completion,,,,healthy,,blueberry.png,,,,,,,,,,,,,,,blueberry,,,,,,,,,,,,,,,,,,,,,,,,,,,,,,,,,,,,,,,,,,,,,,,,,,,,,,,,,false,,,,,,,,,3180180.060000159,3180179.7850001603,3175483.708,3175493.665000191,3175500.344,3180187.976,,,,
fixCross,canvas.Screen,2_4_2_1_15_0,2021-05-24T16:48:28.885Z,,,,,,,,,,,,,,,,,,,,,,,,,,,,,,,,,,,,,,,,,,,,,,,,,,,,,,,,,,,,,,,,,,,,,,,,,,,,,,,,,,,,,,,,,,,,,,,,,,,,,,,,,,,,,,,,,,,,498.62300000013784,,timeout,,,,healthy,,raspberry.png,,,,,,,,,,,,,,,raspberry,,,,,,,,,,,,,,,,,,,,,,,,,,,,,,,,,,,,,,,,,,,,,,,,,,,,,,,,,false,,,,,,,,,3180670.575000113,3180670.017,3180171.298,3180180.1450001076,3180187.976,3180686.599,,,,
Rating,html.Form,2_4_2_1_15_1,2021-05-24T16:48:35.608Z,,,,,,,,,,,,,,,,,,,,,,,,,,,,,,,,,,,,,,,,,,,,,,,,,,,,,,,,,,,,,,,,,,,,,,,,,,,,,,,,,,,,,,,,,,,,,,,,,,,,,,,,,,,,,,,,,,,,6707.6710000480525,,form submission,,,,healthy,,raspberry.png,,,,,,,,,,,,,,,raspberry,,,,,,,,,,,,,,,,,,,,,,,,,,,,,,,,,,,,,,,,,,,,,,,,,,,,,,,,,false,,,,,,,,,3187394.4400001783,3187394.270000048,3180670.017,3180670.7150000148,3180686.599,3187402.185,,,,86
rating_sequence,flow.Sequence,2_4_2_1_15,2021-05-24T16:48:35.609Z,,,,,,,,,,,,,,,,,,,,,,,,,,,,,,,,,,,,,,,,,,,,,,,,,,,,,,,,,,,,,,,,,,,,,,,,,,,,,,,,,,,,,,,,,,,,,,,,,,,,,,,,,,,,,,,,,,,,7206.29400004819,,completion,,,,healthy,,raspberry.png,,,,,,,,,,,,,,,raspberry,,,,,,,,,,,,,,,,,,,,,,,,,,,,,,,,,,,,,,,,,,,,,,,,,,,,,,,,,false,,,,,,,,,3187394.5600001607,3187394.270000048,3180171.298,3180180.115000112,3180187.976,3187402.185,,,,
fixCross,canvas.Screen,2_4_2_1_16_0,2021-05-24T16:48:36.099Z,,,,,,,,,,,,,,,,,,,,,,,,,,,,,,,,,,,,,,,,,,,,,,,,,,,,,,,,,,,,,,,,,,,,,,,,,,,,,,,,,,,,,,,,,,,,,,,,,,,,,,,,,,,,,,,,,,,,498.71699999971315,,timeout,,,,unhealthy,,maltesers.png,,,,,,,,,,,,,,,malteser,,,,,,,,,,,,,,,,,,,,,,,,,,,,,,,,,,,,,,,,,,,,,,,,,,,,,,,,,false,,,,,,,,,3187884.8600001074,3187884.272,3187385.588,3187394.6400000714,3187402.185,3187900.902,,,,
Rating,html.Form,2_4_2_1_16_1,2021-05-24T16:48:40.355Z,,,,,,,,,,,,,,,,,,,,,,,,,,,,,,,,,,,,,,,,,,,,,,,,,,,,,,,,,,,,,,,,,,,,,,,,,,,,,,,,,,,,,,,,,,,,,,,,,,,,,,,,,,,,,,,,,,,,4239.902999973856,,form submission,,,,unhealthy,,maltesers.png,,,,,,,,,,,,,,,malteser,,,,,,,,,,,,,,,,,,,,,,,,,,,,,,,,,,,,,,,,,,,,,,,,,,,,,,,,,false,,,,,,,,,3192141.035000095,3192140.8049999736,3187884.272,3187884.9649999756,3187900.902,3192156.308,,,,32
rating_sequence,flow.Sequence,2_4_2_1_16,2021-05-24T16:48:40.355Z,,,,,,,,,,,,,,,,,,,,,,,,,,,,,,,,,,,,,,,,,,,,,,,,,,,,,,,,,,,,,,,,,,,,,,,,,,,,,,,,,,,,,,,,,,,,,,,,,,,,,,,,,,,,,,,,,,,,4738.619999973569,,completion,,,,unhealthy,,maltesers.png,,,,,,,,,,,,,,,malteser,,,,,,,,,,,,,,,,,,,,,,,,,,,,,,,,,,,,,,,,,,,,,,,,,,,,,,,,,false,,,,,,,,,3192141.2600001786,3192140.8049999736,3187385.588,3187394.620000152,3187402.185,3192156.308,,,,
fixCross,canvas.Screen,2_4_2_1_17_0,2021-05-24T16:48:40.853Z,,,,,,,,,,,,,,,,,,,,,,,,,,,,,,,,,,,,,,,,,,,,,,,,,,,,,,,,,,,,,,,,,,,,,,,,,,,,,,,,,,,,,,,,,,,,,,,,,,,,,,,,,,,,,,,,,,,,498.62699999986216,,timeout,,,,healthy,,apple.png,,,,,,,,,,,,,,,apple,,,,,,,,,,,,,,,,,,,,,,,,,,,,,,,,,,,,,,,,,,,,,,,,,,,,,,,,,false,,,,,,,,,3192639.1450001393,3192638.311,3192139.613,3192141.430000076,3192156.308,3192654.935,,,,
Rating,html.Form,2_4_2_1_17_1,2021-05-24T16:48:46.399Z,,,,,,,,,,,,,,,,,,,,,,,,,,,,,,,,,,,,,,,,,,,,,,,,,,,,,,,,,,,,,,,,,,,,,,,,,,,,,,,,,,,,,,,,,,,,,,,,,,,,,,,,,,,,,,,,,,,,5529.545000054408,,form submission,,,,healthy,,apple.png,,,,,,,,,,,,,,,apple,,,,,,,,,,,,,,,,,,,,,,,,,,,,,,,,,,,,,,,,,,,,,,,,,,,,,,,,,false,,,,,,,,,3198184.705000138,3198184.4800000545,3192638.311,3192639.330000151,3192654.935,3198190.32,,,,70
rating_sequence,flow.Sequence,2_4_2_1_17,2021-05-24T16:48:46.399Z,,,,,,,,,,,,,,,,,,,,,,,,,,,,,,,,,,,,,,,,,,,,,,,,,,,,,,,,,,,,,,,,,,,,,,,,,,,,,,,,,,,,,,,,,,,,,,,,,,,,,,,,,,,,,,,,,,,,6028.17200005427,,completion,,,,healthy,,apple.png,,,,,,,,,,,,,,,apple,,,,,,,,,,,,,,,,,,,,,,,,,,,,,,,,,,,,,,,,,,,,,,,,,,,,,,,,,false,,,,,,,,,3198184.955000179,3198184.4800000545,3192139.613,3192141.375000123,3192156.308,3198190.32,,,,
rating_loop,flow.Loop,2_4_2_1,2021-05-24T16:48:46.399Z,,,,,,,,,,,,,,,,,,,,,,,,,,,,,,,,,,,,,,,,,,,,,,,,,,,,,,,,,,,,,,,,,,,,,,,,,,,,,,,,,,,,,,,,,,,,,,,,,,,,,,,,,,,,,,,,,,,,103686.48600005452,,completion,,,,,,,,,,,,,,,,,,,,,,,,,,,,,,,,,,,,,,,,,,,,,,,,,,,,,,,,,,,,,,,,,,,,,,,,,,,,,,false,,,,,,,,,3198185.155000072,3198184.4800000545,3094480.896,3094485.4050001595,3094497.994,3198190.32,,,,
data_transmission,html.Screen,2_4_2_2,2021-05-24T16:48:46.409Z,,,,,,,,,,,,,,,,,,,,,,,,,,,,,,,,,,,,,,,,,,,,,,,,,,,,,,,,,,,,,,,,,,,,,,,,,,,,,,,,,,,,,,,,,,,,,,,,,,,,,,,,,,,,,,,,,,,,NaN,,no compatible backend,,,,,,,,,,,,,,,Transferring data,,,,,,,,,,,,,,,,,,,,,,,,,,,,,,,,,,,,,,,,,,,,,,,,,,,,,,,,,,,,,,,false,,,Please wait a second…,,,,,,3198194.6050000843,3198194.4250001106,,3198185.2700000163,,3198190.32,,,,
instructions,html.Screen,2_4_2_3,2021-05-24T18:24:09.971Z,,,,,,,,,,,,,,,,,,,,,,,,,,,,,,,,,,,,,,,,,,,,,,,,,,,,,,,,,,,,,,,,,,,,,,,,,,,,,,,,,,,,,,,,,,,,,,,,,,,,,,,,,,,,,,,,,,,,5723589.860000001,,done,,,,,,,,,,,,,,,,,,,,,,,,,,,,,,,,,,,,,,,,,,,,,,,,,,,,,,,,,,,,,,,,,,,,,,,,,,,,,,false,,,,,,,,,8921781.435000012,8921780.180000002,3198173.704,3198194.7100001853,3198190.32,8921797.347,,,,
Q1,html.Screen,2_4_2_4_0,2021-05-24T18:24:17.047Z,,,,,,,,,,,,,,,,,,,,,,,,,,,,,,,,,,,,,,,,,,,,,,,,,,,,,,,,,,,,,,,,,,,,,,,,,,,,,,,,,,,,,,,,,,,,,,,,,,,,,,,,,,,,,,,,false,input_Q1==3,,,7057.798000155017,,response,,,,,,,,,,,,,,,,,,,,,,,,,Q1_i4,Q1_i2,Q1_i3,Q1_i1,4,2,3,1,false,false,correct,false,,,,,,,,,,,,,,,,,,,,,,,,,,,,,,,,,,,,,,,,,click #Q1_i3,false,,,,,,,,,8928857.085000025,8928855.145000154,8921780.647,8921781.875000102,8921797.347,8928861.962,,,,
Q1_correct,html.Screen,2_4_2_4_1,2021-05-24T18:24:18.679Z,,,,,,,,,,,,,,,,,,,,,,,,,,,,,,,,,,,,,,,,,,,,,,,,,,,,,,,,,,,,,,,,,,,,,,,,,,,,,,,,,,,,,,,,,,,,,,,,,,,,,,,,,,,,,,,,,,,,1627.1430001612753,,response,,,,,,,,,,,,,,,,,,,,,,,,,,,,,,,,,,,,,,,,,,,,,,,,,,,,,,,,,,,,,,,,,,,,,,,,,,,,,keypress,false,,,,,,,,,8930489.50500018,8930489.10500016,8928845.355,8928857.195000164,8928861.962,8930491.016,,,,
Q2,html.Screen,2_4_2_4_2,2021-05-24T18:24:23.062Z,,,,,,,,,,,,,,,,,,,,,,,,,,,,,,,,,,,,,,,,,,,,,,,,,,,,,,,,,,,,,,,,,,,,,,,,,,,,,,,,,,,,,,,,,,,,,,,,,,,,,,,,,,,,,,,,,,,,4381.409000182524,,response,,,,,,,,,,,,,,,,,,,,,,,,,,,,,,,,,,,,,Q2_i3,Q2_i1,Q2_i2,Same amount,Option 1,Option 2,same,correct,opt2,,,,,,,,,,,,,,,,,,,,,,,,,,,,,,,,click #Q2_i1,false,,,,,,,,,8934873.000000138,8934872.425000183,8930474.319,8930489.590000128,8930491.016,8934879.393,,,,
Q2_correct,html.Screen,2_4_2_4_3,2021-05-24T18:24:24.538Z,,,,,,,,,,,,,,,,,,,,,,,,,,,,,,,,,,,,,,,,,,,,,,,,,,,,,,,,,,,,,,,,,,,,,,,,,,,,,,,,,,,,,,,,,,,,,,,,,,,,,,,,,,,,,,,,,,,,1468.7520001716912,,response,,,,,,,,,,,,,,,,,,,,,,,,,,,,,,,,,,,,,,,,,,,,,,,,,,,,,,,,,,,,,,,,,,,,,,,,,,,,,keypress,false,,,,,,,,,8936348.56500011,8936348.14500017,8934862.772,8934873.12000012,8934879.393,8936358.84,,,,
Q4,html.Screen,2_4_2_4_4,2021-05-24T18:24:32.387Z,,,,,,,,,,,,,,,,,,,,,,,,,,,,,,,,,,,,,,,,,,,,,,,,,,,,,,,,,,,,,,,,,,,,,,,,,,,,,,,,,,,,,,,,,,,,,,,,,,,,,,,,,,,,,,,,,,,,7838.470000192523,,response,,,,,,,,,,,,,,,,,,,,,,,,,,,,,,,,,,,,,,,,,,,,,,Q4_i3,Q4_i2,Q4_i1,Q4_i4,Press the arrow key that corresponds with the snack option with more food items,Indicate the number of food items in each snack option,Press the arrow key that corresponds with the snack option I prefer,Press the space key,morefood,indicate,correct,pressspace,,,,,,,,,,,,,,,,,,,,click #Q4_i1,false,,,,,,,,,8944197.96000002,8944197.310000192,8936342.153,8936348.64500002,8936358.84,8944204.711,,,,
Q4_correct,html.Screen,2_4_2_4_5,2021-05-24T18:24:33.598Z,,,,,,,,,,,,,,,,,,,,,,,,,,,,,,,,,,,,,,,,,,,,,,,,,,,,,,,,,,,,,,,,,,,,,,,,,,,,,,,,,,,,,,,,,,,,,,,,,,,,,,,,,,,,,,,,,,,,1203.4140000753105,,response,,,,,,,,,,,,,,,,,,,,,,,,,,,,,,,,,,,,,,,,,,,,,,,,,,,,,,,,,,,,,,,,,,,,,,,,,,,,,keypress,false,,,,,,,,,8945408.505000174,8945408.125000075,8944188.09,8944198.08500004,8944204.711,8945418.181,,,,
Q5,html.Screen,2_4_2_4_6,2021-05-24T18:24:39.074Z,,,,,,,,,,,,,,,,,,,,,,,,,,,,,,,,,,,,,,,,,,,,,,,,,,,,,,,,,,,,,,,,,,,,,,,,,,,,,,,,,,,,,,,,,,,,,,,,,,,,,,,,,,,,,,,,,,,,5465.9640000183135,,response,,,,,,,,,,,,,,,,,,,,,,,,,,,,,,,,,,,,,,,,,,,,,,,,,,,,,,,,,,Q5_i1,Q5_i4,Q5_i3,Q5_i2,Snack Option 2 has been chosen,Snack Option 1 has been chosen,There are more slices of kiwi in snack Option 1,There are more pieces of chocolate in snack Option 2,correct,chose1,morekiwi1,morechoc2,,,,,,,,click #Q5_i1,false,,,,,,,,,8950884.780000197,8950884.145000018,8945401.516,8945408.600000199,8945418.181,8950887.015,,,,
Q5_correct,html.Screen,2_4_2_4_7,2021-05-24T18:24:40.381Z,,,,,,,,,,,,,,,,,,,,,,,,,,,,,,,,,,,,,,,,,,,,,,,,,,,,,,,,,,,,,,,,,,,,,,,,,,,,,,,,,,,,,,,,,,,,,,,,,,,,,,,,,,,,,,,,,,,,1303.6500001177192,,response,,,,,,,,,,,,,,,,,,,,,,,,,,,,,,,,,,,,,,,,,,,,,,,,,,,,,,,,,,,,,,,,,,,,,,,,,,,,,keypress,false,,,,,,,,,8952191.04000018,8952190.665000118,8950870.414,8950884.950000094,8950887.015,8952200.213,,,,
practice_sequence,flow.Sequence,2_4_2_4,2021-05-24T18:24:40.381Z,,,,,,,,,,,,,,,,,,,,,,,,,,,,,,,,,,,,,,,,,,,,,,,,,,,,,,,,,,,,,,,,,,,,,,,,,,,,,,,,,,,,,,,,,,,,,,,,,,,,,,,,,,,,,,,,,,,,30393.31800011918,,completion,,,,,,,,,,,,,,,,,,,,,,,,,,,,,,,,,,,,,,,,,,,,,,,,,,,,,,,,,,,,,,,,,,,,,,,,,,,,,,false,,,,,,,,,8952191.160000162,8952190.665000118,8921780.647,8921781.82000015,8921797.347,8952200.213,,,,
final_instru,html.Screen,2_4_2_5,2021-05-24T18:24:56.484Z,,,,,,,,,,,,,,,,,,,,,,,,,,,,,,,,,,,,,,,,,,,,,,,,,,,,,,,,,,,,,,,,,,,,,,,,,,,,,,,,,,,,,,,,,,,,,,,,,,,,,,,,,,,,,,,,,,,,16093.772000113502,,done,,,,,,,,,,,,,,,,,,,,,,,,,,,,,,,,,,,,,,,,,,,,,,,,,,,,,,,,,,,,,,,,,,,,,,,,,,,,,,false,,,,,,,,,8968294.110000134,8968293.985000113,8952183.602,8952191.220000153,8952200.213,8968307.59,,,,
blank_screen,canvas.Screen,2_4_2_6_0,2021-05-24T18:24:58.476Z,,,,,,,,,,,,,,,,,,,,,,,,,,,,,,,,,,,,,,,,,,,,,,,,,,,,,,,,,,,,,,,,,,,,,,,,,,,,,,,,,,,,,,,,,,,,,,,,,,,,,,,,,,,,,,,,,,,,1994.7239999994636,,timeout,,,,,,,,,,,,,,,,,,,,,,,,,,,,,,,,,,,,,,,,,,,,,,,,,,,,,,,,,,,,,,,,,,,,,,,,,,,,,,false,,,,,,,,,8970286.160000134,8970285.725,8968290.756,8968294.230000116,8968307.59,8970302.314,,,,
fixCross,canvas.Screen,2_4_2_6_1_0_0_0_0_0_0,2021-05-24T18:24:58.875Z,,,blank.png,blank.png,blank.png,blank.png,blank.png,blank.png,blank.png,"[""chocolate_truffle.png""]",blank.png,blank.png,blank.png,blank.png,blank.png,,,,,,,,,,,,,,,,,,,,,,,,,,,,,"[""chocolate_truffle.png""]","[""coconut.png""]",PB18.png,,,,,,,,,,,0,6,"[""coconut.png""]","[""coconut.png""]","[""coconut.png""]","[""coconut.png""]","[""coconut.png""]","[""coconut.png""]",blank.png,PB18.png,PB17.png,"[""coconut.png""]","[""coconut.png""]","[""coconut.png""]","[""coconut.png""]","[""coconut.png""]","[""coconut.png""]","[""coconut.png""]","[""coconut.png""]","[""coconut.png""]","[""coconut.png""]","[""coconut.png""]","[""coconut.png""]",1,"[""chocolate_truffle.png""]",blank.png,blank.png,blank.png,6,"[""coconut.png""]","[""coconut.png""]","[""coconut.png""]","[""coconut.png""]","[""coconut.png""]","[""coconut.png""]",PB17.png,,,,,,,,,,,1,,,,,,,,,,,,,698.2130000013858,,timeout,,,,,,,,,,,,,4,,,,,,,,,,,,,,,,,,,,,,,,,,,,,,,,,,,,,,,,,,,,,,,,,,,,,,,,,"[""coconut.png""]","[""chocolate_truffle.png""]",,,,3,,,false,,1,,,,,,,8970685.760000022,8970684.663,8970285.725,8970312.320000026,8970302.314,8971000.527,1,,,
timeout,canvas.Screen,2_4_2_6_1_0_0_0_0_0_1,2021-05-24T18:24:59.673Z,,,blank.png,blank.png,blank.png,blank.png,blank.png,blank.png,blank.png,"[""chocolate_truffle.png""]",blank.png,blank.png,blank.png,blank.png,blank.png,,,,,,,,,,,,,,,,,,,,,,,,,,,,,"[""chocolate_truffle.png""]","[""coconut.png""]",PB18.png,,,,,,,,,,,0,6,"[""coconut.png""]","[""coconut.png""]","[""coconut.png""]","[""coconut.png""]","[""coconut.png""]","[""coconut.png""]",blank.png,PB18.png,PB17.png,"[""coconut.png""]","[""coconut.png""]","[""coconut.png""]","[""coconut.png""]","[""coconut.png""]","[""coconut.png""]","[""coconut.png""]","[""coconut.png""]","[""coconut.png""]","[""coconut.png""]","[""coconut.png""]","[""coconut.png""]",1,"[""chocolate_truffle.png""]",blank.png,blank.png,blank.png,6,"[""coconut.png""]","[""coconut.png""]","[""coconut.png""]","[""coconut.png""]","[""coconut.png""]","[""coconut.png""]",PB17.png,,,,,,,,,,,1,,,,,,,,,,,,,781.2179999984801,,timeout,,,,,,,,,,,,,4,,,,,,,,,,,,,,,,,,,,,,,,,,,,,,,,,,,,,,,,,,,,,,,,,,,,,,,,,"[""coconut.png""]","[""chocolate_truffle.png""]",,,,3,,,false,,1,,,,,,,8971483.04000008,8971482.568,8970684.663,8971003.710000077,8971000.527,8971781.745,,,,
choice,canvas.Screen,2_4_2_6_1_0_0_0_0_0_2,2021-05-24T18:25:02.625Z,,,blank.png,blank.png,blank.png,blank.png,blank.png,blank.png,blank.png,"[""chocolate_truffle.png""]",blank.png,blank.png,blank.png,blank.png,blank.png,,,,,,,,,,,,,,,,,,,,,,,,,,,,,"[""chocolate_truffle.png""]","[""coconut.png""]",PB18.png,,,,,,,,,,,0,6,"[""coconut.png""]","[""coconut.png""]","[""coconut.png""]","[""coconut.png""]","[""coconut.png""]","[""coconut.png""]",blank.png,PB18.png,PB17.png,"[""coconut.png""]","[""coconut.png""]","[""coconut.png""]","[""coconut.png""]","[""coconut.png""]","[""coconut.png""]","[""coconut.png""]","[""coconut.png""]","[""coconut.png""]","[""coconut.png""]","[""coconut.png""]","[""coconut.png""]",1,"[""chocolate_truffle.png""]",blank.png,blank.png,blank.png,6,"[""coconut.png""]","[""coconut.png""]","[""coconut.png""]","[""coconut.png""]","[""coconut.png""]","[""coconut.png""]",PB17.png,,,,,,,,,,,1,,,,,,,,,,,,,2652.7750001270324,,response,,,,,,,,,,,,,4,,,,,,,,,,,,,,,,,,,,,,,,,,,,,,,,,,,,,,,,,,,,,,,,,,,,,,,,,"[""coconut.png""]","[""chocolate_truffle.png""]",,,,3,right,keydown(ArrowRight),false,,1,,,,,,,8974435.230000177,8974434.520000126,8971482.568,8971785.355000058,8971781.745,8974707.328,,1,,
square,canvas.Screen,2_4_2_6_1_0_0_0_0_0_3,2021-05-24T18:25:03.878Z,,,blank.png,blank.png,blank.png,blank.png,blank.png,blank.png,blank.png,"[""chocolate_truffle.png""]",blank.png,blank.png,blank.png,blank.png,blank.png,,,,,,,,,,,,,,,,,,,,,,,,,,,,,"[""chocolate_truffle.png""]","[""coconut.png""]",PB18.png,,,,,,,,,,,0,6,"[""coconut.png""]","[""coconut.png""]","[""coconut.png""]","[""coconut.png""]","[""coconut.png""]","[""coconut.png""]",blank.png,PB18.png,PB17.png,"[""coconut.png""]","[""coconut.png""]","[""coconut.png""]","[""coconut.png""]","[""coconut.png""]","[""coconut.png""]","[""coconut.png""]","[""coconut.png""]","[""coconut.png""]","[""coconut.png""]","[""coconut.png""]","[""coconut.png""]",1,"[""chocolate_truffle.png""]",blank.png,blank.png,blank.png,6,"[""coconut.png""]","[""coconut.png""]","[""coconut.png""]","[""coconut.png""]","[""coconut.png""]","[""coconut.png""]",PB17.png,,,,,,,,,,,1,,,#808080,#33ff3f,,,,,,,,,997.3920000009239,,timeout,,,,,,,,,,,,,4,,,,,,,,,,,,,,,,,,,,,,,,,,,,,,,,,,,,,,,,,,,,,,,,,,,,,,,,,"[""coconut.png""]","[""chocolate_truffle.png""]",,,,3,,,false,,1,,,,,white,black,8975688.540000003,8975688.094,8974690.65,8974692.12500006,8974707.328,8975704.72,,,,
ITI_late,canvas.Screen,2_4_2_6_1_0_0_0_0_0_4,2021-05-24T18:25:04.875Z,,,blank.png,blank.png,blank.png,blank.png,blank.png,blank.png,blank.png,"[""chocolate_truffle.png""]",blank.png,blank.png,blank.png,blank.png,blank.png,,,,,,,,,,,,,,,,,,,,,,,,,,,,,"[""chocolate_truffle.png""]","[""coconut.png""]",PB18.png,,,,,,,,,,,0,6,"[""coconut.png""]","[""coconut.png""]","[""coconut.png""]","[""coconut.png""]","[""coconut.png""]","[""coconut.png""]",blank.png,PB18.png,PB17.png,"[""coconut.png""]","[""coconut.png""]","[""coconut.png""]","[""coconut.png""]","[""coconut.png""]","[""coconut.png""]","[""coconut.png""]","[""coconut.png""]","[""coconut.png""]","[""coconut.png""]","[""coconut.png""]","[""coconut.png""]",1,"[""chocolate_truffle.png""]",blank.png,blank.png,blank.png,6,"[""coconut.png""]","[""coconut.png""]","[""coconut.png""]","[""coconut.png""]","[""coconut.png""]","[""coconut.png""]",PB17.png,,,,,,,,,,,1,,,,,,,,,,,,,997.4389999993145,,timeout,,,,,,,,,,,,white,4,,,,,,,,,,,,,,,,,,,,,,,,,,,,,,,,,,,,,,,,,,,,,,,,,,,,,,,,,"[""coconut.png""]","[""chocolate_truffle.png""]",,,,3,,,false,,1,,,,,,,8976686.065000016,8976685.489,8975688.094,8975690.170000074,8975704.72,8976702.159,,,,
choice_sequence,flow.Sequence,2_4_2_6_1_0_0_0_0_0,2021-05-24T18:25:04.876Z,,,blank.png,blank.png,blank.png,blank.png,blank.png,blank.png,blank.png,"[""chocolate_truffle.png""]",blank.png,blank.png,blank.png,blank.png,blank.png,,,,,,,,,,,,,,,,,,,,,,,,,,,,,"[""chocolate_truffle.png""]","[""coconut.png""]",PB18.png,,,,,,,,,,,0,6,"[""coconut.png""]","[""coconut.png""]","[""coconut.png""]","[""coconut.png""]","[""coconut.png""]","[""coconut.png""]",blank.png,PB18.png,PB17.png,"[""coconut.png""]","[""coconut.png""]","[""coconut.png""]","[""coconut.png""]","[""coconut.png""]","[""coconut.png""]","[""coconut.png""]","[""coconut.png""]","[""coconut.png""]","[""coconut.png""]","[""coconut.png""]","[""coconut.png""]",1,"[""chocolate_truffle.png""]",blank.png,blank.png,blank.png,6,"[""coconut.png""]","[""coconut.png""]","[""coconut.png""]","[""coconut.png""]","[""coconut.png""]","[""coconut.png""]",PB17.png,,,,,,,,,,,1,,,,,,,,,,,,,6383.175000000745,,completion,,,,,,,,,,,,,4,,,,,,,,,,,,,,,,,,,,,,,,,,,,,,,,,,,,,,,,,,,,,,,,,,,,,,,,,"[""coconut.png""]","[""chocolate_truffle.png""]",,,,3,,,false,,1,,,,,,,8976686.48000015,8976685.489,8970285.725,8970311.280000024,8970302.314,8976702.159,,,,
fixCross,canvas.Screen,2_4_2_6_1_0_0_0_0_1_0,2021-05-24T18:25:05.274Z,,,blank.png,"[""chocolate_truffle.png""]",blank.png,blank.png,blank.png,blank.png,blank.png,blank.png,blank.png,blank.png,blank.png,blank.png,blank.png,,,,,,,,,,,,,,,,,,,,,,,,,,,,,"[""chocolate_truffle.png""]","[""coconut.png""]",PB16.png,,,,,,,,,,,0,6,"[""coconut.png""]","[""coconut.png""]","[""coconut.png""]","[""coconut.png""]","[""coconut.png""]","[""coconut.png""]",blank.png,PB18.png,PB18.png,"[""coconut.png""]","[""coconut.png""]","[""coconut.png""]","[""coconut.png""]","[""coconut.png""]",blank.png,"[""coconut.png""]","[""coconut.png""]","[""coconut.png""]","[""coconut.png""]","[""coconut.png""]","[""coconut.png""]",1,"[""chocolate_truffle.png""]",blank.png,blank.png,blank.png,5,"[""coconut.png""]","[""coconut.png""]","[""coconut.png""]","[""coconut.png""]","[""coconut.png""]",blank.png,PB16.png,,,,,,,,,,,1,,,,,,,,,,,,,648.2229999992996,,timeout,,,,,,,,,,,,,3,,,,,,,,,,,,,,,,,,,,,,,,,,,,,,,,,,,,,,,,,,,,,,,,,,,,,,,,,"[""coconut.png""]","[""chocolate_truffle.png""]",,,,3,,,false,,1,,,,,,,8977084.775000112,8977084.364,8976685.489,8976692.890000064,8976702.159,8977350.382,2,,,
timeout,canvas.Screen,2_4_2_6_1_0_0_0_0_1_1,2021-05-24T18:25:06.022Z,,,blank.png,"[""chocolate_truffle.png""]",blank.png,blank.png,blank.png,blank.png,blank.png,blank.png,blank.png,blank.png,blank.png,blank.png,blank.png,,,,,,,,,,,,,,,,,,,,,,,,,,,,,"[""chocolate_truffle.png""]","[""coconut.png""]",PB16.png,,,,,,,,,,,0,6,"[""coconut.png""]","[""coconut.png""]","[""coconut.png""]","[""coconut.png""]","[""coconut.png""]","[""coconut.png""]",blank.png,PB18.png,PB18.png,"[""coconut.png""]","[""coconut.png""]","[""coconut.png""]","[""coconut.png""]","[""coconut.png""]",blank.png,"[""coconut.png""]","[""coconut.png""]","[""coconut.png""]","[""coconut.png""]","[""coconut.png""]","[""coconut.png""]",1,"[""chocolate_truffle.png""]",blank.png,blank.png,blank.png,5,"[""coconut.png""]","[""coconut.png""]","[""coconut.png""]","[""coconut.png""]","[""coconut.png""]",blank.png,PB16.png,,,,,,,,,,,1,,,,,,,,,,,,,764.6579999998212,,timeout,,,,,,,,,,,,,3,,,,,,,,,,,,,,,,,,,,,,,,,,,,,,,,,,,,,,,,,,,,,,,,,,,,,,,,,"[""coconut.png""]","[""chocolate_truffle.png""]",,,,3,,,false,,1,,,,,,,8977832.825000165,8977832.421,8977084.364,8977353.640000103,8977350.382,8978115.04,,,,
choice,canvas.Screen,2_4_2_6_1_0_0_0_0_1_2,2021-05-24T18:25:07.873Z,,,blank.png,"[""chocolate_truffle.png""]",blank.png,blank.png,blank.png,blank.png,blank.png,blank.png,blank.png,blank.png,blank.png,blank.png,blank.png,,,,,,,,,,,,,,,,,,,,,,,,,,,,,"[""chocolate_truffle.png""]","[""coconut.png""]",PB16.png,,,,,,,,,,,0,6,"[""coconut.png""]","[""coconut.png""]","[""coconut.png""]","[""coconut.png""]","[""coconut.png""]","[""coconut.png""]",blank.png,PB18.png,PB18.png,"[""coconut.png""]","[""coconut.png""]","[""coconut.png""]","[""coconut.png""]","[""coconut.png""]",blank.png,"[""coconut.png""]","[""coconut.png""]","[""coconut.png""]","[""coconut.png""]","[""coconut.png""]","[""coconut.png""]",1,"[""chocolate_truffle.png""]",blank.png,blank.png,blank.png,5,"[""coconut.png""]","[""coconut.png""]","[""coconut.png""]","[""coconut.png""]","[""coconut.png""]",blank.png,PB16.png,,,,,,,,,,,1,,,,,,,,,,,,,1567.4950001463294,,response,,,,,,,,,,,,,3,,,,,,,,,,,,,,,,,,,,,,,,,,,,,,,,,,,,,,,,,,,,,,,,,,,,,,,,,"[""coconut.png""]","[""chocolate_truffle.png""]",,,,3,left,keydown(ArrowLeft),false,,1,,,,,,,8979684.230000013,8979682.535000145,8977832.421,8978094.705000054,8978115.04,8979943.491,,2,,
square,canvas.Screen,2_4_2_6_1_0_0_0_0_1_3,2021-05-24T18:25:09.114Z,,,blank.png,"[""chocolate_truffle.png""]",blank.png,blank.png,blank.png,blank.png,blank.png,blank.png,blank.png,blank.png,blank.png,blank.png,blank.png,,,,,,,,,,,,,,,,,,,,,,,,,,,,,"[""chocolate_truffle.png""]","[""coconut.png""]",PB16.png,,,,,,,,,,,0,6,"[""coconut.png""]","[""coconut.png""]","[""coconut.png""]","[""coconut.png""]","[""coconut.png""]","[""coconut.png""]",blank.png,PB18.png,PB18.png,"[""coconut.png""]","[""coconut.png""]","[""coconut.png""]","[""coconut.png""]","[""coconut.png""]",blank.png,"[""coconut.png""]","[""coconut.png""]","[""coconut.png""]","[""coconut.png""]","[""coconut.png""]","[""coconut.png""]",1,"[""chocolate_truffle.png""]",blank.png,blank.png,blank.png,5,"[""coconut.png""]","[""coconut.png""]","[""coconut.png""]","[""coconut.png""]","[""coconut.png""]",blank.png,PB16.png,,,,,,,,,,,1,,,#33ff3f,#808080,,,,,,,,,997.35899999924,,timeout,,,,,,,,,,,,,3,,,,,,,,,,,,,,,,,,,,,,,,,,,,,,,,,,,,,,,,,,,,,,,,,,,,,,,,,"[""coconut.png""]","[""chocolate_truffle.png""]",,,,3,,,false,,1,,,,,black,white,8980924.670000095,8980924.24,8979926.826,8979935.18000003,8979943.491,8980940.85,,,,
ITI_late,canvas.Screen,2_4_2_6_1_0_0_0_0_1_4,2021-05-24T18:25:10.360Z,,,blank.png,"[""chocolate_truffle.png""]",blank.png,blank.png,blank.png,blank.png,blank.png,blank.png,blank.png,blank.png,blank.png,blank.png,blank.png,,,,,,,,,,,,,,,,,,,,,,,,,,,,,"[""chocolate_truffle.png""]","[""coconut.png""]",PB16.png,,,,,,,,,,,0,6,"[""coconut.png""]","[""coconut.png""]","[""coconut.png""]","[""coconut.png""]","[""coconut.png""]","[""coconut.png""]",blank.png,PB18.png,PB18.png,"[""coconut.png""]","[""coconut.png""]","[""coconut.png""]","[""coconut.png""]","[""coconut.png""]",blank.png,"[""coconut.png""]","[""coconut.png""]","[""coconut.png""]","[""coconut.png""]","[""coconut.png""]","[""coconut.png""]",1,"[""chocolate_truffle.png""]",blank.png,blank.png,blank.png,5,"[""coconut.png""]","[""coconut.png""]","[""coconut.png""]","[""coconut.png""]","[""coconut.png""]",blank.png,PB16.png,,,,,,,,,,,1,,,,,,,,,,,,,1246.6820000000298,,timeout,,,,,,,,,,,,white,3,,,,,,,,,,,,,,,,,,,,,,,,,,,,,,,,,,,,,,,,,,,,,,,,,,,,,,,,,"[""coconut.png""]","[""chocolate_truffle.png""]",,,,3,,,false,,1,,,,,,,8982171.345000155,8982170.932,8980924.24,8980926.10000004,8980940.85,8982187.532,,,,
choice_sequence,flow.Sequence,2_4_2_6_1_0_0_0_0_1,2021-05-24T18:25:10.361Z,,,blank.png,"[""chocolate_truffle.png""]",blank.png,blank.png,blank.png,blank.png,blank.png,blank.png,blank.png,blank.png,blank.png,blank.png,blank.png,,,,,,,,,,,,,,,,,,,,,,,,,,,,,"[""chocolate_truffle.png""]","[""coconut.png""]",PB16.png,,,,,,,,,,,0,6,"[""coconut.png""]","[""coconut.png""]","[""coconut.png""]","[""coconut.png""]","[""coconut.png""]","[""coconut.png""]",blank.png,PB18.png,PB18.png,"[""coconut.png""]","[""coconut.png""]","[""coconut.png""]","[""coconut.png""]","[""coconut.png""]",blank.png,"[""coconut.png""]","[""coconut.png""]","[""coconut.png""]","[""coconut.png""]","[""coconut.png""]","[""coconut.png""]",1,"[""chocolate_truffle.png""]",blank.png,blank.png,blank.png,5,"[""coconut.png""]","[""coconut.png""]","[""coconut.png""]","[""coconut.png""]","[""coconut.png""]",blank.png,PB16.png,,,,,,,,,,,1,,,,,,,,,,,,,5468.773000000045,,completion,,,,,,,,,,,,,3,,,,,,,,,,,,,,,,,,,,,,,,,,,,,,,,,,,,,,,,,,,,,,,,,,,,,,,,,"[""coconut.png""]","[""chocolate_truffle.png""]",,,,3,,,false,,1,,,,,,,8982171.719999984,8982170.932,8976685.489,8976691.624999978,8976702.159,8982187.532,,,,
fixCross,canvas.Screen,2_4_2_6_1_0_0_0_0_2_0,2021-05-24T18:25:10.759Z,,,blank.png,blank.png,blank.png,blank.png,blank.png,blank.png,blank.png,"[""chocolate_truffle.png""]",blank.png,blank.png,blank.png,blank.png,blank.png,,,,,,,,,,,,,,,,,,,,,,,,,,,,,"[""chocolate_truffle.png""]","[""coconut.png""]",PB18.png,,,,,,,,,,,0,6,"[""coconut.png""]","[""coconut.png""]","[""coconut.png""]","[""coconut.png""]","[""coconut.png""]","[""coconut.png""]",blank.png,PB18.png,PB07.png,"[""coconut.png""]","[""coconut.png""]","[""coconut.png""]","[""coconut.png""]","[""coconut.png""]","[""coconut.png""]","[""coconut.png""]",blank.png,blank.png,blank.png,blank.png,blank.png,1,"[""chocolate_truffle.png""]",blank.png,blank.png,blank.png,1,"[""coconut.png""]",blank.png,blank.png,blank.png,blank.png,blank.png,PB07.png,,,,,,,,,,,1,,,,,,,,,,,,,648.2939999997616,,timeout,,,,,,,,,,,,,4,,,,,,,,,,,,,,,,,,,,,,,,,,,,,,,,,,,,,,,,,,,,,,,,,,,,,,,,,"[""coconut.png""]","[""chocolate_truffle.png""]",,,,3,,,false,,1,,,,,,,8982570.340000093,8982569.899,8982170.932,8982175.140000181,8982187.532,8982835.826,3,,,
timeout,canvas.Screen,2_4_2_6_1_0_0_0_0_2_1,2021-05-24T18:25:11.507Z,,,blank.png,blank.png,blank.png,blank.png,blank.png,blank.png,blank.png,"[""chocolate_truffle.png""]",blank.png,blank.png,blank.png,blank.png,blank.png,,,,,,,,,,,,,,,,,,,,,,,,,,,,,"[""chocolate_truffle.png""]","[""coconut.png""]",PB18.png,,,,,,,,,,,0,6,"[""coconut.png""]","[""coconut.png""]","[""coconut.png""]","[""coconut.png""]","[""coconut.png""]","[""coconut.png""]",blank.png,PB18.png,PB07.png,"[""coconut.png""]","[""coconut.png""]","[""coconut.png""]","[""coconut.png""]","[""coconut.png""]","[""coconut.png""]","[""coconut.png""]",blank.png,blank.png,blank.png,blank.png,blank.png,1,"[""chocolate_truffle.png""]",blank.png,blank.png,blank.png,1,"[""coconut.png""]",blank.png,blank.png,blank.png,blank.png,blank.png,PB07.png,,,,,,,,,,,1,,,,,,,,,,,,,731.4079999998212,,timeout,,,,,,,,,,,,,4,,,,,,,,,,,,,,,,,,,,,,,,,,,,,,,,,,,,,,,,,,,,,,,,,,,,,,,,,"[""coconut.png""]","[""chocolate_truffle.png""]",,,,3,,,false,,1,,,,,,,8983318.320000079,8983317.879,8982569.899,8982838.760000188,8982835.826,8983567.234,,,,
choice,canvas.Screen,2_4_2_6_1_0_0_0_0_2_2,2021-05-24T18:25:12.728Z,,,blank.png,blank.png,blank.png,blank.png,blank.png,blank.png,blank.png,"[""chocolate_truffle.png""]",blank.png,blank.png,blank.png,blank.png,blank.png,,,,,,,,,,,,,,,,,,,,,,,,,,,,,"[""chocolate_truffle.png""]","[""coconut.png""]",PB18.png,,,,,,,,,,,0,6,"[""coconut.png""]","[""coconut.png""]","[""coconut.png""]","[""coconut.png""]","[""coconut.png""]","[""coconut.png""]",blank.png,PB18.png,PB07.png,"[""coconut.png""]","[""coconut.png""]","[""coconut.png""]","[""coconut.png""]","[""coconut.png""]","[""coconut.png""]","[""coconut.png""]",blank.png,blank.png,blank.png,blank.png,blank.png,1,"[""chocolate_truffle.png""]",blank.png,blank.png,blank.png,1,"[""coconut.png""]",blank.png,blank.png,blank.png,blank.png,blank.png,PB07.png,,,,,,,,,,,1,,,,,,,,,,,,,971.1610001567751,,response,,,,,,,,,,,,,4,,,,,,,,,,,,,,,,,,,,,,,,,,,,,,,,,,,,,,,,,,,,,,,,,,,,,,,,,"[""coconut.png""]","[""chocolate_truffle.png""]",,,,3,left,keydown(ArrowLeft),false,,1,,,,,,,8984539.295000024,8984538.395000156,8983317.879,8983562.129999977,8983567.234,8984797.348,,3,,
square,canvas.Screen,2_4_2_6_1_0_0_0_0_2_3,2021-05-24T18:25:13.968Z,,,blank.png,blank.png,blank.png,blank.png,blank.png,blank.png,blank.png,"[""chocolate_truffle.png""]",blank.png,blank.png,blank.png,blank.png,blank.png,,,,,,,,,,,,,,,,,,,,,,,,,,,,,"[""chocolate_truffle.png""]","[""coconut.png""]",PB18.png,,,,,,,,,,,0,6,"[""coconut.png""]","[""coconut.png""]","[""coconut.png""]","[""coconut.png""]","[""coconut.png""]","[""coconut.png""]",blank.png,PB18.png,PB07.png,"[""coconut.png""]","[""coconut.png""]","[""coconut.png""]","[""coconut.png""]","[""coconut.png""]","[""coconut.png""]","[""coconut.png""]",blank.png,blank.png,blank.png,blank.png,blank.png,1,"[""chocolate_truffle.png""]",blank.png,blank.png,blank.png,1,"[""coconut.png""]",blank.png,blank.png,blank.png,blank.png,blank.png,PB07.png,,,,,,,,,,,1,,,#33ff3f,#808080,,,,,,,,,997.3420000001788,,timeout,,,,,,,,,,,,,4,,,,,,,,,,,,,,,,,,,,,,,,,,,,,,,,,,,,,,,,,,,,,,,,,,,,,,,,,"[""coconut.png""]","[""chocolate_truffle.png""]",,,,3,,,false,,1,,,,,black,white,8985778.520000167,8985778.038,8984780.642,8984788.210000144,8984797.348,8985794.69,,,,
ITI_late,canvas.Screen,2_4_2_6_1_0_0_0_0_2_4,2021-05-24T18:25:15.214Z,,,blank.png,blank.png,blank.png,blank.png,blank.png,blank.png,blank.png,"[""chocolate_truffle.png""]",blank.png,blank.png,blank.png,blank.png,blank.png,,,,,,,,,,,,,,,,,,,,,,,,,,,,,"[""chocolate_truffle.png""]","[""coconut.png""]",PB18.png,,,,,,,,,,,0,6,"[""coconut.png""]","[""coconut.png""]","[""coconut.png""]","[""coconut.png""]","[""coconut.png""]","[""coconut.png""]",blank.png,PB18.png,PB07.png,"[""coconut.png""]","[""coconut.png""]","[""coconut.png""]","[""coconut.png""]","[""coconut.png""]","[""coconut.png""]","[""coconut.png""]",blank.png,blank.png,blank.png,blank.png,blank.png,1,"[""chocolate_truffle.png""]",blank.png,blank.png,blank.png,1,"[""coconut.png""]",blank.png,blank.png,blank.png,blank.png,blank.png,PB07.png,,,,,,,,,,,1,,,,,,,,,,,,,1246.6780000012368,,timeout,,,,,,,,,,,,white,4,,,,,,,,,,,,,,,,,,,,,,,,,,,,,,,,,,,,,,,,,,,,,,,,,,,,,,,,,"[""coconut.png""]","[""chocolate_truffle.png""]",,,,3,,,false,,1,,,,,,,8987025.14500008,8987024.766,8985778.038,8985779.964999994,8985794.69,8987041.368,,,,
choice_sequence,flow.Sequence,2_4_2_6_1_0_0_0_0_2,2021-05-24T18:25:15.215Z,,,blank.png,blank.png,blank.png,blank.png,blank.png,blank.png,blank.png,"[""chocolate_truffle.png""]",blank.png,blank.png,blank.png,blank.png,blank.png,,,,,,,,,,,,,,,,,,,,,,,,,,,,,"[""chocolate_truffle.png""]","[""coconut.png""]",PB18.png,,,,,,,,,,,0,6,"[""coconut.png""]","[""coconut.png""]","[""coconut.png""]","[""coconut.png""]","[""coconut.png""]","[""coconut.png""]",blank.png,PB18.png,PB07.png,"[""coconut.png""]","[""coconut.png""]","[""coconut.png""]","[""coconut.png""]","[""coconut.png""]","[""coconut.png""]","[""coconut.png""]",blank.png,blank.png,blank.png,blank.png,blank.png,1,"[""chocolate_truffle.png""]",blank.png,blank.png,blank.png,1,"[""coconut.png""]",blank.png,blank.png,blank.png,blank.png,blank.png,PB07.png,,,,,,,,,,,1,,,,,,,,,,,,,4837.234000001103,,completion,,,,,,,,,,,,,4,,,,,,,,,,,,,,,,,,,,,,,,,,,,,,,,,,,,,,,,,,,,,,,,,,,,,,,,,"[""coconut.png""]","[""chocolate_truffle.png""]",,,,3,,,false,,1,,,,,,,8987025.510000065,8987024.766,8982170.932,8982174.469999969,8982187.532,8987041.368,,,,
fixCross,canvas.Screen,2_4_2_6_1_0_0_0_0_3_0,2021-05-24T18:25:15.513Z,,,blank.png,blank.png,blank.png,blank.png,blank.png,blank.png,blank.png,"[""chocolate_truffle.png""]",blank.png,blank.png,blank.png,blank.png,blank.png,,,,,,,,,,,,,,,,,,,,,,,,,,,,,"[""chocolate_truffle.png""]","[""coconut.png""]",PB18.png,,,,,,,,,,,0,6,"[""coconut.png""]","[""coconut.png""]","[""coconut.png""]","[""coconut.png""]","[""coconut.png""]","[""coconut.png""]",blank.png,PB18.png,PB12.png,"[""coconut.png""]","[""coconut.png""]","[""coconut.png""]","[""coconut.png""]","[""coconut.png""]","[""coconut.png""]","[""coconut.png""]","[""coconut.png""]",blank.png,blank.png,blank.png,blank.png,1,"[""chocolate_truffle.png""]",blank.png,blank.png,blank.png,2,"[""coconut.png""]","[""coconut.png""]",blank.png,blank.png,blank.png,blank.png,PB12.png,,,,,,,,,,,1,,,,,,,,,,,,,531.9550000000745,,timeout,,,,,,,,,,,,,4,,,,,,,,,,,,,,,,,,,,,,,,,,,,,,,,,,,,,,,,,,,,,,,,,,,,,,,,,"[""coconut.png""]","[""chocolate_truffle.png""]",,,,3,,,false,,1,,,,,,,8987324.420000194,8987323.966,8987024.766,8987029.91500008,8987041.368,8987573.323,4,,,
timeout,canvas.Screen,2_4_2_6_1_0_0_0_0_3_1,2021-05-24T18:25:16.245Z,,,blank.png,blank.png,blank.png,blank.png,blank.png,blank.png,blank.png,"[""chocolate_truffle.png""]",blank.png,blank.png,blank.png,blank.png,blank.png,,,,,,,,,,,,,,,,,,,,,,,,,,,,,"[""chocolate_truffle.png""]","[""coconut.png""]",PB18.png,,,,,,,,,,,0,6,"[""coconut.png""]","[""coconut.png""]","[""coconut.png""]","[""coconut.png""]","[""coconut.png""]","[""coconut.png""]",blank.png,PB18.png,PB12.png,"[""coconut.png""]","[""coconut.png""]","[""coconut.png""]","[""coconut.png""]","[""coconut.png""]","[""coconut.png""]","[""coconut.png""]","[""coconut.png""]",blank.png,blank.png,blank.png,blank.png,1,"[""chocolate_truffle.png""]",blank.png,blank.png,blank.png,2,"[""coconut.png""]","[""coconut.png""]",blank.png,blank.png,blank.png,blank.png,PB12.png,,,,,,,,,,,1,,,,,,,,,,,,,731.4569999985397,,timeout,,,,,,,,,,,,,4,,,,,,,,,,,,,,,,,,,,,,,,,,,,,,,,,,,,,,,,,,,,,,,,,,,,,,,,,"[""coconut.png""]","[""chocolate_truffle.png""]",,,,3,,,false,,1,,,,,,,8988055.755000096,8988055.372,8987323.966,8987576.235000044,8987573.323,8988304.78,,,,
choice,canvas.Screen,2_4_2_6_1_0_0_0_0_3_2,2021-05-24T18:25:16.774Z,,,blank.png,blank.png,blank.png,blank.png,blank.png,blank.png,blank.png,"[""chocolate_truffle.png""]",blank.png,blank.png,blank.png,blank.png,blank.png,,,,,,,,,,,,,,,,,,,,,,,,,,,,,"[""chocolate_truffle.png""]","[""coconut.png""]",PB18.png,,,,,,,,,,,0,6,"[""coconut.png""]","[""coconut.png""]","[""coconut.png""]","[""coconut.png""]","[""coconut.png""]","[""coconut.png""]",blank.png,PB18.png,PB12.png,"[""coconut.png""]","[""coconut.png""]","[""coconut.png""]","[""coconut.png""]","[""coconut.png""]","[""coconut.png""]","[""coconut.png""]","[""coconut.png""]",blank.png,blank.png,blank.png,blank.png,1,"[""chocolate_truffle.png""]",blank.png,blank.png,blank.png,2,"[""coconut.png""]","[""coconut.png""]",blank.png,blank.png,blank.png,blank.png,PB12.png,,,,,,,,,,,1,,,,,,,,,,,,,279.5750001743436,,response,,,,,,,,,,,,,4,,,,,,,,,,,,,,,,,,,,,,,,,,,,,,,,,,,,,,,,,,,,,,,,,,,,,,,,,"[""coconut.png""]","[""chocolate_truffle.png""]",,,,3,left,keydown(ArrowLeft),false,,1,,,,,,,8988585.090000182,8988584.355000174,8988055.372,8988304.53500012,8988304.78,8988836.626,,4,,
square,canvas.Screen,2_4_2_6_1_0_0_0_0_3_3,2021-05-24T18:25:18.007Z,,,blank.png,blank.png,blank.png,blank.png,blank.png,blank.png,blank.png,"[""chocolate_truffle.png""]",blank.png,blank.png,blank.png,blank.png,blank.png,,,,,,,,,,,,,,,,,,,,,,,,,,,,,"[""chocolate_truffle.png""]","[""coconut.png""]",PB18.png,,,,,,,,,,,0,6,"[""coconut.png""]","[""coconut.png""]","[""coconut.png""]","[""coconut.png""]","[""coconut.png""]","[""coconut.png""]",blank.png,PB18.png,PB12.png,"[""coconut.png""]","[""coconut.png""]","[""coconut.png""]","[""coconut.png""]","[""coconut.png""]","[""coconut.png""]","[""coconut.png""]","[""coconut.png""]",blank.png,blank.png,blank.png,blank.png,1,"[""chocolate_truffle.png""]",blank.png,blank.png,blank.png,2,"[""coconut.png""]","[""coconut.png""]",blank.png,blank.png,blank.png,blank.png,PB12.png,,,,,,,,,,,1,,,#33ff3f,#808080,,,,,,,,,997.3519999999553,,timeout,,,,,,,,,,,,,4,,,,,,,,,,,,,,,,,,,,,,,,,,,,,,,,,,,,,,,,,,,,,,,,,,,,,,,,,"[""coconut.png""]","[""chocolate_truffle.png""]",,,,3,,,false,,1,,,,,black,white,8989817.765000043,8989817.379,8988820.03,8988828.5050001,8988836.626,8989833.978,,,,
ITI_late,canvas.Screen,2_4_2_6_1_0_0_0_0_3_4,2021-05-24T18:25:18.755Z,,,blank.png,blank.png,blank.png,blank.png,blank.png,blank.png,blank.png,"[""chocolate_truffle.png""]",blank.png,blank.png,blank.png,blank.png,blank.png,,,,,,,,,,,,,,,,,,,,,,,,,,,,,"[""chocolate_truffle.png""]","[""coconut.png""]",PB18.png,,,,,,,,,,,0,6,"[""coconut.png""]","[""coconut.png""]","[""coconut.png""]","[""coconut.png""]","[""coconut.png""]","[""coconut.png""]",blank.png,PB18.png,PB12.png,"[""coconut.png""]","[""coconut.png""]","[""coconut.png""]","[""coconut.png""]","[""coconut.png""]","[""coconut.png""]","[""coconut.png""]","[""coconut.png""]",blank.png,blank.png,blank.png,blank.png,1,"[""chocolate_truffle.png""]",blank.png,blank.png,blank.png,2,"[""coconut.png""]","[""coconut.png""]",blank.png,blank.png,blank.png,blank.png,PB12.png,,,,,,,,,,,1,,,,,,,,,,,,,748.0649999994785,,timeout,,,,,,,,,,,,white,4,,,,,,,,,,,,,,,,,,,,,,,,,,,,,,,,,,,,,,,,,,,,,,,,,,,,,,,,,"[""coconut.png""]","[""chocolate_truffle.png""]",,,,3,,,false,,1,,,,,,,8990565.855000168,8990565.373,8989817.379,8989819.095000159,8989833.978,8990582.043,,,,
choice_sequence,flow.Sequence,2_4_2_6_1_0_0_0_0_3,2021-05-24T18:25:18.755Z,,,blank.png,blank.png,blank.png,blank.png,blank.png,blank.png,blank.png,"[""chocolate_truffle.png""]",blank.png,blank.png,blank.png,blank.png,blank.png,,,,,,,,,,,,,,,,,,,,,,,,,,,,,"[""chocolate_truffle.png""]","[""coconut.png""]",PB18.png,,,,,,,,,,,0,6,"[""coconut.png""]","[""coconut.png""]","[""coconut.png""]","[""coconut.png""]","[""coconut.png""]","[""coconut.png""]",blank.png,PB18.png,PB12.png,"[""coconut.png""]","[""coconut.png""]","[""coconut.png""]","[""coconut.png""]","[""coconut.png""]","[""coconut.png""]","[""coconut.png""]","[""coconut.png""]",blank.png,blank.png,blank.png,blank.png,1,"[""chocolate_truffle.png""]",blank.png,blank.png,blank.png,2,"[""coconut.png""]","[""coconut.png""]",blank.png,blank.png,blank.png,blank.png,PB12.png,,,,,,,,,,,1,,,,,,,,,,,,,3524.004999998957,,completion,,,,,,,,,,,,,4,,,,,,,,,,,,,,,,,,,,,,,,,,,,,,,,,,,,,,,,,,,,,,,,,,,,,,,,,"[""coconut.png""]","[""chocolate_truffle.png""]",,,,3,,,false,,1,,,,,,,8990566.229999997,8990565.373,8987024.766,8987029.18000007,8987041.368,8990582.043,,,,
fixCross,canvas.Screen,2_4_2_6_1_0_0_0_0_4_0,2021-05-24T18:25:19.453Z,,,blank.png,blank.png,blank.png,blank.png,blank.png,blank.png,blank.png,"[""chocolate_truffle.png""]",blank.png,blank.png,blank.png,blank.png,blank.png,,,,,,,,,,,,,,,,,,,,,,,,,,,,,"[""chocolate_truffle.png""]","[""coconut.png""]",PB18.png,,,,,,,,,,,0,6,"[""coconut.png""]","[""coconut.png""]","[""coconut.png""]","[""coconut.png""]","[""coconut.png""]","[""coconut.png""]",blank.png,PB18.png,PB15.png,"[""coconut.png""]","[""coconut.png""]","[""coconut.png""]","[""coconut.png""]","[""coconut.png""]","[""coconut.png""]","[""coconut.png""]","[""coconut.png""]","[""coconut.png""]","[""coconut.png""]",blank.png,blank.png,1,"[""chocolate_truffle.png""]",blank.png,blank.png,blank.png,4,"[""coconut.png""]","[""coconut.png""]","[""coconut.png""]","[""coconut.png""]",blank.png,blank.png,PB15.png,,,,,,,,,,,1,,,,,,,,,,,,,947.4830000009388,,timeout,,,,,,,,,,,,,4,,,,,,,,,,,,,,,,,,,,,,,,,,,,,,,,,,,,,,,,,,,,,,,,,,,,,,,,,"[""coconut.png""]","[""chocolate_truffle.png""]",,,,3,,,false,,1,,,,,,,8991263.895000098,8991263.512,8990565.373,8990569.585000165,8990582.043,8991529.526,5,,,
timeout,canvas.Screen,2_4_2_6_1_0_0_0_0_4_1,2021-05-24T18:25:20.201Z,,,blank.png,blank.png,blank.png,blank.png,blank.png,blank.png,blank.png,"[""chocolate_truffle.png""]",blank.png,blank.png,blank.png,blank.png,blank.png,,,,,,,,,,,,,,,,,,,,,,,,,,,,,"[""chocolate_truffle.png""]","[""coconut.png""]",PB18.png,,,,,,,,,,,0,6,"[""coconut.png""]","[""coconut.png""]","[""coconut.png""]","[""coconut.png""]","[""coconut.png""]","[""coconut.png""]",blank.png,PB18.png,PB15.png,"[""coconut.png""]","[""coconut.png""]","[""coconut.png""]","[""coconut.png""]","[""coconut.png""]","[""coconut.png""]","[""coconut.png""]","[""coconut.png""]","[""coconut.png""]","[""coconut.png""]",blank.png,blank.png,1,"[""chocolate_truffle.png""]",blank.png,blank.png,blank.png,4,"[""coconut.png""]","[""coconut.png""]","[""coconut.png""]","[""coconut.png""]",blank.png,blank.png,PB15.png,,,,,,,,,,,1,,,,,,,,,,,,,748.0789999999106,,timeout,,,,,,,,,,,,,4,,,,,,,,,,,,,,,,,,,,,,,,,,,,,,,,,,,,,,,,,,,,,,,,,,,,,,,,,"[""coconut.png""]","[""chocolate_truffle.png""]",,,,3,,,false,,1,,,,,,,8992012.01000018,8992011.581,8991263.512,8991532.140000025,8991529.526,8992277.605,,,,
choice,canvas.Screen,2_4_2_6_1_0_0_0_0_4_2,2021-05-24T18:25:21.633Z,,,blank.png,blank.png,blank.png,blank.png,blank.png,blank.png,blank.png,"[""chocolate_truffle.png""]",blank.png,blank.png,blank.png,blank.png,blank.png,,,,,,,,,,,,,,,,,,,,,,,,,,,,,"[""chocolate_truffle.png""]","[""coconut.png""]",PB18.png,,,,,,,,,,,0,6,"[""coconut.png""]","[""coconut.png""]","[""coconut.png""]","[""coconut.png""]","[""coconut.png""]","[""coconut.png""]",blank.png,PB18.png,PB15.png,"[""coconut.png""]","[""coconut.png""]","[""coconut.png""]","[""coconut.png""]","[""coconut.png""]","[""coconut.png""]","[""coconut.png""]","[""coconut.png""]","[""coconut.png""]","[""coconut.png""]",blank.png,blank.png,1,"[""chocolate_truffle.png""]",blank.png,blank.png,blank.png,4,"[""coconut.png""]","[""coconut.png""]","[""coconut.png""]","[""coconut.png""]",blank.png,blank.png,PB15.png,,,,,,,,,,,1,,,,,,,,,,,,,1165.5650001000613,,response,,,,,,,,,,,,,4,,,,,,,,,,,,,,,,,,,,,,,,,,,,,,,,,,,,,,,,,,,,,,,,,,,,,,,,,"[""coconut.png""]","[""chocolate_truffle.png""]",,,,3,right,keydown(ArrowRight),false,,1,,,,,,,8993444.039999973,8993443.1700001,8992011.581,8992274.124999996,8992277.605,8993707.116,,5,,
square,canvas.Screen,2_4_2_6_1_0_0_0_0_4_3,2021-05-24T18:25:22.877Z,,,blank.png,blank.png,blank.png,blank.png,blank.png,blank.png,blank.png,"[""chocolate_truffle.png""]",blank.png,blank.png,blank.png,blank.png,blank.png,,,,,,,,,,,,,,,,,,,,,,,,,,,,,"[""chocolate_truffle.png""]","[""coconut.png""]",PB18.png,,,,,,,,,,,0,6,"[""coconut.png""]","[""coconut.png""]","[""coconut.png""]","[""coconut.png""]","[""coconut.png""]","[""coconut.png""]",blank.png,PB18.png,PB15.png,"[""coconut.png""]","[""coconut.png""]","[""coconut.png""]","[""coconut.png""]","[""coconut.png""]","[""coconut.png""]","[""coconut.png""]","[""coconut.png""]","[""coconut.png""]","[""coconut.png""]",blank.png,blank.png,1,"[""chocolate_truffle.png""]",blank.png,blank.png,blank.png,4,"[""coconut.png""]","[""coconut.png""]","[""coconut.png""]","[""coconut.png""]",blank.png,blank.png,PB15.png,,,,,,,,,,,1,,,#808080,#33ff3f,,,,,,,,,997.3449999988079,,timeout,,,,,,,,,,,,,4,,,,,,,,,,,,,,,,,,,,,,,,,,,,,,,,,,,,,,,,,,,,,,,,,,,,,,,,,"[""coconut.png""]","[""chocolate_truffle.png""]",,,,3,,,false,,1,,,,,white,black,8994688.250000123,8994687.829,8993690.431,8993701.670000097,8993707.116,8994704.461,,,,
ITI_late,canvas.Screen,2_4_2_6_1_0_0_0_0_4_4,2021-05-24T18:25:24.124Z,,,blank.png,blank.png,blank.png,blank.png,blank.png,blank.png,blank.png,"[""chocolate_truffle.png""]",blank.png,blank.png,blank.png,blank.png,blank.png,,,,,,,,,,,,,,,,,,,,,,,,,,,,,"[""chocolate_truffle.png""]","[""coconut.png""]",PB18.png,,,,,,,,,,,0,6,"[""coconut.png""]","[""coconut.png""]","[""coconut.png""]","[""coconut.png""]","[""coconut.png""]","[""coconut.png""]",blank.png,PB18.png,PB15.png,"[""coconut.png""]","[""coconut.png""]","[""coconut.png""]","[""coconut.png""]","[""coconut.png""]","[""coconut.png""]","[""coconut.png""]","[""coconut.png""]","[""coconut.png""]","[""coconut.png""]",blank.png,blank.png,1,"[""chocolate_truffle.png""]",blank.png,blank.png,blank.png,4,"[""coconut.png""]","[""coconut.png""]","[""coconut.png""]","[""coconut.png""]",blank.png,blank.png,PB15.png,,,,,,,,,,,1,,,,,,,,,,,,,1246.6880000010133,,timeout,,,,,,,,,,,,white,4,,,,,,,,,,,,,,,,,,,,,,,,,,,,,,,,,,,,,,,,,,,,,,,,,,,,,,,,,"[""coconut.png""]","[""chocolate_truffle.png""]",,,,3,,,false,,1,,,,,,,8995934.925000183,8995934.457,8994687.829,8994689.645000035,8994704.461,8995951.149,,,,
choice_sequence,flow.Sequence,2_4_2_6_1_0_0_0_0_4,2021-05-24T18:25:24.125Z,,,blank.png,blank.png,blank.png,blank.png,blank.png,blank.png,blank.png,"[""chocolate_truffle.png""]",blank.png,blank.png,blank.png,blank.png,blank.png,,,,,,,,,,,,,,,,,,,,,,,,,,,,,"[""chocolate_truffle.png""]","[""coconut.png""]",PB18.png,,,,,,,,,,,0,6,"[""coconut.png""]","[""coconut.png""]","[""coconut.png""]","[""coconut.png""]","[""coconut.png""]","[""coconut.png""]",blank.png,PB18.png,PB15.png,"[""coconut.png""]","[""coconut.png""]","[""coconut.png""]","[""coconut.png""]","[""coconut.png""]","[""coconut.png""]","[""coconut.png""]","[""coconut.png""]","[""coconut.png""]","[""coconut.png""]",blank.png,blank.png,1,"[""chocolate_truffle.png""]",blank.png,blank.png,blank.png,4,"[""coconut.png""]","[""coconut.png""]","[""coconut.png""]","[""coconut.png""]",blank.png,blank.png,PB15.png,,,,,,,,,,,1,,,,,,,,,,,,,5352.414000000805,,completion,,,,,,,,,,,,,4,,,,,,,,,,,,,,,,,,,,,,,,,,,,,,,,,,,,,,,,,,,,,,,,,,,,,,,,,"[""coconut.png""]","[""chocolate_truffle.png""]",,,,3,,,false,,1,,,,,,,8995935.545000015,8995934.457,8990565.373,8990568.915000185,8990582.043,8995951.149,,,,
fixCross,canvas.Screen,2_4_2_6_1_0_0_0_0_5_0,2021-05-24T18:25:24.872Z,,,blank.png,blank.png,blank.png,blank.png,blank.png,blank.png,blank.png,"[""chocolate_truffle.png""]",blank.png,blank.png,blank.png,blank.png,blank.png,,,,,,,,,,,,,,,,,,,,,,,,,,,,,"[""chocolate_truffle.png""]","[""coconut.png""]",PB18.png,,,,,,,,,,,0,6,"[""coconut.png""]","[""coconut.png""]","[""coconut.png""]","[""coconut.png""]","[""coconut.png""]","[""coconut.png""]",blank.png,PB18.png,PB01.png,"[""coconut.png""]","[""coconut.png""]","[""coconut.png""]","[""coconut.png""]","[""coconut.png""]","[""coconut.png""]",blank.png,blank.png,blank.png,blank.png,blank.png,blank.png,1,"[""chocolate_truffle.png""]",blank.png,blank.png,blank.png,0,blank.png,blank.png,blank.png,blank.png,blank.png,blank.png,PB01.png,,,,,,,,,,,1,,,,,,,,,,,,,1063.8729999996722,,timeout,,,,,,,,,,,,,4,,,,,,,,,,,,,,,,,,,,,,,,,,,,,,,,,,,,,,,,,,,,,,,,,,,,,,,,,"[""coconut.png""]","[""chocolate_truffle.png""]",,,,3,,,false,,1,,,,,,,8996683.020000113,8996682.545,8995934.457,8995941.550000105,8995951.149,8997015.022,6,,,
timeout,canvas.Screen,2_4_2_6_1_0_0_0_0_5_1,2021-05-24T18:25:25.686Z,,,blank.png,blank.png,blank.png,blank.png,blank.png,blank.png,blank.png,"[""chocolate_truffle.png""]",blank.png,blank.png,blank.png,blank.png,blank.png,,,,,,,,,,,,,,,,,,,,,,,,,,,,,"[""chocolate_truffle.png""]","[""coconut.png""]",PB18.png,,,,,,,,,,,0,6,"[""coconut.png""]","[""coconut.png""]","[""coconut.png""]","[""coconut.png""]","[""coconut.png""]","[""coconut.png""]",blank.png,PB18.png,PB01.png,"[""coconut.png""]","[""coconut.png""]","[""coconut.png""]","[""coconut.png""]","[""coconut.png""]","[""coconut.png""]",blank.png,blank.png,blank.png,blank.png,blank.png,blank.png,1,"[""chocolate_truffle.png""]",blank.png,blank.png,blank.png,0,blank.png,blank.png,blank.png,blank.png,blank.png,blank.png,PB01.png,,,,,,,,,,,1,,,,,,,,,,,,,714.804999999702,,timeout,,,,,,,,,,,,,4,,,,,,,,,,,,,,,,,,,,,,,,,,,,,,,,,,,,,,,,,,,,,,,,,,,,,,,,,"[""coconut.png""]","[""chocolate_truffle.png""]",,,,3,,,false,,1,,,,,,,8997497.429999989,8997497.058,8996682.545,8997018.26000004,8997015.022,8997729.827,,,,
choice,canvas.Screen,2_4_2_6_1_0_0_0_0_5_2,2021-05-24T18:25:26.322Z,,,blank.png,blank.png,blank.png,blank.png,blank.png,blank.png,blank.png,"[""chocolate_truffle.png""]",blank.png,blank.png,blank.png,blank.png,blank.png,,,,,,,,,,,,,,,,,,,,,,,,,,,,,"[""chocolate_truffle.png""]","[""coconut.png""]",PB18.png,,,,,,,,,,,0,6,"[""coconut.png""]","[""coconut.png""]","[""coconut.png""]","[""coconut.png""]","[""coconut.png""]","[""coconut.png""]",blank.png,PB18.png,PB01.png,"[""coconut.png""]","[""coconut.png""]","[""coconut.png""]","[""coconut.png""]","[""coconut.png""]","[""coconut.png""]",blank.png,blank.png,blank.png,blank.png,blank.png,blank.png,1,"[""chocolate_truffle.png""]",blank.png,blank.png,blank.png,0,blank.png,blank.png,blank.png,blank.png,blank.png,blank.png,PB01.png,,,,,,,,,,,1,,,,,,,,,,,,,402.16300014033914,,response,,,,,,,,,,,,,4,,,,,,,,,,,,,,,,,,,,,,,,,,,,,,,,,,,,,,,,,,,,,,,,,,,,,,,,,"[""coconut.png""]","[""chocolate_truffle.png""]",,,,3,left,keydown(ArrowLeft),false,,1,,,,,,,8998132.970000152,8998131.99000014,8997497.058,8997729.264999973,8997729.827,8998378.113,,6,,
square,canvas.Screen,2_4_2_6_1_0_0_0_0_5_3,2021-05-24T18:25:27.548Z,,,blank.png,blank.png,blank.png,blank.png,blank.png,blank.png,blank.png,"[""chocolate_truffle.png""]",blank.png,blank.png,blank.png,blank.png,blank.png,,,,,,,,,,,,,,,,,,,,,,,,,,,,,"[""chocolate_truffle.png""]","[""coconut.png""]",PB18.png,,,,,,,,,,,0,6,"[""coconut.png""]","[""coconut.png""]","[""coconut.png""]","[""coconut.png""]","[""coconut.png""]","[""coconut.png""]",blank.png,PB18.png,PB01.png,"[""coconut.png""]","[""coconut.png""]","[""coconut.png""]","[""coconut.png""]","[""coconut.png""]","[""coconut.png""]",blank.png,blank.png,blank.png,blank.png,blank.png,blank.png,1,"[""chocolate_truffle.png""]",blank.png,blank.png,blank.png,0,blank.png,blank.png,blank.png,blank.png,blank.png,blank.png,PB01.png,,,,,,,,,,,1,,,#33ff3f,#808080,,,,,,,,,997.304999999702,,timeout,,,,,,,,,,,,,4,,,,,,,,,,,,,,,,,,,,,,,,,,,,,,,,,,,,,,,,,,,,,,,,,,,,,,,,,"[""coconut.png""]","[""chocolate_truffle.png""]",,,,3,,,false,,1,,,,,black,white,8999359.320000047,8999358.784,8998361.439,8998373.254999984,8998378.113,8999375.418,,,,
ITI_late,canvas.Screen,2_4_2_6_1_0_0_0_0_5_4,2021-05-24T18:25:28.296Z,,,blank.png,blank.png,blank.png,blank.png,blank.png,blank.png,blank.png,"[""chocolate_truffle.png""]",blank.png,blank.png,blank.png,blank.png,blank.png,,,,,,,,,,,,,,,,,,,,,,,,,,,,,"[""chocolate_truffle.png""]","[""coconut.png""]",PB18.png,,,,,,,,,,,0,6,"[""coconut.png""]","[""coconut.png""]","[""coconut.png""]","[""coconut.png""]","[""coconut.png""]","[""coconut.png""]",blank.png,PB18.png,PB01.png,"[""coconut.png""]","[""coconut.png""]","[""coconut.png""]","[""coconut.png""]","[""coconut.png""]","[""coconut.png""]",blank.png,blank.png,blank.png,blank.png,blank.png,blank.png,1,"[""chocolate_truffle.png""]",blank.png,blank.png,blank.png,0,blank.png,blank.png,blank.png,blank.png,blank.png,blank.png,PB01.png,,,,,,,,,,,1,,,,,,,,,,,,,747.9950000010431,,timeout,,,,,,,,,,,,white,4,,,,,,,,,,,,,,,,,,,,,,,,,,,,,,,,,,,,,,,,,,,,,,,,,,,,,,,,,"[""coconut.png""]","[""chocolate_truffle.png""]",,,,3,,,false,,1,,,,,,,9000107.260000193,9000106.829,8999358.784,8999360.590000171,8999375.418,9000123.413,,,,
choice_sequence,flow.Sequence,2_4_2_6_1_0_0_0_0_5,2021-05-24T18:25:28.297Z,,,blank.png,blank.png,blank.png,blank.png,blank.png,blank.png,blank.png,"[""chocolate_truffle.png""]",blank.png,blank.png,blank.png,blank.png,blank.png,,,,,,,,,,,,,,,,,,,,,,,,,,,,,"[""chocolate_truffle.png""]","[""coconut.png""]",PB18.png,,,,,,,,,,,0,6,"[""coconut.png""]","[""coconut.png""]","[""coconut.png""]","[""coconut.png""]","[""coconut.png""]","[""coconut.png""]",blank.png,PB18.png,PB01.png,"[""coconut.png""]","[""coconut.png""]","[""coconut.png""]","[""coconut.png""]","[""coconut.png""]","[""coconut.png""]",blank.png,blank.png,blank.png,blank.png,blank.png,blank.png,1,"[""chocolate_truffle.png""]",blank.png,blank.png,blank.png,0,blank.png,blank.png,blank.png,blank.png,blank.png,blank.png,PB01.png,,,,,,,,,,,1,,,,,,,,,,,,,4155.679999999702,,completion,,,,,,,,,,,,,4,,,,,,,,,,,,,,,,,,,,,,,,,,,,,,,,,,,,,,,,,,,,,,,,,,,,,,,,,"[""coconut.png""]","[""chocolate_truffle.png""]",,,,3,,,false,,1,,,,,,,9000107.62000014,9000106.829,8995934.457,8995940.530000022,8995951.149,9000123.413,,,,
fixCross,canvas.Screen,2_4_2_6_1_0_0_0_0_6_0,2021-05-24T18:25:28.596Z,,,blank.png,"[""chocolate_truffle.png""]",blank.png,blank.png,blank.png,blank.png,blank.png,blank.png,blank.png,blank.png,blank.png,blank.png,blank.png,,,,,,,,,,,,,,,,,,,,,,,,,,,,,"[""chocolate_truffle.png""]","[""coconut.png""]",PB14.png,,,,,,,,,,,0,6,"[""coconut.png""]","[""coconut.png""]","[""coconut.png""]","[""coconut.png""]","[""coconut.png""]","[""coconut.png""]",blank.png,PB18.png,PB18.png,"[""coconut.png""]","[""coconut.png""]","[""coconut.png""]",blank.png,blank.png,blank.png,"[""coconut.png""]","[""coconut.png""]","[""coconut.png""]","[""coconut.png""]","[""coconut.png""]","[""coconut.png""]",1,"[""chocolate_truffle.png""]",blank.png,blank.png,blank.png,3,"[""coconut.png""]","[""coconut.png""]","[""coconut.png""]",blank.png,blank.png,blank.png,PB14.png,,,,,,,,,,,1,,,,,,,,,,,,,531.9550000000745,,timeout,,,,,,,,,,,,,3,,,,,,,,,,,,,,,,,,,,,,,,,,,,,,,,,,,,,,,,,,,,,,,,,,,,,,,,,"[""coconut.png""]","[""chocolate_truffle.png""]",,,,3,,,false,,1,,,,,,,9000406.45999997,9000406.039,9000106.829,9000110.875000013,9000123.413,9000655.368,7,,,
timeout,canvas.Screen,2_4_2_6_1_0_0_0_0_6_1,2021-05-24T18:25:29.327Z,,,blank.png,"[""chocolate_truffle.png""]",blank.png,blank.png,blank.png,blank.png,blank.png,blank.png,blank.png,blank.png,blank.png,blank.png,blank.png,,,,,,,,,,,,,,,,,,,,,,,,,,,,,"[""chocolate_truffle.png""]","[""coconut.png""]",PB14.png,,,,,,,,,,,0,6,"[""coconut.png""]","[""coconut.png""]","[""coconut.png""]","[""coconut.png""]","[""coconut.png""]","[""coconut.png""]",blank.png,PB18.png,PB18.png,"[""coconut.png""]","[""coconut.png""]","[""coconut.png""]",blank.png,blank.png,blank.png,"[""coconut.png""]","[""coconut.png""]","[""coconut.png""]","[""coconut.png""]","[""coconut.png""]","[""coconut.png""]",1,"[""chocolate_truffle.png""]",blank.png,blank.png,blank.png,3,"[""coconut.png""]","[""coconut.png""]","[""coconut.png""]",blank.png,blank.png,blank.png,PB14.png,,,,,,,,,,,1,,,,,,,,,,,,,748.0219999998808,,timeout,,,,,,,,,,,,,3,,,,,,,,,,,,,,,,,,,,,,,,,,,,,,,,,,,,,,,,,,,,,,,,,,,,,,,,,"[""coconut.png""]","[""chocolate_truffle.png""]",,,,3,,,false,,1,,,,,,,9001137.850000057,9001137.433,9000406.039,9000662.729999982,9000655.368,9001403.39,,,,
choice,canvas.Screen,2_4_2_6_1_0_0_0_0_6_2,2021-05-24T18:25:32.214Z,,,blank.png,"[""chocolate_truffle.png""]",blank.png,blank.png,blank.png,blank.png,blank.png,blank.png,blank.png,blank.png,blank.png,blank.png,blank.png,,,,,,,,,,,,,,,,,,,,,,,,,,,,,"[""chocolate_truffle.png""]","[""coconut.png""]",PB14.png,,,,,,,,,,,0,6,"[""coconut.png""]","[""coconut.png""]","[""coconut.png""]","[""coconut.png""]","[""coconut.png""]","[""coconut.png""]",blank.png,PB18.png,PB18.png,"[""coconut.png""]","[""coconut.png""]","[""coconut.png""]",blank.png,blank.png,blank.png,"[""coconut.png""]","[""coconut.png""]","[""coconut.png""]","[""coconut.png""]","[""coconut.png""]","[""coconut.png""]",1,"[""chocolate_truffle.png""]",blank.png,blank.png,blank.png,3,"[""coconut.png""]","[""coconut.png""]","[""coconut.png""]",blank.png,blank.png,blank.png,PB14.png,,,,,,,,,,,1,,,,,,,,,,,,,2619.6700000353158,,response,,,,,,,,,,,,,3,,,,,,,,,,,,,,,,,,,,,,,,,,,,,,,,,,,,,,,,,,,,,,,,,,,,,,,,,"[""coconut.png""]","[""chocolate_truffle.png""]",,,,3,right,keydown(ArrowRight),false,,1,,,,,,,9004024.760000175,9004023.060000036,9001137.433,9001393.655000022,9001403.39,9004295.742,,7,,
square,canvas.Screen,2_4_2_6_1_0_0_0_0_6_3,2021-05-24T18:25:33.466Z,,,blank.png,"[""chocolate_truffle.png""]",blank.png,blank.png,blank.png,blank.png,blank.png,blank.png,blank.png,blank.png,blank.png,blank.png,blank.png,,,,,,,,,,,,,,,,,,,,,,,,,,,,,"[""chocolate_truffle.png""]","[""coconut.png""]",PB14.png,,,,,,,,,,,0,6,"[""coconut.png""]","[""coconut.png""]","[""coconut.png""]","[""coconut.png""]","[""coconut.png""]","[""coconut.png""]",blank.png,PB18.png,PB18.png,"[""coconut.png""]","[""coconut.png""]","[""coconut.png""]",blank.png,blank.png,blank.png,"[""coconut.png""]","[""coconut.png""]","[""coconut.png""]","[""coconut.png""]","[""coconut.png""]","[""coconut.png""]",1,"[""chocolate_truffle.png""]",blank.png,blank.png,blank.png,3,"[""coconut.png""]","[""coconut.png""]","[""coconut.png""]",blank.png,blank.png,blank.png,PB14.png,,,,,,,,,,,1,,,#808080,#33ff3f,,,,,,,,,997.3319999985397,,timeout,,,,,,,,,,,,,3,,,,,,,,,,,,,,,,,,,,,,,,,,,,,,,,,,,,,,,,,,,,,,,,,,,,,,,,,"[""coconut.png""]","[""chocolate_truffle.png""]",,,,3,,,false,,1,,,,,white,black,9005277.304999996,9005276.49,9004278.977,9004279.719999991,9004295.742,9005293.074,,,,
ITI_late,canvas.Screen,2_4_2_6_1_0_0_0_0_6_4,2021-05-24T18:25:33.965Z,,,blank.png,"[""chocolate_truffle.png""]",blank.png,blank.png,blank.png,blank.png,blank.png,blank.png,blank.png,blank.png,blank.png,blank.png,blank.png,,,,,,,,,,,,,,,,,,,,,,,,,,,,,"[""chocolate_truffle.png""]","[""coconut.png""]",PB14.png,,,,,,,,,,,0,6,"[""coconut.png""]","[""coconut.png""]","[""coconut.png""]","[""coconut.png""]","[""coconut.png""]","[""coconut.png""]",blank.png,PB18.png,PB18.png,"[""coconut.png""]","[""coconut.png""]","[""coconut.png""]",blank.png,blank.png,blank.png,"[""coconut.png""]","[""coconut.png""]","[""coconut.png""]","[""coconut.png""]","[""coconut.png""]","[""coconut.png""]",1,"[""chocolate_truffle.png""]",blank.png,blank.png,blank.png,3,"[""coconut.png""]","[""coconut.png""]","[""coconut.png""]",blank.png,blank.png,blank.png,PB14.png,,,,,,,,,,,1,,,,,,,,,,,,,498.691000001505,,timeout,,,,,,,,,,,,white,3,,,,,,,,,,,,,,,,,,,,,,,,,,,,,,,,,,,,,,,,,,,,,,,,,,,,,,,,,"[""coconut.png""]","[""chocolate_truffle.png""]",,,,3,,,false,,1,,,,,,,9005775.52500018,9005775.153,9005276.49,9005279.444999993,9005293.074,9005791.765,,,,
choice_sequence,flow.Sequence,2_4_2_6_1_0_0_0_0_6,2021-05-24T18:25:33.965Z,,,blank.png,"[""chocolate_truffle.png""]",blank.png,blank.png,blank.png,blank.png,blank.png,blank.png,blank.png,blank.png,blank.png,blank.png,blank.png,,,,,,,,,,,,,,,,,,,,,,,,,,,,,"[""chocolate_truffle.png""]","[""coconut.png""]",PB14.png,,,,,,,,,,,0,6,"[""coconut.png""]","[""coconut.png""]","[""coconut.png""]","[""coconut.png""]","[""coconut.png""]","[""coconut.png""]",blank.png,PB18.png,PB18.png,"[""coconut.png""]","[""coconut.png""]","[""coconut.png""]",blank.png,blank.png,blank.png,"[""coconut.png""]","[""coconut.png""]","[""coconut.png""]","[""coconut.png""]","[""coconut.png""]","[""coconut.png""]",1,"[""chocolate_truffle.png""]",blank.png,blank.png,blank.png,3,"[""coconut.png""]","[""coconut.png""]","[""coconut.png""]",blank.png,blank.png,blank.png,PB14.png,,,,,,,,,,,1,,,,,,,,,,,,,5651.7400000002235,,completion,,,,,,,,,,,,,3,,,,,,,,,,,,,,,,,,,,,,,,,,,,,,,,,,,,,,,,,,,,,,,,,,,,,,,,,"[""coconut.png""]","[""chocolate_truffle.png""]",,,,3,,,false,,1,,,,,,,9005775.87500005,9005775.153,9000106.829,9000110.255000181,9000123.413,9005791.765,,,,
choice_loop,flow.Loop,2_4_2_6_1_0_0_0_0,2021-05-24T18:25:33.965Z,,,,,,,,,,,,,,,,,,,,,,,,,,,,,,,,,,,,,,,,,,,,"[""chocolate_truffle.png""]","[""coconut.png""]",,,,,,,,,,,,,,,,,,,,,,,,,,,,,,,,,,,,,,,,,,,,,,,,,,,,,,,,,,,,,,,,,,,,,,,35472.83900000155,,completion,,,,,,,,,,,,,,,,,,,,,,,,,,,,,,,,,,,,,,,,,,,,,,,,,,,,,,,,,,,,,,,,,,,,,,"[""coconut.png""]","[""chocolate_truffle.png""]",,,,3,,,false,,,,,,,,,9005776.095000096,9005775.153,8970285.725,8970308.84000007,8970302.314,9005791.765,,,,
choice_frame,html.Frame,2_4_2_6_1_0_0_0,2021-05-24T18:25:33.965Z,,,,,,,,,,,,,,,,,,,,,,,,,,,,,,,,,,,,,,,,,,,,,,,,,,,,,,,,,,,,,,,,,,,,,,,,,,,,,,,,,,,,,,,,,,,,,,,,,,,,,,,,,,,,,,,,,,,,35473.84100008756,,,,,,,,,,,,,,,,,,,,,,,,,,,,,,,,,,,,,,,,,,,,,,,,,,,,,,,,,,,,,,,,,,,,,,,,,,,,,3,,,false,,,,,,,,,9005776.250000112,9005776.155000087,8970285.725,8970286.810000194,8970302.314,9005808.383,,,,
sublock_1,flow.Sequence,2_4_2_6_1_0_0,2021-05-24T18:25:33.965Z,,,,,,,,,,,,,,,,,,,,,,,,,,,,,,,,,,,,,,,,,,,,,,,,,,,,,,,,,,,,,,,,,,,,,,,,,,,,,,,,,,,,,,,,,,,,,,,,,,,,,,,,,,,,,,,,,,,,35473.84100008756,,completion,,,,,,,,,,,,,,,,,,,,,,,,,,,,,,,,,,,,,,,,,,,,,,,,,,,,,,,,,,,,,,,,,,,,,,,,,,,3,,,false,,,,,,,,,9005776.360000018,9005776.155000087,8970285.725,8970286.695000017,8970302.314,9005808.383,,,,
fixCross,canvas.Screen,2_4_2_6_1_0_1_0_0_0_0,2021-05-24T18:25:34.280Z,,,blank.png,blank.png,blank.png,blank.png,blank.png,blank.png,blank.png,"[""chocolate_truffle.png""]",blank.png,blank.png,blank.png,blank.png,blank.png,,,,,,,,,,,,,,,,,,,,,,,,,,,,,"[""chocolate_truffle.png""]","[""coconut.png""]",PB18.png,,,,,,,,,,,0,6,"[""coconut.png""]","[""coconut.png""]","[""coconut.png""]","[""coconut.png""]","[""coconut.png""]","[""coconut.png""]",blank.png,PB18.png,PB16.png,"[""coconut.png""]","[""coconut.png""]","[""coconut.png""]","[""coconut.png""]","[""coconut.png""]","[""coconut.png""]","[""coconut.png""]","[""coconut.png""]","[""coconut.png""]","[""coconut.png""]","[""coconut.png""]",blank.png,1,"[""chocolate_truffle.png""]",blank.png,blank.png,blank.png,5,"[""coconut.png""]","[""coconut.png""]","[""coconut.png""]","[""coconut.png""]","[""coconut.png""]",blank.png,PB16.png,,,,,,,,,,,1,,,,,,,,,,,,,548.6270000003278,,timeout,,,,,,,,,,,,,4,,,,,,,,,,,,,,,,,,,,,,,,,,,,,,,,,,,,,,,,,,,,,,,,,,,,,,,,,"[""coconut.png""]","[""chocolate_truffle.png""]",,,,2,,,false,,1,,,,,,,9006091.34500008,9006090.961,9005791.765,9005799.074999988,9005808.383,9006357.01,8,,,
timeout,canvas.Screen,2_4_2_6_1_0_1_0_0_0_1,2021-05-24T18:25:35.028Z,,,blank.png,blank.png,blank.png,blank.png,blank.png,blank.png,blank.png,"[""chocolate_truffle.png""]",blank.png,blank.png,blank.png,blank.png,blank.png,,,,,,,,,,,,,,,,,,,,,,,,,,,,,"[""chocolate_truffle.png""]","[""coconut.png""]",PB18.png,,,,,,,,,,,0,6,"[""coconut.png""]","[""coconut.png""]","[""coconut.png""]","[""coconut.png""]","[""coconut.png""]","[""coconut.png""]",blank.png,PB18.png,PB16.png,"[""coconut.png""]","[""coconut.png""]","[""coconut.png""]","[""coconut.png""]","[""coconut.png""]","[""coconut.png""]","[""coconut.png""]","[""coconut.png""]","[""coconut.png""]","[""coconut.png""]","[""coconut.png""]",blank.png,1,"[""chocolate_truffle.png""]",blank.png,blank.png,blank.png,5,"[""coconut.png""]","[""coconut.png""]","[""coconut.png""]","[""coconut.png""]","[""coconut.png""]",blank.png,PB16.png,,,,,,,,,,,1,,,,,,,,,,,,,731.3719999995083,,timeout,,,,,,,,,,,,,4,,,,,,,,,,,,,,,,,,,,,,,,,,,,,,,,,,,,,,,,,,,,,,,,,,,,,,,,,"[""coconut.png""]","[""chocolate_truffle.png""]",,,,2,,,false,,1,,,,,,,9006839.455000125,9006838.988,9006090.961,9006345.540000126,9006357.01,9007088.382,,,,
choice,canvas.Screen,2_4_2_6_1_0_1_0_0_0_2,2021-05-24T18:25:36.229Z,,,blank.png,blank.png,blank.png,blank.png,blank.png,blank.png,blank.png,"[""chocolate_truffle.png""]",blank.png,blank.png,blank.png,blank.png,blank.png,,,,,,,,,,,,,,,,,,,,,,,,,,,,,"[""chocolate_truffle.png""]","[""coconut.png""]",PB18.png,,,,,,,,,,,0,6,"[""coconut.png""]","[""coconut.png""]","[""coconut.png""]","[""coconut.png""]","[""coconut.png""]","[""coconut.png""]",blank.png,PB18.png,PB16.png,"[""coconut.png""]","[""coconut.png""]","[""coconut.png""]","[""coconut.png""]","[""coconut.png""]","[""coconut.png""]","[""coconut.png""]","[""coconut.png""]","[""coconut.png""]","[""coconut.png""]","[""coconut.png""]",blank.png,1,"[""chocolate_truffle.png""]",blank.png,blank.png,blank.png,5,"[""coconut.png""]","[""coconut.png""]","[""coconut.png""]","[""coconut.png""]","[""coconut.png""]",blank.png,PB16.png,,,,,,,,,,,1,,,,,,,,,,,,,950.4179999809712,,response,,,,,,,,,,,,,4,,,,,,,,,,,,,,,,,,,,,,,,,,,,,,,,,,,,,,,,,,,,,,,,,,,,,,,,,"[""coconut.png""]","[""chocolate_truffle.png""]",,,,2,right,keydown(ArrowRight),false,,1,,,,,,,9008039.600000018,9008038.79999998,9006838.988,9007093.610000098,9007088.382,9008318.456,,8,,
square,canvas.Screen,2_4_2_6_1_0_1_0_0_0_3,2021-05-24T18:25:37.489Z,,,blank.png,blank.png,blank.png,blank.png,blank.png,blank.png,blank.png,"[""chocolate_truffle.png""]",blank.png,blank.png,blank.png,blank.png,blank.png,,,,,,,,,,,,,,,,,,,,,,,,,,,,,"[""chocolate_truffle.png""]","[""coconut.png""]",PB18.png,,,,,,,,,,,0,6,"[""coconut.png""]","[""coconut.png""]","[""coconut.png""]","[""coconut.png""]","[""coconut.png""]","[""coconut.png""]",blank.png,PB18.png,PB16.png,"[""coconut.png""]","[""coconut.png""]","[""coconut.png""]","[""coconut.png""]","[""coconut.png""]","[""coconut.png""]","[""coconut.png""]","[""coconut.png""]","[""coconut.png""]","[""coconut.png""]","[""coconut.png""]",blank.png,1,"[""chocolate_truffle.png""]",blank.png,blank.png,blank.png,5,"[""coconut.png""]","[""coconut.png""]","[""coconut.png""]","[""coconut.png""]","[""coconut.png""]",blank.png,PB16.png,,,,,,,,,,,1,,,#808080,#33ff3f,,,,,,,,,997.339999999851,,timeout,,,,,,,,,,,,,4,,,,,,,,,,,,,,,,,,,,,,,,,,,,,,,,,,,,,,,,,,,,,,,,,,,,,,,,,"[""coconut.png""]","[""chocolate_truffle.png""]",,,,2,,,false,,1,,,,,white,black,9009299.605000066,9009299.166,9008285.127,9008298.605000135,9008318.456,9009315.796,,,,
ITI_late,canvas.Screen,2_4_2_6_1_0_1_0_0_0_4,2021-05-24T18:25:38.237Z,,,blank.png,blank.png,blank.png,blank.png,blank.png,blank.png,blank.png,"[""chocolate_truffle.png""]",blank.png,blank.png,blank.png,blank.png,blank.png,,,,,,,,,,,,,,,,,,,,,,,,,,,,,"[""chocolate_truffle.png""]","[""coconut.png""]",PB18.png,,,,,,,,,,,0,6,"[""coconut.png""]","[""coconut.png""]","[""coconut.png""]","[""coconut.png""]","[""coconut.png""]","[""coconut.png""]",blank.png,PB18.png,PB16.png,"[""coconut.png""]","[""coconut.png""]","[""coconut.png""]","[""coconut.png""]","[""coconut.png""]","[""coconut.png""]","[""coconut.png""]","[""coconut.png""]","[""coconut.png""]","[""coconut.png""]","[""coconut.png""]",blank.png,1,"[""chocolate_truffle.png""]",blank.png,blank.png,blank.png,5,"[""coconut.png""]","[""coconut.png""]","[""coconut.png""]","[""coconut.png""]","[""coconut.png""]",blank.png,PB16.png,,,,,,,,,,,1,,,,,,,,,,,,,748.0109999999404,,timeout,,,,,,,,,,,,white,4,,,,,,,,,,,,,,,,,,,,,,,,,,,,,,,,,,,,,,,,,,,,,,,,,,,,,,,,,"[""coconut.png""]","[""chocolate_truffle.png""]",,,,2,,,false,,1,,,,,,,9010047.595000127,9010047.184,9009299.166,9009300.890000071,9009315.796,9010063.807,,,,
choice_sequence,flow.Sequence,2_4_2_6_1_0_1_0_0_0,2021-05-24T18:25:38.237Z,,,blank.png,blank.png,blank.png,blank.png,blank.png,blank.png,blank.png,"[""chocolate_truffle.png""]",blank.png,blank.png,blank.png,blank.png,blank.png,,,,,,,,,,,,,,,,,,,,,,,,,,,,,"[""chocolate_truffle.png""]","[""coconut.png""]",PB18.png,,,,,,,,,,,0,6,"[""coconut.png""]","[""coconut.png""]","[""coconut.png""]","[""coconut.png""]","[""coconut.png""]","[""coconut.png""]",blank.png,PB18.png,PB16.png,"[""coconut.png""]","[""coconut.png""]","[""coconut.png""]","[""coconut.png""]","[""coconut.png""]","[""coconut.png""]","[""coconut.png""]","[""coconut.png""]","[""coconut.png""]","[""coconut.png""]","[""coconut.png""]",blank.png,1,"[""chocolate_truffle.png""]",blank.png,blank.png,blank.png,5,"[""coconut.png""]","[""coconut.png""]","[""coconut.png""]","[""coconut.png""]","[""coconut.png""]",blank.png,PB16.png,,,,,,,,,,,1,,,,,,,,,,,,,4238.801000000909,,completion,,,,,,,,,,,,,4,,,,,,,,,,,,,,,,,,,,,,,,,,,,,,,,,,,,,,,,,,,,,,,,,,,,,,,,,"[""coconut.png""]","[""chocolate_truffle.png""]",,,,2,,,false,,1,,,,,,,9010047.96500015,9010047.184,9005791.765,9005798.420000123,9005808.383,9010063.807,,,,
fixCross,canvas.Screen,2_4_2_6_1_0_1_0_0_1_0,2021-05-24T18:25:38.835Z,,,blank.png,"[""chocolate_truffle.png""]",blank.png,blank.png,blank.png,blank.png,blank.png,blank.png,blank.png,blank.png,blank.png,blank.png,blank.png,,,,,,,,,,,,,,,,,,,,,,,,,,,,,"[""chocolate_truffle.png""]","[""coconut.png""]",PB17.png,,,,,,,,,,,0,6,"[""coconut.png""]","[""coconut.png""]","[""coconut.png""]","[""coconut.png""]","[""coconut.png""]","[""coconut.png""]",blank.png,PB18.png,PB18.png,"[""coconut.png""]","[""coconut.png""]","[""coconut.png""]","[""coconut.png""]","[""coconut.png""]","[""coconut.png""]","[""coconut.png""]","[""coconut.png""]","[""coconut.png""]","[""coconut.png""]","[""coconut.png""]","[""coconut.png""]",1,"[""chocolate_truffle.png""]",blank.png,blank.png,blank.png,6,"[""coconut.png""]","[""coconut.png""]","[""coconut.png""]","[""coconut.png""]","[""coconut.png""]","[""coconut.png""]",PB17.png,,,,,,,,,,,1,,,,,,,,,,,,,847.7809999994934,,timeout,,,,,,,,,,,,,3,,,,,,,,,,,,,,,,,,,,,,,,,,,,,,,,,,,,,,,,,,,,,,,,,,,,,,,,,"[""coconut.png""]","[""chocolate_truffle.png""]",,,,2,,,false,,1,,,,,,,9010646.09000017,9010645.587,9010047.184,9010051.395000191,9010063.807,9010911.588,9,,,
timeout,canvas.Screen,2_4_2_6_1_0_1_0_0_1_1,2021-05-24T18:25:39.583Z,,,blank.png,"[""chocolate_truffle.png""]",blank.png,blank.png,blank.png,blank.png,blank.png,blank.png,blank.png,blank.png,blank.png,blank.png,blank.png,,,,,,,,,,,,,,,,,,,,,,,,,,,,,"[""chocolate_truffle.png""]","[""coconut.png""]",PB17.png,,,,,,,,,,,0,6,"[""coconut.png""]","[""coconut.png""]","[""coconut.png""]","[""coconut.png""]","[""coconut.png""]","[""coconut.png""]",blank.png,PB18.png,PB18.png,"[""coconut.png""]","[""coconut.png""]","[""coconut.png""]","[""coconut.png""]","[""coconut.png""]","[""coconut.png""]","[""coconut.png""]","[""coconut.png""]","[""coconut.png""]","[""coconut.png""]","[""coconut.png""]","[""coconut.png""]",1,"[""chocolate_truffle.png""]",blank.png,blank.png,blank.png,6,"[""coconut.png""]","[""coconut.png""]","[""coconut.png""]","[""coconut.png""]","[""coconut.png""]","[""coconut.png""]",PB17.png,,,,,,,,,,,1,,,,,,,,,,,,,748.031000001356,,timeout,,,,,,,,,,,,,3,,,,,,,,,,,,,,,,,,,,,,,,,,,,,,,,,,,,,,,,,,,,,,,,,,,,,,,,,"[""coconut.png""]","[""chocolate_truffle.png""]",,,,2,,,false,,1,,,,,,,9011394.070000155,9011393.632,9010645.587,9010897.590000182,9010911.588,9011659.619,,,,
choice,canvas.Screen,2_4_2_6_1_0_1_0_0_1_2,2021-05-24T18:25:40.023Z,,,blank.png,"[""chocolate_truffle.png""]",blank.png,blank.png,blank.png,blank.png,blank.png,blank.png,blank.png,blank.png,blank.png,blank.png,blank.png,,,,,,,,,,,,,,,,,,,,,,,,,,,,,"[""chocolate_truffle.png""]","[""coconut.png""]",PB17.png,,,,,,,,,,,0,6,"[""coconut.png""]","[""coconut.png""]","[""coconut.png""]","[""coconut.png""]","[""coconut.png""]","[""coconut.png""]",blank.png,PB18.png,PB18.png,"[""coconut.png""]","[""coconut.png""]","[""coconut.png""]","[""coconut.png""]","[""coconut.png""]","[""coconut.png""]","[""coconut.png""]","[""coconut.png""]","[""coconut.png""]","[""coconut.png""]","[""coconut.png""]","[""coconut.png""]",1,"[""chocolate_truffle.png""]",blank.png,blank.png,blank.png,6,"[""coconut.png""]","[""coconut.png""]","[""coconut.png""]","[""coconut.png""]","[""coconut.png""]","[""coconut.png""]",PB17.png,,,,,,,,,,,1,,,,,,,,,,,,,173.1910000499338,,response,,,,,,,,,,,,,3,,,,,,,,,,,,,,,,,,,,,,,,,,,,,,,,,,,,,,,,,,,,,,,,,,,,,,,,,"[""coconut.png""]","[""chocolate_truffle.png""]",,,,2,left,keydown(ArrowLeft),false,,1,,,,,,,9011833.7950001,9011832.81000005,9011393.632,9011650.295000058,9011659.619,9012108.375,,9,,
square,canvas.Screen,2_4_2_6_1_0_1_0_0_1_3,2021-05-24T18:25:41.279Z,,,blank.png,"[""chocolate_truffle.png""]",blank.png,blank.png,blank.png,blank.png,blank.png,blank.png,blank.png,blank.png,blank.png,blank.png,blank.png,,,,,,,,,,,,,,,,,,,,,,,,,,,,,"[""chocolate_truffle.png""]","[""coconut.png""]",PB17.png,,,,,,,,,,,0,6,"[""coconut.png""]","[""coconut.png""]","[""coconut.png""]","[""coconut.png""]","[""coconut.png""]","[""coconut.png""]",blank.png,PB18.png,PB18.png,"[""coconut.png""]","[""coconut.png""]","[""coconut.png""]","[""coconut.png""]","[""coconut.png""]","[""coconut.png""]","[""coconut.png""]","[""coconut.png""]","[""coconut.png""]","[""coconut.png""]","[""coconut.png""]","[""coconut.png""]",1,"[""chocolate_truffle.png""]",blank.png,blank.png,blank.png,6,"[""coconut.png""]","[""coconut.png""]","[""coconut.png""]","[""coconut.png""]","[""coconut.png""]","[""coconut.png""]",PB17.png,,,,,,,,,,,1,,,#33ff3f,#808080,,,,,,,,,997.3289999999106,,timeout,,,,,,,,,,,,,3,,,,,,,,,,,,,,,,,,,,,,,,,,,,,,,,,,,,,,,,,,,,,,,,,,,,,,,,,"[""coconut.png""]","[""chocolate_truffle.png""]",,,,2,,,false,,1,,,,,black,white,9013089.565000031,9013089.108,9012091.792,9012099.739999976,9012108.375,9013105.704,,,,
ITI_late,canvas.Screen,2_4_2_6_1_0_1_0_0_1_4,2021-05-24T18:25:41.777Z,,,blank.png,"[""chocolate_truffle.png""]",blank.png,blank.png,blank.png,blank.png,blank.png,blank.png,blank.png,blank.png,blank.png,blank.png,blank.png,,,,,,,,,,,,,,,,,,,,,,,,,,,,,"[""chocolate_truffle.png""]","[""coconut.png""]",PB17.png,,,,,,,,,,,0,6,"[""coconut.png""]","[""coconut.png""]","[""coconut.png""]","[""coconut.png""]","[""coconut.png""]","[""coconut.png""]",blank.png,PB18.png,PB18.png,"[""coconut.png""]","[""coconut.png""]","[""coconut.png""]","[""coconut.png""]","[""coconut.png""]","[""coconut.png""]","[""coconut.png""]","[""coconut.png""]","[""coconut.png""]","[""coconut.png""]","[""coconut.png""]","[""coconut.png""]",1,"[""chocolate_truffle.png""]",blank.png,blank.png,blank.png,6,"[""coconut.png""]","[""coconut.png""]","[""coconut.png""]","[""coconut.png""]","[""coconut.png""]","[""coconut.png""]",PB17.png,,,,,,,,,,,1,,,,,,,,,,,,,498.7400000002235,,timeout,,,,,,,,,,,,white,3,,,,,,,,,,,,,,,,,,,,,,,,,,,,,,,,,,,,,,,,,,,,,,,,,,,,,,,,,"[""coconut.png""]","[""chocolate_truffle.png""]",,,,2,,,false,,1,,,,,,,9013588.200000115,9013587.825,9013089.108,9013090.895000147,9013105.704,9013604.444,,,,
choice_sequence,flow.Sequence,2_4_2_6_1_0_1_0_0_1,2021-05-24T18:25:41.778Z,,,blank.png,"[""chocolate_truffle.png""]",blank.png,blank.png,blank.png,blank.png,blank.png,blank.png,blank.png,blank.png,blank.png,blank.png,blank.png,,,,,,,,,,,,,,,,,,,,,,,,,,,,,"[""chocolate_truffle.png""]","[""coconut.png""]",PB17.png,,,,,,,,,,,0,6,"[""coconut.png""]","[""coconut.png""]","[""coconut.png""]","[""coconut.png""]","[""coconut.png""]","[""coconut.png""]",blank.png,PB18.png,PB18.png,"[""coconut.png""]","[""coconut.png""]","[""coconut.png""]","[""coconut.png""]","[""coconut.png""]","[""coconut.png""]","[""coconut.png""]","[""coconut.png""]","[""coconut.png""]","[""coconut.png""]","[""coconut.png""]","[""coconut.png""]",1,"[""chocolate_truffle.png""]",blank.png,blank.png,blank.png,6,"[""coconut.png""]","[""coconut.png""]","[""coconut.png""]","[""coconut.png""]","[""coconut.png""]","[""coconut.png""]",PB17.png,,,,,,,,,,,1,,,,,,,,,,,,,3524.017999999225,,completion,,,,,,,,,,,,,3,,,,,,,,,,,,,,,,,,,,,,,,,,,,,,,,,,,,,,,,,,,,,,,,,,,,,,,,,"[""coconut.png""]","[""chocolate_truffle.png""]",,,,2,,,false,,1,,,,,,,9013588.560000062,9013587.825,9010047.184,9010050.754999975,9010063.807,9013604.444,,,,
