sender,sender_type,sender_id,timestamp,meta,,Blank,DownLeft1,DownLeft2,DownLeft3,DownLeft4,DownLeft5,DownLeft6,DownRight1,DownRight2,DownRight3,DownRight4,DownRight5,DownRight6,FoodHabits_Fru_item1,FoodHabits_Fru_item2,FoodHabits_Fru_item3,FoodHabits_Fru_item4,FoodHabits_Fru_item5,FoodHabits_Fru_item6,FoodHabits_Fru_item7,FoodHabits_Meat_item1,FoodHabits_Meat_item2,FoodHabits_Meat_item3,FoodHabits_Meat_item4,FoodHabits_Meat_item5,FoodHabits_Meat_item6,FoodHabits_Meat_item7,FoodHabits_Swe_item1,FoodHabits_Swe_item2,FoodHabits_Swe_item3,FoodHabits_Swe_item4,FoodHabits_Swe_item5,FoodHabits_Swe_item6,FoodHabits_Swe_item7,FoodHabits_Veg_item1,FoodHabits_Veg_item2,FoodHabits_Veg_item3,FoodHabits_Veg_item4,FoodHabits_Veg_item5,FoodHabits_Veg_item6,FoodHabits_Veg_item7,ImgA,ImgB,LeftBar,PSS_item01,PSS_item02,PSS_item03,PSS_item04,PSS_item05,PSS_item06,PSS_item07,PSS_item08,PSS_item09,PSS_item10,RefA,RefB,RefB1,RefB2,RefB3,RefB4,RefB5,RefB6,RefB7,Ref_PB,RightBar,UpLeft1,UpLeft2,UpLeft3,UpLeft4,UpLeft5,UpLeft6,UpRight1,UpRight2,UpRight3,UpRight4,UpRight5,UpRight6,VarA,VarA1,VarA2,VarA3,VarA4,VarB,VarB1,VarB2,VarB3,VarB4,VarB5,VarB6,Var_PB,attCheck_fileA,attCheck_fileB,attCheck_fileC,attCheck_fileD,attCheck_options,attCheck_valueA,attCheck_valueB,attCheck_valueC,attCheck_valueD,attention_check,block,browser_name,choseL,choseR,consent_form1,consent_form2,consentconfirmation_form1,consentconfirmation_form2,correct,correctResponse,diet,disorder,duration,edu,ended_on,enjoy,full_version,gender,group,hunger,img,imgTask,input_age,input_meal,input_occ,input_remark,lateRespFeed,list,major_version,message,mixQ_item1,mixQ_item2,mixQ_item3,mixQ_item4,mixQ_item5,name,navigator_appName,navigator_userAgent,os,pracQ1_IDa,pracQ1_IDb,pracQ1_IDc,pracQ1_IDd,pracQ1_optionA,pracQ1_optionB,pracQ1_optionC,pracQ1_optionD,pracQ1_valueA,pracQ1_valueB,pracQ1_valueC,pracQ1_valueD,pracQ2_IDa,pracQ2_IDb,pracQ2_IDc,pracQ2_optionA,pracQ2_optionB,pracQ2_optionC,pracQ2_valueA,pracQ2_valueB,pracQ2_valueC,pracQ4_IDa,pracQ4_IDb,pracQ4_IDc,pracQ4_IDd,pracQ4_optionA,pracQ4_optionB,pracQ4_optionC,pracQ4_optionD,pracQ4_valueA,pracQ4_valueB,pracQ4_valueC,pracQ4_valueD,pracQ5_IDa,pracQ5_IDb,pracQ5_IDc,pracQ5_IDd,pracQ5_optionA,pracQ5_optionB,pracQ5_optionC,pracQ5_optionD,pracQ5_valueA,pracQ5_valueB,pracQ5_valueC,pracQ5_valueD,prefHealty,prefUnhealthy,prolific_ID,psessionID,pstudyID,rep,response,response_action,skip,snack,sublock,subtitle,task_difficulty,task_engagement,task_focus,textL,textR,time_commit,time_end,time_render,time_run,time_show,time_switch,trial_count,trial_countO,url,valence
Title,html.Page,0,2021-01-14T18:29:45.638Z,"{""labjs_version"":""20.1.1"",""labjs_build"":{""flavor"":""production"",""commit"":""c48ac4ada3769e8d34489594ab03097d5f256ac7""},""location"":""https://run.pavlovia.org/E3lab/rebund/html/?PROLIFIC_PID={{%PROLIFIC_PID%}}&STUDY_ID={{%STUDY_ID%}}&SESSION_ID={{%SESSION_ID%}}"",""userAgent"":""Mozilla/5.0 (Windows NT 10.0; Win64; x64) AppleWebKit/537.36 (KHTML, like Gecko) Chrome/87.0.4280.141 Safari/537.36"",""platform"":""Win32"",""language"":""en-US"",""locale"":""en-US"",""timeZone"":""Europe/Berlin"",""timezoneOffset"":-60,""screen_width"":1920,""screen_height"":1080,""scroll_width"":1920,""scroll_height"":889,""window_innerWidth"":1920,""window_innerHeight"":937,""devicePixelRatio"":1}",,,,,,,,,,,,,,,,,,,,,,,,,,,,,,,,,,,,,,,,,,,,,,,,,,,,,,,,,,,,,,,,,,,,,,,,,,,,,,,,,,,,,,,,,,,,,,,,,,,,,,,,,,,,,,,,,,8710.452000011026,,form submission,,,,,,,,,,,,,,,,,,,,,,,,,,,,,,,,,,,,,,,,,,,,,,,,,,,,,,,,,,,,,,,,,,,,,,,,,,,,,,,,,,,,,,,9242.050000000745,9241.715000011027,510.422,512.4250000808388,531.263,9246.659,,,"{""PROLIFIC_PID"":""{{%PROLIFIC_PID%}}"",""STUDY_ID"":""{{%STUDY_ID%}}"",""SESSION_ID"":""{{%SESSION_ID%}}""}",
get_systemInfo,canvas.Screen,1,2021-01-14T18:29:45.653Z,,,,,,,,,,,,,,,,,,,,,,,,,,,,,,,,,,,,,,,,,,,,,,,,,,,,,,,,,,,,,,,,,,,,,,,,,,,,,,,,,,,,,,,,,,,,,,,,,,,,,,,,Chrome,,,,,,,,,,,3374.8420000000006,,timeout,,87.0.4280.141,,,,,,,,,,,,87,,,,,,,,Netscape,"Mozilla/5.0 (Windows NT 10.0; Win64; x64) AppleWebKit/537.36 (KHTML, like Gecko) Chrome/87.0.4280.141 Safari/537.36",Windows,,,,,,,,,,,,,,,,,,,,,,,,,,,,,,,,,,,,,,,,,,,,,,,,{{%PROLIFIC_PID%}},,{{%STUDY_ID%}},,,,,,,,,,,,,9256.875000195578,9256.665000226349,9239.715,9242.890000110492,9246.659,12621.501,,,,
ConsentForm,html.Form,2_0,2021-01-14T18:30:47.792Z,,,,,,,,,,,,,,,,,,,,,,,,,,,,,,,,,,,,,,,,,,,,,,,,,,,,,,,,,,,,,,,,,,,,,,,,,,,,,,,,,,,,,,,,,,,,,,,,,,,,,,,,,,,true,true,,,,,,,58773.48900017531,,form submission,,,,,,,,,,,,,,,,,,,,,,,,,,,,,,,,,,,,,,,,,,,,,,,,,,,,,,,,,,,,,,,,,,,,,,,,,,,,,,,,,,,,,,,71395.81500017084,71394.99000017531,9256.665000226349,12638.005000073463,12621.501,71400.418,,,,
PepTalk,html.Page,2_1,2021-01-14T18:30:57.478Z,,,,,,,,,,,,,,,,,,,,,,,,,,,,,,,,,,,,,,,,,,,,,,,,,,,,,,,,,,,,,,,,,,,,,,,,,,,,,,,,,,,,,,,,,,,,,,,,,,,,,,,,,,,,,,,,,,,9681.482000106538,,form submission,,,,,,,,,,,,,,,,,,,,,,,,,,,,,,,,,,,,,,,,,,,,,,,,,,,,,,,,,,,,,,,,,,,,,,,,,,,,,,,,,,,,,,,81082.16000022367,81081.90000010654,71386.53,71396.27500018105,71400.418,81088.154,,,,
Demographics,html.Form,2_2,2021-01-14T18:31:17.052Z,,,,,,,,,,,,,,,,,,,,,,,,,,,,,,,,,,,,,,,,,,,,,,,,,,,,,,,,,,,,,,,,,,,,,,,,,,,,,,,,,,,,,,,,,,,,,,,,,,,,,,,,,,,,,,,,,,,19567.311000076224,2,form submission,,,2,,,,,18,,Student,,,,,,,,,,,,,,,,,,,,,,,,,,,,,,,,,,,,,,,,,,,,,,,,,,,,,,,,,,,,,,,,,,,,,,,,,,,,,100655.77000007033,100655.46500007622,81081.21,81082.2900000494,81088.154,100657.791,,,,
InclusionCrit,html.Form,2_3,2021-01-14T18:31:38.961Z,,,,,,,,,,,,,,,,,,,,,,,,,,,,,,,,,,,,,,,,,,,,,,,,,,,,,,,,,,,,,,,,,,,,,,,,,,,,,,,,,,,,,,,,,,,,,,,,,,,,,,,,,,,,,,,,,1,1,21907.209000176954,,form submission,1,,,,,,,,,,,,,,,,,,,,,,,,,,,,,,,,,,,,,,,,,,,,,,,,,,,,,,,,,,,,,,,,,,,,,,,,,,,,,,,,,,,,,,122565.20000007004,122565.00000017695,100650.847,100655.93500016257,100657.791,122567.846,,,,
Selection,html.Page,2_4_0,2021-01-14T18:31:46.714Z,,,,,,,,,,,,,,,,,,,,,,,,,,,,,,,,,,,,,,,,,,,,,,,,,,,,,,,,,,,,,,,,,,,,,,,,,,,,,,,,,,,,,,,,,,,,,,,,,,,,,,,,,,,,,,,,,,,7750.214000194232,,form submission,,,,,,,,,,,,,,,,,,,,,,,,,,,,,,,,,,,,,,,,,,,,,,,,,,,,,,,,,,,,,,,,,,,,,,,,,,,,,,,1,,,,,,,,130318.37000022642,130318.06000019424,122560.902,122565.35000004806,122567.846,130317.977,,,,
Load,html.Page,2_4_1,2021-01-14T18:31:46.720Z,,,,,,,,,,,,,,,,,,,,,,,,,,,,,,,,,,,,,,,,,,,,,,,,,,,,,,,,,,,,,,,,,,,,,,,,,,,,,,,,,,,,,,,,,,,,,,,,,,,,,,,,,,,,,,,,,,,1930.5829999999987,,timeout,,,,,,,,,,,,,,,,,,,,,,,,,,,,,,,,,,,,,,,,,,,,,,,,,,,,,,,,,,,,,,,,,,,,,,,,,,,,,,,,,,,,,,,130324.11000016145,130323.79000005312,130311.033,130318.50000005215,130317.977,132248.56,,,,
SequenceSweet,flow.Sequence,2_4_2,2021-01-14T18:31:47.777Z,,,,,,,,,,,,,,,,,,,,,,,,,,,,,,,,,,,,,,,,,,,,,,,,,,,,,,,,,,,,,,,,,,,,,,,,,,,,,,,,,,,,,,,,,,,,,,,,,,,,,,,,,,,,,,,,,,,NaN,,skipped,,,,,,,,,,,,,,,,,,,,,,,,,,,,,,,,,,,,,,,,,,,,,,,,,,,,,,,,,,,,,,,,,,,,,,,,,,,,,,true,,,,,,,,,131381.37000007555,130323.79000005312,,131381.1650001444,,132248.56,0,0,,
ratings_instructions,html.Screen,2_4_3_0,2021-01-14T18:32:02.053Z,,,,,,,,,,,,,,,,,,,,,,,,,,,,,,,,,,,,,,,,,,,,,,,,,,,,,,,,,,,,,,,,,,,,,,,,,,,,,,,,,,,,,,,,,,,,,,,,,,,,,,,,,,,,,,,,,,,13406.045000047015,,response,,,,,,,,,,,,,,,,,,,,,,,,,,,,,,,,,,,,,,,,,,,,,,,,,,,,,,,,,,,,,,,,,,,,,,,,,,,,continue,keypress(Space),false,,,,,,,,,145657.09500014782,145654.605000047,130323.79000005312,132280.81500018016,132248.56,145664.378,0,0,,
fixCross,canvas.Screen,2_4_3_1_0_0,2021-01-14T18:32:02.556Z,,,,,,,,,,,,,,,,,,,,,,,,,,,,,,,,,,,,,,,,,,,,,,,,,,,,,,,,,,,,,,,,,,,,,,,,,,,,,,,,,,,,,,,,,,,,,,,,,,,,,,,,,,,,,,,,,,,501.0910000000149,,timeout,,,,healthy,,tomato.png,,,,,,,,,,,,,,,cherry tomato,,,,,,,,,,,,,,,,,,,,,,,,,,,,,,,,,,,,,,,,,,,,,,,,,,,,,,,,,false,,,,,,,,,146159.6650001593,146158.525,145650.49,145657.5100000482,145664.378,146165.469,,,,
Rating,html.Form,2_4_3_1_0_1,2021-01-14T18:32:07.357Z,,,,,,,,,,,,,,,,,,,,,,,,,,,,,,,,,,,,,,,,,,,,,,,,,,,,,,,,,,,,,,,,,,,,,,,,,,,,,,,,,,,,,,,,,,,,,,,,,,,,,,,,,,,,,,,,,,,4795.605999999243,,form submission,,,,healthy,,tomato.png,,,,,,,,,,,,,,,cherry tomato,,,,,,,,,,,,,,,,,,,,,,,,,,,,,,,,,,,,,,,,,,,,,,,,,,,,,,,,,false,,,,,,,,,150961.29000000656,150961.07499999925,146158.525,146159.77500006557,146165.469,150964.102,,,,4
rating_sequence,flow.Sequence,2_4_3_1_0,2021-01-14T18:32:07.358Z,,,,,,,,,,,,,,,,,,,,,,,,,,,,,,,,,,,,,,,,,,,,,,,,,,,,,,,,,,,,,,,,,,,,,,,,,,,,,,,,,,,,,,,,,,,,,,,,,,,,,,,,,,,,,,,,,,,5296.696999999258,,completion,,,,healthy,,tomato.png,,,,,,,,,,,,,,,cherry tomato,,,,,,,,,,,,,,,,,,,,,,,,,,,,,,,,,,,,,,,,,,,,,,,,,,,,,,,,,false,,,,,,,,,150961.4550000988,150961.07499999925,145650.49,145657.49000012875,145664.378,150964.102,,,,
fixCross,canvas.Screen,2_4_3_1_1_0,2021-01-14T18:32:07.854Z,,,,,,,,,,,,,,,,,,,,,,,,,,,,,,,,,,,,,,,,,,,,,,,,,,,,,,,,,,,,,,,,,,,,,,,,,,,,,,,,,,,,,,,,,,,,,,,,,,,,,,,,,,,,,,,,,,,499.987999999983,,timeout,,,,unhealthy,,ham.png,,,,,,,,,,,,,,,ham,,,,,,,,,,,,,,,,,,,,,,,,,,,,,,,,,,,,,,,,,,,,,,,,,,,,,,,,,false,,,,,,,,,151458.14000000246,151457.146,150957.158,150961.53500000946,150964.102,151464.09,,,,
Rating,html.Form,2_4_3_1_1_1,2021-01-14T18:32:12.576Z,,,,,,,,,,,,,,,,,,,,,,,,,,,,,,,,,,,,,,,,,,,,,,,,,,,,,,,,,,,,,,,,,,,,,,,,,,,,,,,,,,,,,,,,,,,,,,,,,,,,,,,,,,,,,,,,,,,4716.0050001925265,,form submission,,,,unhealthy,,ham.png,,,,,,,,,,,,,,,ham,,,,,,,,,,,,,,,,,,,,,,,,,,,,,,,,,,,,,,,,,,,,,,,,,,,,,,,,,false,,,,,,,,,156180.29000004753,156180.09500019252,151457.146,151458.26500002295,151464.09,156186.408,,,,77
rating_sequence,flow.Sequence,2_4_3_1_1,2021-01-14T18:32:12.577Z,,,,,,,,,,,,,,,,,,,,,,,,,,,,,,,,,,,,,,,,,,,,,,,,,,,,,,,,,,,,,,,,,,,,,,,,,,,,,,,,,,,,,,,,,,,,,,,,,,,,,,,,,,,,,,,,,,,5215.9930001925095,,completion,,,,unhealthy,,ham.png,,,,,,,,,,,,,,,ham,,,,,,,,,,,,,,,,,,,,,,,,,,,,,,,,,,,,,,,,,,,,,,,,,,,,,,,,,false,,,,,,,,,156180.4200001061,156180.09500019252,150957.158,150961.51500009,150964.102,156186.408,,,,
fixCross,canvas.Screen,2_4_3_1_2_0,2021-01-14T18:32:13.076Z,,,,,,,,,,,,,,,,,,,,,,,,,,,,,,,,,,,,,,,,,,,,,,,,,,,,,,,,,,,,,,,,,,,,,,,,,,,,,,,,,,,,,,,,,,,,,,,,,,,,,,,,,,,,,,,,,,,500.1350000000093,,timeout,,,,unhealthy,,bretzel.png,,,,,,,,,,,,,,,bretzel,,,,,,,,,,,,,,,,,,,,,,,,,,,,,,,,,,,,,,,,,,,,,,,,,,,,,,,,,false,,,,,,,,,156680.20000006072,156679.599,156179.464,156180.50500005484,156186.408,156686.543,,,,
Rating,html.Form,2_4_3_1_2_1,2021-01-14T18:32:16.934Z,,,,,,,,,,,,,,,,,,,,,,,,,,,,,,,,,,,,,,,,,,,,,,,,,,,,,,,,,,,,,,,,,,,,,,,,,,,,,,,,,,,,,,,,,,,,,,,,,,,,,,,,,,,,,,,,,,,3851.287000044773,,form submission,,,,unhealthy,,bretzel.png,,,,,,,,,,,,,,,bretzel,,,,,,,,,,,,,,,,,,,,,,,,,,,,,,,,,,,,,,,,,,,,,,,,,,,,,,,,,false,,,,,,,,,160538.0100000184,160537.83000004478,156679.599,156680.28500000946,156686.543,160540.713,,,,39
rating_sequence,flow.Sequence,2_4_3_1_2,2021-01-14T18:32:16.934Z,,,,,,,,,,,,,,,,,,,,,,,,,,,,,,,,,,,,,,,,,,,,,,,,,,,,,,,,,,,,,,,,,,,,,,,,,,,,,,,,,,,,,,,,,,,,,,,,,,,,,,,,,,,,,,,,,,,4351.422000044782,,completion,,,,unhealthy,,bretzel.png,,,,,,,,,,,,,,,bretzel,,,,,,,,,,,,,,,,,,,,,,,,,,,,,,,,,,,,,,,,,,,,,,,,,,,,,,,,,false,,,,,,,,,160538.15500019118,160537.83000004478,156179.464,156180.48500013538,156186.408,160540.713,,,,
fixCross,canvas.Screen,2_4_3_1_3_0,2021-01-14T18:32:17.431Z,,,,,,,,,,,,,,,,,,,,,,,,,,,,,,,,,,,,,,,,,,,,,,,,,,,,,,,,,,,,,,,,,,,,,,,,,,,,,,,,,,,,,,,,,,,,,,,,,,,,,,,,,,,,,,,,,,,499.9650000000256,,timeout,,,,healthy,,walnut.png,,,,,,,,,,,,,,,walnut,,,,,,,,,,,,,,,,,,,,,,,,,,,,,,,,,,,,,,,,,,,,,,,,,,,,,,,,,false,,,,,,,,,161034.50500010513,161033.734,160533.769,160538.26000005938,160540.713,161040.678,,,,
Rating,html.Form,2_4_3_1_3_1,2021-01-14T18:32:21.282Z,,,,,,,,,,,,,,,,,,,,,,,,,,,,,,,,,,,,,,,,,,,,,,,,,,,,,,,,,,,,,,,,,,,,,,,,,,,,,,,,,,,,,,,,,,,,,,,,,,,,,,,,,,,,,,,,,,,3845.2670002200757,,form submission,,,,healthy,,walnut.png,,,,,,,,,,,,,,,walnut,,,,,,,,,,,,,,,,,,,,,,,,,,,,,,,,,,,,,,,,,,,,,,,,,,,,,,,,,false,,,,,,,,,164886.17500010878,164885.9450002201,161033.734,161034.63000012562,161040.678,164888.027,,,,22
rating_sequence,flow.Sequence,2_4_3_1_3,2021-01-14T18:32:21.282Z,,,,,,,,,,,,,,,,,,,,,,,,,,,,,,,,,,,,,,,,,,,,,,,,,,,,,,,,,,,,,,,,,,,,,,,,,,,,,,,,,,,,,,,,,,,,,,,,,,,,,,,,,,,,,,,,,,,4345.232000220101,,completion,,,,healthy,,walnut.png,,,,,,,,,,,,,,,walnut,,,,,,,,,,,,,,,,,,,,,,,,,,,,,,,,,,,,,,,,,,,,,,,,,,,,,,,,,false,,,,,,,,,164886.32000004873,164885.9450002201,160533.769,160538.23500010185,160540.713,164888.027,,,,
fixCross,canvas.Screen,2_4_3_1_4_0,2021-01-14T18:32:21.779Z,,,,,,,,,,,,,,,,,,,,,,,,,,,,,,,,,,,,,,,,,,,,,,,,,,,,,,,,,,,,,,,,,,,,,,,,,,,,,,,,,,,,,,,,,,,,,,,,,,,,,,,,,,,,,,,,,,,499.98300000000745,,timeout,,,,unhealthy,,nacho.png,,,,,,,,,,,,,,,nacho,,,,,,,,,,,,,,,,,,,,,,,,,,,,,,,,,,,,,,,,,,,,,,,,,,,,,,,,,false,,,,,,,,,165382.4850001838,165381.066,164881.083,164886.41000003554,164888.027,165388.01,,,,
Rating,html.Form,2_4_3_1_4_1,2021-01-14T18:32:25.618Z,,,,,,,,,,,,,,,,,,,,,,,,,,,,,,,,,,,,,,,,,,,,,,,,,,,,,,,,,,,,,,,,,,,,,,,,,,,,,,,,,,,,,,,,,,,,,,,,,,,,,,,,,,,,,,,,,,,3834.070000210544,,form submission,,,,unhealthy,,nacho.png,,,,,,,,,,,,,,,nacho,,,,,,,,,,,,,,,,,,,,,,,,,,,,,,,,,,,,,,,,,,,,,,,,,,,,,,,,,false,,,,,,,,,169222.26500022225,169222.08000021055,165381.066,165382.56500009447,165388.01,169228.384,,,,96
rating_sequence,flow.Sequence,2_4_3_1_4,2021-01-14T18:32:25.618Z,,,,,,,,,,,,,,,,,,,,,,,,,,,,,,,,,,,,,,,,,,,,,,,,,,,,,,,,,,,,,,,,,,,,,,,,,,,,,,,,,,,,,,,,,,,,,,,,,,,,,,,,,,,,,,,,,,,4334.0530002105515,,completion,,,,unhealthy,,nacho.png,,,,,,,,,,,,,,,nacho,,,,,,,,,,,,,,,,,,,,,,,,,,,,,,,,,,,,,,,,,,,,,,,,,,,,,,,,,false,,,,,,,,,169222.3800001666,169222.08000021055,164881.083,164886.385000078,164888.027,169228.384,,,,
fixCross,canvas.Screen,2_4_3_1_5_0,2021-01-14T18:32:26.119Z,,,,,,,,,,,,,,,,,,,,,,,,,,,,,,,,,,,,,,,,,,,,,,,,,,,,,,,,,,,,,,,,,,,,,,,,,,,,,,,,,,,,,,,,,,,,,,,,,,,,,,,,,,,,,,,,,,,499.9290000000037,,timeout,,,,unhealthy,,chips.png,,,,,,,,,,,,,,,potato chip,,,,,,,,,,,,,,,,,,,,,,,,,,,,,,,,,,,,,,,,,,,,,,,,,,,,,,,,,false,,,,,,,,,169723.10500009917,169721.369,169221.44,169222.46000007726,169228.384,169728.313,,,,
Rating,html.Form,2_4_3_1_5_1,2021-01-14T18:32:28.893Z,,,,,,,,,,,,,,,,,,,,,,,,,,,,,,,,,,,,,,,,,,,,,,,,,,,,,,,,,,,,,,,,,,,,,,,,,,,,,,,,,,,,,,,,,,,,,,,,,,,,,,,,,,,,,,,,,,,2768.45700008524,,form submission,,,,unhealthy,,chips.png,,,,,,,,,,,,,,,potato chip,,,,,,,,,,,,,,,,,,,,,,,,,,,,,,,,,,,,,,,,,,,,,,,,,,,,,,,,,false,,,,,,,,,172496.98000005446,172496.77000008523,169721.369,169723.2100002002,169728.313,172499.262,,,,100
rating_sequence,flow.Sequence,2_4_3_1_5,2021-01-14T18:32:28.893Z,,,,,,,,,,,,,,,,,,,,,,,,,,,,,,,,,,,,,,,,,,,,,,,,,,,,,,,,,,,,,,,,,,,,,,,,,,,,,,,,,,,,,,,,,,,,,,,,,,,,,,,,,,,,,,,,,,,3268.3860000852437,,completion,,,,unhealthy,,chips.png,,,,,,,,,,,,,,,potato chip,,,,,,,,,,,,,,,,,,,,,,,,,,,,,,,,,,,,,,,,,,,,,,,,,,,,,,,,,false,,,,,,,,,172497.10500007495,172496.77000008523,169221.44,169222.4400001578,169228.384,172499.262,,,,
fixCross,canvas.Screen,2_4_3_1_6_0,2021-01-14T18:32:29.389Z,,,,,,,,,,,,,,,,,,,,,,,,,,,,,,,,,,,,,,,,,,,,,,,,,,,,,,,,,,,,,,,,,,,,,,,,,,,,,,,,,,,,,,,,,,,,,,,,,,,,,,,,,,,,,,,,,,,499.91500000000815,,timeout,,,,unhealthy,,peanut_cracker.png,,,,,,,,,,,,,,,peanut chip,,,,,,,,,,,,,,,,,,,,,,,,,,,,,,,,,,,,,,,,,,,,,,,,,,,,,,,,,false,,,,,,,,,172992.83500015736,172992.233,172492.318,172497.18500021845,172499.262,172999.177,,,,
Rating,html.Form,2_4_3_1_6_1,2021-01-14T18:32:34.050Z,,,,,,,,,,,,,,,,,,,,,,,,,,,,,,,,,,,,,,,,,,,,,,,,,,,,,,,,,,,,,,,,,,,,,,,,,,,,,,,,,,,,,,,,,,,,,,,,,,,,,,,,,,,,,,,,,,,4654.763000105653,,form submission,,,,unhealthy,,peanut_cracker.png,,,,,,,,,,,,,,,peanut chip,,,,,,,,,,,,,,,,,,,,,,,,,,,,,,,,,,,,,,,,,,,,,,,,,,,,,,,,,false,,,,,,,,,177654.1350001935,177653.94000010565,172992.233,172992.92500014417,172999.177,177659.095,,,,69
rating_sequence,flow.Sequence,2_4_3_1_6,2021-01-14T18:32:34.050Z,,,,,,,,,,,,,,,,,,,,,,,,,,,,,,,,,,,,,,,,,,,,,,,,,,,,,,,,,,,,,,,,,,,,,,,,,,,,,,,,,,,,,,,,,,,,,,,,,,,,,,,,,,,,,,,,,,,5154.678000105661,,completion,,,,unhealthy,,peanut_cracker.png,,,,,,,,,,,,,,,peanut chip,,,,,,,,,,,,,,,,,,,,,,,,,,,,,,,,,,,,,,,,,,,,,,,,,,,,,,,,,false,,,,,,,,,177654.25000013784,177653.94000010565,172492.318,172497.16500006616,172499.262,177659.095,,,,
fixCross,canvas.Screen,2_4_3_1_7_0,2021-01-14T18:32:34.550Z,,,,,,,,,,,,,,,,,,,,,,,,,,,,,,,,,,,,,,,,,,,,,,,,,,,,,,,,,,,,,,,,,,,,,,,,,,,,,,,,,,,,,,,,,,,,,,,,,,,,,,,,,,,,,,,,,,,499.84799999999814,,timeout,,,,healthy,,radish.png,,,,,,,,,,,,,,,radish,,,,,,,,,,,,,,,,,,,,,,,,,,,,,,,,,,,,,,,,,,,,,,,,,,,,,,,,,false,,,,,,,,,178153.49500020966,178151.999,177652.151,177654.33500008658,177659.095,178158.943,,,,
Rating,html.Form,2_4_3_1_7_1,2021-01-14T18:32:39.429Z,,,,,,,,,,,,,,,,,,,,,,,,,,,,,,,,,,,,,,,,,,,,,,,,,,,,,,,,,,,,,,,,,,,,,,,,,,,,,,,,,,,,,,,,,,,,,,,,,,,,,,,,,,,,,,,,,,,4873.896999999852,,form submission,,,,healthy,,radish.png,,,,,,,,,,,,,,,radish,,,,,,,,,,,,,,,,,,,,,,,,,,,,,,,,,,,,,,,,,,,,,,,,,,,,,,,,,false,,,,,,,,,183033.05500000715,183032.83999999985,178151.999,178153.6700001452,178158.943,183034.121,,,,53
rating_sequence,flow.Sequence,2_4_3_1_7,2021-01-14T18:32:39.429Z,,,,,,,,,,,,,,,,,,,,,,,,,,,,,,,,,,,,,,,,,,,,,,,,,,,,,,,,,,,,,,,,,,,,,,,,,,,,,,,,,,,,,,,,,,,,,,,,,,,,,,,,,,,,,,,,,,,5373.74499999985,,completion,,,,healthy,,radish.png,,,,,,,,,,,,,,,radish,,,,,,,,,,,,,,,,,,,,,,,,,,,,,,,,,,,,,,,,,,,,,,,,,,,,,,,,,false,,,,,,,,,183033.1850000657,183032.83999999985,177652.151,177654.31000012904,177659.095,183034.121,,,,
fixCross,canvas.Screen,2_4_3_1_8_0,2021-01-14T18:32:39.924Z,,,,,,,,,,,,,,,,,,,,,,,,,,,,,,,,,,,,,,,,,,,,,,,,,,,,,,,,,,,,,,,,,,,,,,,,,,,,,,,,,,,,,,,,,,,,,,,,,,,,,,,,,,,,,,,,,,,499.97199999997974,,timeout,,,,unhealthy,,ritz.png,,,,,,,,,,,,,,,cracker,,,,,,,,,,,,,,,,,,,,,,,,,,,,,,,,,,,,,,,,,,,,,,,,,,,,,,,,,false,,,,,,,,,183527.64000021853,183527.149,183027.177,183033.27000001445,183034.121,183534.093,,,,
Rating,html.Form,2_4_3_1_8_1,2021-01-14T18:32:43.233Z,,,,,,,,,,,,,,,,,,,,,,,,,,,,,,,,,,,,,,,,,,,,,,,,,,,,,,,,,,,,,,,,,,,,,,,,,,,,,,,,,,,,,,,,,,,,,,,,,,,,,,,,,,,,,,,,,,,3302.772000193945,,form submission,,,,unhealthy,,ritz.png,,,,,,,,,,,,,,,cracker,,,,,,,,,,,,,,,,,,,,,,,,,,,,,,,,,,,,,,,,,,,,,,,,,,,,,,,,,false,,,,,,,,,186837.02500001527,186836.86500019394,183527.149,183527.71500009112,183534.093,186839.718,,,,73
rating_sequence,flow.Sequence,2_4_3_1_8,2021-01-14T18:32:43.233Z,,,,,,,,,,,,,,,,,,,,,,,,,,,,,,,,,,,,,,,,,,,,,,,,,,,,,,,,,,,,,,,,,,,,,,,,,,,,,,,,,,,,,,,,,,,,,,,,,,,,,,,,,,,,,,,,,,,3802.744000193925,,completion,,,,unhealthy,,ritz.png,,,,,,,,,,,,,,,cracker,,,,,,,,,,,,,,,,,,,,,,,,,,,,,,,,,,,,,,,,,,,,,,,,,,,,,,,,,false,,,,,,,,,186837.13500015438,186836.86500019394,183027.177,183033.24500005692,183034.121,186839.718,,,,
fixCross,canvas.Screen,2_4_3_1_9_0,2021-01-14T18:32:43.730Z,,,,,,,,,,,,,,,,,,,,,,,,,,,,,,,,,,,,,,,,,,,,,,,,,,,,,,,,,,,,,,,,,,,,,,,,,,,,,,,,,,,,,,,,,,,,,,,,,,,,,,,,,,,,,,,,,,,499.92500000001746,,timeout,,,,healthy,,pickle.png,,,,,,,,,,,,,,,pickle,,,,,,,,,,,,,,,,,,,,,,,,,,,,,,,,,,,,,,,,,,,,,,,,,,,,,,,,,false,,,,,,,,,187333.52500014007,187332.699,186832.774,186837.21000002697,186839.718,187339.643,,,,
Rating,html.Form,2_4_3_1_9_1,2021-01-14T18:32:47.568Z,,,,,,,,,,,,,,,,,,,,,,,,,,,,,,,,,,,,,,,,,,,,,,,,,,,,,,,,,,,,,,,,,,,,,,,,,,,,,,,,,,,,,,,,,,,,,,,,,,,,,,,,,,,,,,,,,,,3832.0020001113007,,form submission,,,,healthy,,pickle.png,,,,,,,,,,,,,,,pickle,,,,,,,,,,,,,,,,,,,,,,,,,,,,,,,,,,,,,,,,,,,,,,,,,,,,,,,,,false,,,,,,,,,191171.8650001567,191171.6450001113,187332.699,187333.60000001267,187339.643,191173.084,,,,41
rating_sequence,flow.Sequence,2_4_3_1_9,2021-01-14T18:32:47.568Z,,,,,,,,,,,,,,,,,,,,,,,,,,,,,,,,,,,,,,,,,,,,,,,,,,,,,,,,,,,,,,,,,,,,,,,,,,,,,,,,,,,,,,,,,,,,,,,,,,,,,,,,,,,,,,,,,,,4331.927000111318,,completion,,,,healthy,,pickle.png,,,,,,,,,,,,,,,pickle,,,,,,,,,,,,,,,,,,,,,,,,,,,,,,,,,,,,,,,,,,,,,,,,,,,,,,,,,false,,,,,,,,,191172.05000016838,191171.6450001113,186832.774,186837.18500006944,186839.718,191173.084,,,,
fixCross,canvas.Screen,2_4_3_1_10_0,2021-01-14T18:32:48.064Z,,,,,,,,,,,,,,,,,,,,,,,,,,,,,,,,,,,,,,,,,,,,,,,,,,,,,,,,,,,,,,,,,,,,,,,,,,,,,,,,,,,,,,,,,,,,,,,,,,,,,,,,,,,,,,,,,,,499.99599999998463,,timeout,,,,unhealthy,,dried_meat.png,,,,,,,,,,,,,,,dried meat,,,,,,,,,,,,,,,,,,,,,,,,,,,,,,,,,,,,,,,,,,,,,,,,,,,,,,,,,false,,,,,,,,,191667.37500019372,191666.136,191166.14,191172.1850000322,191173.084,191673.08,,,,
Rating,html.Form,2_4_3_1_10_1,2021-01-14T18:32:52.014Z,,,,,,,,,,,,,,,,,,,,,,,,,,,,,,,,,,,,,,,,,,,,,,,,,,,,,,,,,,,,,,,,,,,,,,,,,,,,,,,,,,,,,,,,,,,,,,,,,,,,,,,,,,,,,,,,,,,3944.8650000636408,,form submission,,,,unhealthy,,dried_meat.png,,,,,,,,,,,,,,,dried meat,,,,,,,,,,,,,,,,,,,,,,,,,,,,,,,,,,,,,,,,,,,,,,,,,,,,,,,,,false,,,,,,,,,195618.1350001134,195617.94500006363,191666.136,191667.45500010438,191673.08,195617.561,,,,71
rating_sequence,flow.Sequence,2_4_3_1_10,2021-01-14T18:32:52.014Z,,,,,,,,,,,,,,,,,,,,,,,,,,,,,,,,,,,,,,,,,,,,,,,,,,,,,,,,,,,,,,,,,,,,,,,,,,,,,,,,,,,,,,,,,,,,,,,,,,,,,,,,,,,,,,,,,,,4444.861000063625,,completion,,,,unhealthy,,dried_meat.png,,,,,,,,,,,,,,,dried meat,,,,,,,,,,,,,,,,,,,,,,,,,,,,,,,,,,,,,,,,,,,,,,,,,,,,,,,,,false,,,,,,,,,195618.24000021443,195617.94500006363,191166.14,191172.1499999985,191173.084,195617.561,,,,
fixCross,canvas.Screen,2_4_3_1_11_0,2021-01-14T18:32:52.508Z,,,,,,,,,,,,,,,,,,,,,,,,,,,,,,,,,,,,,,,,,,,,,,,,,,,,,,,,,,,,,,,,,,,,,,,,,,,,,,,,,,,,,,,,,,,,,,,,,,,,,,,,,,,,,,,,,,,499.9900000000198,,timeout,,,,healthy,,cucumber.png,,,,,,,,,,,,,,,cucumber,,,,,,,,,,,,,,,,,,,,,,,,,,,,,,,,,,,,,,,,,,,,,,,,,,,,,,,,,false,,,,,,,,,196111.41000012867,196110.607,195610.617,195618.3200001251,195617.561,196117.551,,,,
Rating,html.Form,2_4_3_1_11_1,2021-01-14T18:32:59.647Z,,,,,,,,,,,,,,,,,,,,,,,,,,,,,,,,,,,,,,,,,,,,,,,,,,,,,,,,,,,,,,,,,,,,,,,,,,,,,,,,,,,,,,,,,,,,,,,,,,,,,,,,,,,,,,,,,,,7132.544000024878,,form submission,,,,healthy,,cucumber.png,,,,,,,,,,,,,,,cucumber,,,,,,,,,,,,,,,,,,,,,,,,,,,,,,,,,,,,,,,,,,,,,,,,,,,,,,,,,false,,,,,,,,,203250.31500007026,203250.09500002488,196110.607,196111.49000003934,196117.551,203249.684,,,,11
rating_sequence,flow.Sequence,2_4_3_1_11,2021-01-14T18:32:59.647Z,,,,,,,,,,,,,,,,,,,,,,,,,,,,,,,,,,,,,,,,,,,,,,,,,,,,,,,,,,,,,,,,,,,,,,,,,,,,,,,,,,,,,,,,,,,,,,,,,,,,,,,,,,,,,,,,,,,7632.534000024898,,completion,,,,healthy,,cucumber.png,,,,,,,,,,,,,,,cucumber,,,,,,,,,,,,,,,,,,,,,,,,,,,,,,,,,,,,,,,,,,,,,,,,,,,,,,,,,false,,,,,,,,,203250.94500021078,203250.09500002488,195610.617,195618.29500016756,195617.561,203249.684,,,,
fixCross,canvas.Screen,2_4_3_1_12_0,2021-01-14T18:33:00.140Z,,,,,,,,,,,,,,,,,,,,,,,,,,,,,,,,,,,,,,,,,,,,,,,,,,,,,,,,,,,,,,,,,,,,,,,,,,,,,,,,,,,,,,,,,,,,,,,,,,,,,,,,,,,,,,,,,,,499.9290000000037,,timeout,,,,healthy,,cashew.png,,,,,,,,,,,,,,,cashew,,,,,,,,,,,,,,,,,,,,,,,,,,,,,,,,,,,,,,,,,,,,,,,,,,,,,,,,,false,,,,,,,,,203744.13500004448,203742.669,203242.74,203251.0450000409,203249.684,203749.613,,,,
Rating,html.Form,2_4_3_1_12_1,2021-01-14T18:33:04.810Z,,,,,,,,,,,,,,,,,,,,,,,,,,,,,,,,,,,,,,,,,,,,,,,,,,,,,,,,,,,,,,,,,,,,,,,,,,,,,,,,,,,,,,,,,,,,,,,,,,,,,,,,,,,,,,,,,,,4664.257000047597,,form submission,,,,healthy,,cashew.png,,,,,,,,,,,,,,,cashew,,,,,,,,,,,,,,,,,,,,,,,,,,,,,,,,,,,,,,,,,,,,,,,,,,,,,,,,,false,,,,,,,,,208414.08000001684,208413.8700000476,203742.669,203744.24500018358,203749.613,208416.376,,,,73
rating_sequence,flow.Sequence,2_4_3_1_12,2021-01-14T18:33:04.810Z,,,,,,,,,,,,,,,,,,,,,,,,,,,,,,,,,,,,,,,,,,,,,,,,,,,,,,,,,,,,,,,,,,,,,,,,,,,,,,,,,,,,,,,,,,,,,,,,,,,,,,,,,,,,,,,,,,,5164.186000047601,,completion,,,,healthy,,cashew.png,,,,,,,,,,,,,,,cashew,,,,,,,,,,,,,,,,,,,,,,,,,,,,,,,,,,,,,,,,,,,,,,,,,,,,,,,,,false,,,,,,,,,208414.22500018962,208413.8700000476,203242.74,203251.02000008337,203249.684,208416.376,,,,
fixCross,canvas.Screen,2_4_3_1_13_0,2021-01-14T18:33:05.306Z,,,,,,,,,,,,,,,,,,,,,,,,,,,,,,,,,,,,,,,,,,,,,,,,,,,,,,,,,,,,,,,,,,,,,,,,,,,,,,,,,,,,,,,,,,,,,,,,,,,,,,,,,,,,,,,,,,,500.0660000000207,,timeout,,,,healthy,,carrot.png,,,,,,,,,,,,,,,carrot,,,,,,,,,,,,,,,,,,,,,,,,,,,,,,,,,,,,,,,,,,,,,,,,,,,,,,,,,false,,,,,,,,,208909.9200000055,208909.498,208409.432,208414.31500017643,208416.376,208916.442,,,,
Rating,html.Form,2_4_3_1_13_1,2021-01-14T18:33:11.188Z,,,,,,,,,,,,,,,,,,,,,,,,,,,,,,,,,,,,,,,,,,,,,,,,,,,,,,,,,,,,,,,,,,,,,,,,,,,,,,,,,,,,,,,,,,,,,,,,,,,,,,,,,,,,,,,,,,,5875.423000035604,,form submission,,,,healthy,,carrot.png,,,,,,,,,,,,,,,carrot,,,,,,,,,,,,,,,,,,,,,,,,,,,,,,,,,,,,,,,,,,,,,,,,,,,,,,,,,false,,,,,,,,,214792.03000012785,214791.8650000356,208909.498,208910.01000022516,208916.442,214791.565,,,,31
rating_sequence,flow.Sequence,2_4_3_1_13,2021-01-14T18:33:11.188Z,,,,,,,,,,,,,,,,,,,,,,,,,,,,,,,,,,,,,,,,,,,,,,,,,,,,,,,,,,,,,,,,,,,,,,,,,,,,,,,,,,,,,,,,,,,,,,,,,,,,,,,,,,,,,,,,,,,6375.4890000356245,,completion,,,,healthy,,carrot.png,,,,,,,,,,,,,,,carrot,,,,,,,,,,,,,,,,,,,,,,,,,,,,,,,,,,,,,,,,,,,,,,,,,,,,,,,,,false,,,,,,,,,214792.14000003412,214791.8650000356,208409.432,208414.28500018083,208416.376,214791.565,,,,
fixCross,canvas.Screen,2_4_3_1_14_0,2021-01-14T18:33:11.682Z,,,,,,,,,,,,,,,,,,,,,,,,,,,,,,,,,,,,,,,,,,,,,,,,,,,,,,,,,,,,,,,,,,,,,,,,,,,,,,,,,,,,,,,,,,,,,,,,,,,,,,,,,,,,,,,,,,,499.8880000000063,,timeout,,,,healthy,,edamame.png,,,,,,,,,,,,,,,edamame,,,,,,,,,,,,,,,,,,,,,,,,,,,,,,,,,,,,,,,,,,,,,,,,,,,,,,,,,false,,,,,,,,,215285.42000008747,215284.509,214784.621,214792.21500013955,214791.565,215291.453,,,,
Rating,html.Form,2_4_3_1_14_1,2021-01-14T18:33:17.150Z,,,,,,,,,,,,,,,,,,,,,,,,,,,,,,,,,,,,,,,,,,,,,,,,,,,,,,,,,,,,,,,,,,,,,,,,,,,,,,,,,,,,,,,,,,,,,,,,,,,,,,,,,,,,,,,,,,,5462.362000178284,,form submission,,,,healthy,,edamame.png,,,,,,,,,,,,,,,edamame,,,,,,,,,,,,,,,,,,,,,,,,,,,,,,,,,,,,,,,,,,,,,,,,,,,,,,,,,false,,,,,,,,,220754.0100000333,220753.8150001783,215284.509,215285.62500001863,215291.453,220756.973,,,,24
rating_sequence,flow.Sequence,2_4_3_1_14,2021-01-14T18:33:17.150Z,,,,,,,,,,,,,,,,,,,,,,,,,,,,,,,,,,,,,,,,,,,,,,,,,,,,,,,,,,,,,,,,,,,,,,,,,,,,,,,,,,,,,,,,,,,,,,,,,,,,,,,,,,,,,,,,,,,5962.25000017829,,completion,,,,healthy,,edamame.png,,,,,,,,,,,,,,,edamame,,,,,,,,,,,,,,,,,,,,,,,,,,,,,,,,,,,,,,,,,,,,,,,,,,,,,,,,,false,,,,,,,,,220754.15500020608,220753.8150001783,214784.621,214792.1950002201,214791.565,220756.973,,,,
fixCross,canvas.Screen,2_4_3_1_15_0,2021-01-14T18:33:17.647Z,,,,,,,,,,,,,,,,,,,,,,,,,,,,,,,,,,,,,,,,,,,,,,,,,,,,,,,,,,,,,,,,,,,,,,,,,,,,,,,,,,,,,,,,,,,,,,,,,,,,,,,,,,,,,,,,,,,500.00800000000163,,timeout,,,,healthy,,celery.png,,,,,,,,,,,,,,,celery,,,,,,,,,,,,,,,,,,,,,,,,,,,,,,,,,,,,,,,,,,,,,,,,,,,,,,,,,false,,,,,,,,,221251.06000015512,221250.037,220750.029,220754.23500011675,220756.973,221256.981,,,,
Rating,html.Form,2_4_3_1_15_1,2021-01-14T18:33:20.637Z,,,,,,,,,,,,,,,,,,,,,,,,,,,,,,,,,,,,,,,,,,,,,,,,,,,,,,,,,,,,,,,,,,,,,,,,,,,,,,,,,,,,,,,,,,,,,,,,,,,,,,,,,,,,,,,,,,,2983.74400015609,,form submission,,,,healthy,,celery.png,,,,,,,,,,,,,,,celery,,,,,,,,,,,,,,,,,,,,,,,,,,,,,,,,,,,,,,,,,,,,,,,,,,,,,,,,,false,,,,,,,,,224240.970000159,224240.7250001561,221250.037,221251.14500010386,221256.981,224243.072,,,,0
rating_sequence,flow.Sequence,2_4_3_1_15,2021-01-14T18:33:20.637Z,,,,,,,,,,,,,,,,,,,,,,,,,,,,,,,,,,,,,,,,,,,,,,,,,,,,,,,,,,,,,,,,,,,,,,,,,,,,,,,,,,,,,,,,,,,,,,,,,,,,,,,,,,,,,,,,,,,3483.7520001560915,,completion,,,,healthy,,celery.png,,,,,,,,,,,,,,,celery,,,,,,,,,,,,,,,,,,,,,,,,,,,,,,,,,,,,,,,,,,,,,,,,,,,,,,,,,false,,,,,,,,,224241.1250001751,224240.7250001561,220750.029,220754.21000015922,220756.973,224243.072,,,,
fixCross,canvas.Screen,2_4_3_1_16_0,2021-01-14T18:33:21.133Z,,,,,,,,,,,,,,,,,,,,,,,,,,,,,,,,,,,,,,,,,,,,,,,,,,,,,,,,,,,,,,,,,,,,,,,,,,,,,,,,,,,,,,,,,,,,,,,,,,,,,,,,,,,,,,,,,,,499.954000000027,,timeout,,,,unhealthy,,frie.png,,,,,,,,,,,,,,,frie,,,,,,,,,,,,,,,,,,,,,,,,,,,,,,,,,,,,,,,,,,,,,,,,,,,,,,,,,false,,,,,,,,,224736.96500016376,224736.082,224236.128,224241.2150001619,224243.072,224743.026,,,,
Rating,html.Form,2_4_3_1_16_1,2021-01-14T18:33:27.746Z,,,,,,,,,,,,,,,,,,,,,,,,,,,,,,,,,,,,,,,,,,,,,,,,,,,,,,,,,,,,,,,,,,,,,,,,,,,,,,,,,,,,,,,,,,,,,,,,,,,,,,,,,,,,,,,,,,,6606.794000119495,,form submission,,,,unhealthy,,frie.png,,,,,,,,,,,,,,,frie,,,,,,,,,,,,,,,,,,,,,,,,,,,,,,,,,,,,,,,,,,,,,,,,,,,,,,,,,false,,,,,,,,,231350.00000009313,231349.8200001195,224736.082,224737.79500019737,224743.026,231354.266,,,,90
rating_sequence,flow.Sequence,2_4_3_1_16,2021-01-14T18:33:27.746Z,,,,,,,,,,,,,,,,,,,,,,,,,,,,,,,,,,,,,,,,,,,,,,,,,,,,,,,,,,,,,,,,,,,,,,,,,,,,,,,,,,,,,,,,,,,,,,,,,,,,,,,,,,,,,,,,,,,7106.748000119522,,completion,,,,unhealthy,,frie.png,,,,,,,,,,,,,,,frie,,,,,,,,,,,,,,,,,,,,,,,,,,,,,,,,,,,,,,,,,,,,,,,,,,,,,,,,,false,,,,,,,,,231350.1000001561,231349.8200001195,224236.128,224241.19000020437,224243.072,231354.266,,,,
fixCross,canvas.Screen,2_4_3_1_17_0,2021-01-14T18:33:28.245Z,,,,,,,,,,,,,,,,,,,,,,,,,,,,,,,,,,,,,,,,,,,,,,,,,,,,,,,,,,,,,,,,,,,,,,,,,,,,,,,,,,,,,,,,,,,,,,,,,,,,,,,,,,,,,,,,,,,499.9910000000091,,timeout,,,,unhealthy,,sausage.png,,,,,,,,,,,,,,,salami,,,,,,,,,,,,,,,,,,,,,,,,,,,,,,,,,,,,,,,,,,,,,,,,,,,,,,,,,false,,,,,,,,,231848.345000064,231847.313,231347.322,231350.17000022344,231354.266,231854.257,,,,
Rating,html.Form,2_4_3_1_17_1,2021-01-14T18:33:31.379Z,,,,,,,,,,,,,,,,,,,,,,,,,,,,,,,,,,,,,,,,,,,,,,,,,,,,,,,,,,,,,,,,,,,,,,,,,,,,,,,,,,,,,,,,,,,,,,,,,,,,,,,,,,,,,,,,,,,3128.4530001275416,,form submission,,,,unhealthy,,sausage.png,,,,,,,,,,,,,,,salami,,,,,,,,,,,,,,,,,,,,,,,,,,,,,,,,,,,,,,,,,,,,,,,,,,,,,,,,,false,,,,,,,,,234982.9050002154,234982.71000012755,231847.313,231848.46000000834,231854.257,234993.302,,,,77
rating_sequence,flow.Sequence,2_4_3_1_17,2021-01-14T18:33:31.379Z,,,,,,,,,,,,,,,,,,,,,,,,,,,,,,,,,,,,,,,,,,,,,,,,,,,,,,,,,,,,,,,,,,,,,,,,,,,,,,,,,,,,,,,,,,,,,,,,,,,,,,,,,,,,,,,,,,,3628.4440001275507,,completion,,,,unhealthy,,sausage.png,,,,,,,,,,,,,,,salami,,,,,,,,,,,,,,,,,,,,,,,,,,,,,,,,,,,,,,,,,,,,,,,,,,,,,,,,,false,,,,,,,,,234983.05500019342,234982.71000012755,231347.322,231350.15000007115,231354.266,234993.302,,,,
rating_loop,flow.Loop,2_4_3_1,2021-01-14T18:33:31.379Z,,,,,,,,,,,,,,,,,,,,,,,,,,,,,,,,,,,,,,,,,,,,,,,,,,,,,,,,,,,,,,,,,,,,,,,,,,,,,,,,,,,,,,,,,,,,,,,,,,,,,,,,,,,,,,,,,,,89318.33200012756,,completion,,,,,,,,,,,,,,,,,,,,,,,,,,,,,,,,,,,,,,,,,,,,,,,,,,,,,,,,,,,,,,,,,,,,,,,,,,,,,,false,,,,,,,,,234983.1650000997,234982.71000012755,145650.49,145657.45500009507,145664.378,234993.302,,,,
data_transmission,html.Screen,2_4_3_2,2021-01-14T18:33:31.384Z,,,,,,,,,,,,,,,,,,,,,,,,,,,,,,,,,,,,,,,,,,,,,,,,,,,,,,,,,,,,,,,,,,,,,,,,,,,,,,,,,,,,,,,,,,,,,,,,,,,,,,,,,,,,,,,,,,,NaN,,no compatible backend,,,,,,,,,,,,,,,Transferring data,,,,,,,,,,,,,,,,,,,,,,,,,,,,,,,,,,,,,,,,,,,,,,,,,,,,,,,,,,,,,,,false,,,Please wait a second…,,,,,,234988.21500013582,234988.08500007726,,234983.23000012897,,234993.302,,,,
instructions,html.Screen,2_4_3_3,2021-01-14T18:35:19.982Z,,,,,,,,,,,,,,,,,,,,,,,,,,,,,,,,,,,,,,,,,,,,,,,,,,,,,,,,,,,,,,,,,,,,,,,,,,,,,,,,,,,,,,,,,,,,,,,,,,,,,,,,,,,,,,,,,,,108591.92800008427,,done,,,,,,,,,,,,,,,,,,,,,,,,,,,,,,,,,,,,,,,,,,,,,,,,,,,,,,,,,,,,,,,,,,,,,,,,,,,,,,false,,,,,,,,,343585.3650001809,343585.23000008427,234979.414,234988.33500011824,234993.302,343591.316,,,,
Q1,html.Screen,2_4_3_4_0,2021-01-14T18:35:28.340Z,,,,,,,,,,,,,,,,,,,,,,,,,,,,,,,,,,,,,,,,,,,,,,,,,,,,,,,,,,,,,,,,,,,,,,,,,,,,,,,,,,,,,,,,,,,,,,,,,,,,,,,,,,,,,,,false,input_Q1==3,,,8350.544000137248,,response,,,,,,,,,,,,,,,,,,,,,,,,,Q1_i3,Q1_i2,Q1_i1,Q1_i4,3,2,1,4,correct,false,false,false,,,,,,,,,,,,,,,,,,,,,,,,,,,,,,,,,,,,,,,,,click #Q1_i3,false,,,,,,,,,351943.67500022054,351941.86000013724,343584.372,343585.5000000447,343591.316,351946.236,,,,
Q1_correct,html.Screen,2_4_3_4_1,2021-01-14T18:35:30.225Z,,,,,,,,,,,,,,,,,,,,,,,,,,,,,,,,,,,,,,,,,,,,,,,,,,,,,,,,,,,,,,,,,,,,,,,,,,,,,,,,,,,,,,,,,,,,,,,,,,,,,,,,,,,,,,,,,,,1881.1940000630566,,response,,,,,,,,,,,,,,,,,,,,,,,,,,,,,,,,,,,,,,,,,,,,,,,,,,,,,,,,,,,,,,,,,,,,,,,,,,,,,keypress,false,,,,,,,,,353828.2650001347,353827.43000006303,351939.292,351943.80500004627,351946.236,353828.202,,,,
Q2,html.Screen,2_4_3_4_2,2021-01-14T18:35:38.937Z,,,,,,,,,,,,,,,,,,,,,,,,,,,,,,,,,,,,,,,,,,,,,,,,,,,,,,,,,,,,,,,,,,,,,,,,,,,,,,,,,,,,,,,,,,,,,,,,,,,,,,,,,,,,,,,,,,,8711.608000220323,,response,,,,,,,,,,,,,,,,,,,,,,,,,,,,,,,,,,,,,Q2_i1,Q2_i2,Q2_i3,Option 1,Option 2,Same amount,correct,opt2,same,,,,,,,,,,,,,,,,,,,,,,,,,,,,,,,,click #Q2_i1,false,,,,,,,,,362540.52000003867,362539.8100002203,353821.258,353828.3550001215,353828.202,362543.705,,,,
Q2_correct,html.Screen,2_4_3_4_3,2021-01-14T18:35:40.546Z,,,,,,,,,,,,,,,,,,,,,,,,,,,,,,,,,,,,,,,,,,,,,,,,,,,,,,,,,,,,,,,,,,,,,,,,,,,,,,,,,,,,,,,,,,,,,,,,,,,,,,,,,,,,,,,,,,,1604.7250000592903,,response,,,,,,,,,,,,,,,,,,,,,,,,,,,,,,,,,,,,,,,,,,,,,,,,,,,,,,,,,,,,,,,,,,,,,,,,,,,,,keypress,false,,,,,,,,,364149.2600000929,364148.4300000593,362536.761,362540.6400000211,362543.705,364154.778,,,,
Q4,html.Screen,2_4_3_4_4,2021-01-14T18:35:52.552Z,,,,,,,,,,,,,,,,,,,,,,,,,,,,,,,,,,,,,,,,,,,,,,,,,,,,,,,,,,,,,,,,,,,,,,,,,,,,,,,,,,,,,,,,,,,,,,,,,,,,,,,,,,,,,,,,,,,12000.002000215405,,response,,,,,,,,,,,,,,,,,,,,,,,,,,,,,,,,,,,,,,,,,,,,,,Q4_i2,Q4_i1,Q4_i3,Q4_i4,Indicate the number of food items in each snack option,Press the arrow key that corresponds with the snack option I prefer,Press the arrow key that corresponds with the snack option with more food items,Press the space key,indicate,correct,morefood,pressspace,,,,,,,,,,,,,,,,,,,,click #Q4_i1,false,,,,,,,,,376155.75500018895,376154.7800002154,364147.834,364149.33500019833,364154.778,376162.051,,,,
Q4_correct,html.Screen,2_4_3_4_5,2021-01-14T18:35:53.899Z,,,,,,,,,,,,,,,,,,,,,,,,,,,,,,,,,,,,,,,,,,,,,,,,,,,,,,,,,,,,,,,,,,,,,,,,,,,,,,,,,,,,,,,,,,,,,,,,,,,,,,,,,,,,,,,,,,,1339.7640000833198,,response,,,,,,,,,,,,,,,,,,,,,,,,,,,,,,,,,,,,,,,,,,,,,,,,,,,,,,,,,,,,,,,,,,,,,,,,,,,,,keypress,false,,,,,,,,,377502.75000021793,377501.8150000833,376155.107,376155.9000001289,376162.051,377502.297,,,,
Q5,html.Screen,2_4_3_4_6,2021-01-14T18:36:02.955Z,,,,,,,,,,,,,,,,,,,,,,,,,,,,,,,,,,,,,,,,,,,,,,,,,,,,,,,,,,,,,,,,,,,,,,,,,,,,,,,,,,,,,,,,,,,,,,,,,,,,,,,,,,,,,,,,,,,9055.513000143925,,response,,,,,,,,,,,,,,,,,,,,,,,,,,,,,,,,,,,,,,,,,,,,,,,,,,,,,,,,,,Q5_i3,Q5_i2,Q5_i1,Q5_i4,There are more slices of kiwi in snack Option 1,There are more pieces of chocolate in snack Option 2,Snack Option 2 has been chosen,Snack Option 1 has been chosen,morekiwi1,morechoc2,correct,chose1,,,,,,,,click #Q5_i1,false,,,,,,,,,386558.67000017315,386557.81000014395,377495.353,377502.8250000905,377502.297,386565.113,,,,
Q5_correct,html.Screen,2_4_3_4_7,2021-01-14T18:36:04.207Z,,,,,,,,,,,,,,,,,,,,,,,,,,,,,,,,,,,,,,,,,,,,,,,,,,,,,,,,,,,,,,,,,,,,,,,,,,,,,,,,,,,,,,,,,,,,,,,,,,,,,,,,,,,,,,,,,,,1244.7120001203148,,response,,,,,,,,,,,,,,,,,,,,,,,,,,,,,,,,,,,,,,,,,,,,,,,,,,,,,,,,,,,,,,,,,,,,,,,,,,,,,keypress,false,,,,,,,,,387810.4450001847,387809.8250001203,386558.169,386558.8200001512,386565.113,387814.873,,,,
practice_sequence,flow.Sequence,2_4_3_4,2021-01-14T18:36:04.207Z,,,,,,,,,,,,,,,,,,,,,,,,,,,,,,,,,,,,,,,,,,,,,,,,,,,,,,,,,,,,,,,,,,,,,,,,,,,,,,,,,,,,,,,,,,,,,,,,,,,,,,,,,,,,,,,,,,,44218.509000120335,,completion,,,,,,,,,,,,,,,,,,,,,,,,,,,,,,,,,,,,,,,,,,,,,,,,,,,,,,,,,,,,,,,,,,,,,,,,,,,,,,false,,,,,,,,,387810.5650001671,387809.8250001203,343584.372,343585.4700000491,343591.316,387814.873,,,,
final_instru,html.Screen,2_4_3_5,2021-01-14T18:36:46.917Z,,,,,,,,,,,,,,,,,,,,,,,,,,,,,,,,,,,,,,,,,,,,,,,,,,,,,,,,,,,,,,,,,,,,,,,,,,,,,,,,,,,,,,,,,,,,,,,,,,,,,,,,,,,,,,,,,,,42706.077000034624,,done,,,,,,,,,,,,,,,,,,,,,,,,,,,,,,,,,,,,,,,,,,,,,,,,,,,,,,,,,,,,,,,,,,,,,,,,,,,,,,false,,,,,,,,,430521.04500005953,430520.95000003465,387807.929,387810.62000012025,387814.873,430522.545,,,,
blank_screen,canvas.Screen,2_4_3_6_0,2021-01-14T18:36:48.914Z,,,,,,,,,,,,,,,,,,,,,,,,,,,,,,,,,,,,,,,,,,,,,,,,,,,,,,,,,,,,,,,,,,,,,,,,,,,,,,,,,,,,,,,,,,,,,,,,,,,,,,,,,,,,,,,,,,,2015.2030000000377,,timeout,,,,,,,,,,,,,,,,,,,,,,,,,,,,,,,,,,,,,,,,,,,,,,,,,,,,,,,,,,,,,,,,,,,,,,,,,,,,,,false,,,,,,,,,432517.2550000716,432516.916,430515.601,430521.15000016056,430522.545,432537.748,,,,
fixCross,canvas.Screen,2_4_3_6_1_0_0_0_0_0_0,2021-01-14T18:36:49.183Z,,,blank.png,blank.png,blank.png,blank.png,blank.png,blank.png,blank.png,"[""chips.png""]",blank.png,blank.png,blank.png,blank.png,blank.png,,,,,,,,,,,,,,,,,,,,,,,,,,,,,"[""chips.png""]","[""cashew.png""]",PB18.png,,,,,,,,,,,0,6,"[""cashew.png""]","[""cashew.png""]","[""cashew.png""]","[""cashew.png""]","[""cashew.png""]","[""cashew.png""]",blank.png,PB18.png,PB16.png,"[""cashew.png""]","[""cashew.png""]","[""cashew.png""]","[""cashew.png""]","[""cashew.png""]","[""cashew.png""]","[""cashew.png""]","[""cashew.png""]","[""cashew.png""]","[""cashew.png""]","[""cashew.png""]",blank.png,1,"[""chips.png""]",blank.png,blank.png,blank.png,5,"[""cashew.png""]","[""cashew.png""]","[""cashew.png""]","[""cashew.png""]","[""cashew.png""]",blank.png,PB16.png,,,,,,,,,,,1,,,,,,,,,,,,534.7660000000033,,timeout,,,,,,,,,,,,,4,,,,,,,,,,,,,,,,,,,,,,,,,,,,,,,,,,,,,,,,,,,,,,,,,,,,,,,,,"[""cashew.png""]","[""chips.png""]",,,,1,,,false,,1,,,,,,,432787.1650001034,432780.866,432516.916,432538.43499999493,432537.748,433072.514,1,,,
timeout,canvas.Screen,2_4_3_6_1_0_0_0_0_0_1,2021-01-14T18:36:49.963Z,,,blank.png,blank.png,blank.png,blank.png,blank.png,blank.png,blank.png,"[""chips.png""]",blank.png,blank.png,blank.png,blank.png,blank.png,,,,,,,,,,,,,,,,,,,,,,,,,,,,,"[""chips.png""]","[""cashew.png""]",PB18.png,,,,,,,,,,,0,6,"[""cashew.png""]","[""cashew.png""]","[""cashew.png""]","[""cashew.png""]","[""cashew.png""]","[""cashew.png""]",blank.png,PB18.png,PB16.png,"[""cashew.png""]","[""cashew.png""]","[""cashew.png""]","[""cashew.png""]","[""cashew.png""]","[""cashew.png""]","[""cashew.png""]","[""cashew.png""]","[""cashew.png""]","[""cashew.png""]","[""cashew.png""]",blank.png,1,"[""chips.png""]",blank.png,blank.png,blank.png,5,"[""cashew.png""]","[""cashew.png""]","[""cashew.png""]","[""cashew.png""]","[""cashew.png""]",blank.png,PB16.png,,,,,,,,,,,1,,,,,,,,,,,,826.4919999999693,,timeout,,,,,,,,,,,,,4,,,,,,,,,,,,,,,,,,,,,,,,,,,,,,,,,,,,,,,,,,,,,,,,,,,,,,,,,"[""cashew.png""]","[""chips.png""]",,,,1,,,false,,1,,,,,,,433566.55000010505,433565.694,432780.866,433123.86000016704,433072.514,433899.006,,,,
choice,canvas.Screen,2_4_3_6_1_0_0_0_0_0_2,2021-01-14T18:36:52.412Z,,,blank.png,blank.png,blank.png,blank.png,blank.png,blank.png,blank.png,"[""chips.png""]",blank.png,blank.png,blank.png,blank.png,blank.png,,,,,,,,,,,,,,,,,,,,,,,,,,,,,"[""chips.png""]","[""cashew.png""]",PB18.png,,,,,,,,,,,0,6,"[""cashew.png""]","[""cashew.png""]","[""cashew.png""]","[""cashew.png""]","[""cashew.png""]","[""cashew.png""]",blank.png,PB18.png,PB16.png,"[""cashew.png""]","[""cashew.png""]","[""cashew.png""]","[""cashew.png""]","[""cashew.png""]","[""cashew.png""]","[""cashew.png""]","[""cashew.png""]","[""cashew.png""]","[""cashew.png""]","[""cashew.png""]",blank.png,1,"[""chips.png""]",blank.png,blank.png,blank.png,5,"[""cashew.png""]","[""cashew.png""]","[""cashew.png""]","[""cashew.png""]","[""cashew.png""]",blank.png,PB16.png,,,,,,,,,,,1,,,,,,,,,,,,2115.8340000762255,,response,,,,,,,,,,,,,4,,,,,,,,,,,,,,,,,,,,,,,,,,,,,,,,,,,,,,,,,,,,,,,,,,,,,,,,,"[""cashew.png""]","[""chips.png""]",,,,1,right,keydown(ArrowRight),false,,1,,,,,,,436015.43500018306,436014.8400000762,433565.694,433906.2100001611,433899.006,436364.152,,1,,
square,canvas.Screen,2_4_3_6_1_0_0_0_0_0_3,2021-01-14T18:36:53.755Z,,,blank.png,blank.png,blank.png,blank.png,blank.png,blank.png,blank.png,"[""chips.png""]",blank.png,blank.png,blank.png,blank.png,blank.png,,,,,,,,,,,,,,,,,,,,,,,,,,,,,"[""chips.png""]","[""cashew.png""]",PB18.png,,,,,,,,,,,0,6,"[""cashew.png""]","[""cashew.png""]","[""cashew.png""]","[""cashew.png""]","[""cashew.png""]","[""cashew.png""]",blank.png,PB18.png,PB16.png,"[""cashew.png""]","[""cashew.png""]","[""cashew.png""]","[""cashew.png""]","[""cashew.png""]","[""cashew.png""]","[""cashew.png""]","[""cashew.png""]","[""cashew.png""]","[""cashew.png""]","[""cashew.png""]",blank.png,1,"[""chips.png""]",blank.png,blank.png,blank.png,5,"[""cashew.png""]","[""cashew.png""]","[""cashew.png""]","[""cashew.png""]","[""cashew.png""]",blank.png,PB16.png,,,,,,,,,,,1,,#808080,#33ff3f,,,,,,,,,1000.1439999999711,,timeout,,,,,,,,,,,,,4,,,,,,,,,,,,,,,,,,,,,,,,,,,,,,,,,,,,,,,,,,,,,,,,,,,,,,,,,"[""cashew.png""]","[""chips.png""]",,,,1,,,false,,1,,,,,white,black,437358.35500014946,437357.352,436336.376,436338.73499999754,436364.152,437364.296,,,,
ITI_late,canvas.Screen,2_4_3_6_1_0_0_0_0_0_4,2021-01-14T18:36:54.504Z,,,blank.png,blank.png,blank.png,blank.png,blank.png,blank.png,blank.png,"[""chips.png""]",blank.png,blank.png,blank.png,blank.png,blank.png,,,,,,,,,,,,,,,,,,,,,,,,,,,,,"[""chips.png""]","[""cashew.png""]",PB18.png,,,,,,,,,,,0,6,"[""cashew.png""]","[""cashew.png""]","[""cashew.png""]","[""cashew.png""]","[""cashew.png""]","[""cashew.png""]",blank.png,PB18.png,PB16.png,"[""cashew.png""]","[""cashew.png""]","[""cashew.png""]","[""cashew.png""]","[""cashew.png""]","[""cashew.png""]","[""cashew.png""]","[""cashew.png""]","[""cashew.png""]","[""cashew.png""]","[""cashew.png""]",blank.png,1,"[""chips.png""]",blank.png,blank.png,blank.png,5,"[""cashew.png""]","[""cashew.png""]","[""cashew.png""]","[""cashew.png""]","[""cashew.png""]",blank.png,PB16.png,,,,,,,,,,,1,,,,,,,,,,,,749.9550000000163,,timeout,,,,,,,,,,,,white,4,,,,,,,,,,,,,,,,,,,,,,,,,,,,,,,,,,,,,,,,,,,,,,,,,,,,,,,,,"[""cashew.png""]","[""chips.png""]",,,,1,,,false,,1,,,,,,,438107.98500012606,438107.307,437357.352,437359.5600000117,437364.296,438114.251,,,,
choice_sequence,flow.Sequence,2_4_3_6_1_0_0_0_0_0,2021-01-14T18:36:54.505Z,,,blank.png,blank.png,blank.png,blank.png,blank.png,blank.png,blank.png,"[""chips.png""]",blank.png,blank.png,blank.png,blank.png,blank.png,,,,,,,,,,,,,,,,,,,,,,,,,,,,,"[""chips.png""]","[""cashew.png""]",PB18.png,,,,,,,,,,,0,6,"[""cashew.png""]","[""cashew.png""]","[""cashew.png""]","[""cashew.png""]","[""cashew.png""]","[""cashew.png""]",blank.png,PB18.png,PB16.png,"[""cashew.png""]","[""cashew.png""]","[""cashew.png""]","[""cashew.png""]","[""cashew.png""]","[""cashew.png""]","[""cashew.png""]","[""cashew.png""]","[""cashew.png""]","[""cashew.png""]","[""cashew.png""]",blank.png,1,"[""chips.png""]",blank.png,blank.png,blank.png,5,"[""cashew.png""]","[""cashew.png""]","[""cashew.png""]","[""cashew.png""]","[""cashew.png""]",blank.png,PB16.png,,,,,,,,,,,1,,,,,,,,,,,,5569.55899999995,,completion,,,,,,,,,,,,,4,,,,,,,,,,,,,,,,,,,,,,,,,,,,,,,,,,,,,,,,,,,,,,,,,,,,,,,,,"[""cashew.png""]","[""chips.png""]",,,,1,,,false,,1,,,,,,,438108.34000003524,438107.307,432516.916,432537.4800001737,432537.748,438114.251,,,,
fixCross,canvas.Screen,2_4_3_6_1_0_0_0_0_1_0,2021-01-14T18:36:54.851Z,,,blank.png,"[""chips.png""]",blank.png,blank.png,blank.png,blank.png,blank.png,blank.png,blank.png,blank.png,blank.png,blank.png,blank.png,,,,,,,,,,,,,,,,,,,,,,,,,,,,,"[""chips.png""]","[""cashew.png""]",PB14.png,,,,,,,,,,,0,6,"[""cashew.png""]","[""cashew.png""]","[""cashew.png""]","[""cashew.png""]","[""cashew.png""]","[""cashew.png""]",blank.png,PB18.png,PB18.png,"[""cashew.png""]","[""cashew.png""]","[""cashew.png""]",blank.png,blank.png,blank.png,"[""cashew.png""]","[""cashew.png""]","[""cashew.png""]","[""cashew.png""]","[""cashew.png""]","[""cashew.png""]",1,"[""chips.png""]",blank.png,blank.png,blank.png,3,"[""cashew.png""]","[""cashew.png""]","[""cashew.png""]",blank.png,blank.png,blank.png,PB14.png,,,,,,,,,,,1,,,,,,,,,,,,638.9150000000373,,timeout,,,,,,,,,,,,,3,,,,,,,,,,,,,,,,,,,,,,,,,,,,,,,,,,,,,,,,,,,,,,,,,,,,,,,,,"[""cashew.png""]","[""chips.png""]",,,,1,,,false,,1,,,,,,,438455.0900000613,438454.574,438107.307,438111.6050002165,438114.251,438753.166,2,,,
timeout,canvas.Screen,2_4_3_6_1_0_0_0_0_1_1,2021-01-14T18:36:55.644Z,,,blank.png,"[""chips.png""]",blank.png,blank.png,blank.png,blank.png,blank.png,blank.png,blank.png,blank.png,blank.png,blank.png,blank.png,,,,,,,,,,,,,,,,,,,,,,,,,,,,,"[""chips.png""]","[""cashew.png""]",PB14.png,,,,,,,,,,,0,6,"[""cashew.png""]","[""cashew.png""]","[""cashew.png""]","[""cashew.png""]","[""cashew.png""]","[""cashew.png""]",blank.png,PB18.png,PB18.png,"[""cashew.png""]","[""cashew.png""]","[""cashew.png""]",blank.png,blank.png,blank.png,"[""cashew.png""]","[""cashew.png""]","[""cashew.png""]","[""cashew.png""]","[""cashew.png""]","[""cashew.png""]",1,"[""chips.png""]",blank.png,blank.png,blank.png,3,"[""cashew.png""]","[""cashew.png""]","[""cashew.png""]",blank.png,blank.png,blank.png,PB14.png,,,,,,,,,,,1,,,,,,,,,,,,812.5319999999483,,timeout,,,,,,,,,,,,,3,,,,,,,,,,,,,,,,,,,,,,,,,,,,,,,,,,,,,,,,,,,,,,,,,,,,,,,,,"[""cashew.png""]","[""chips.png""]",,,,1,,,false,,1,,,,,,,439247.5450001657,439246.274,438454.574,438756.70500006527,438753.166,439565.698,,,,
choice,canvas.Screen,2_4_3_6_1_0_0_0_0_1_2,2021-01-14T18:36:58.040Z,,,blank.png,"[""chips.png""]",blank.png,blank.png,blank.png,blank.png,blank.png,blank.png,blank.png,blank.png,blank.png,blank.png,blank.png,,,,,,,,,,,,,,,,,,,,,,,,,,,,,"[""chips.png""]","[""cashew.png""]",PB14.png,,,,,,,,,,,0,6,"[""cashew.png""]","[""cashew.png""]","[""cashew.png""]","[""cashew.png""]","[""cashew.png""]","[""cashew.png""]",blank.png,PB18.png,PB18.png,"[""cashew.png""]","[""cashew.png""]","[""cashew.png""]",blank.png,blank.png,blank.png,"[""cashew.png""]","[""cashew.png""]","[""cashew.png""]","[""cashew.png""]","[""cashew.png""]","[""cashew.png""]",1,"[""chips.png""]",blank.png,blank.png,blank.png,3,"[""cashew.png""]","[""cashew.png""]","[""cashew.png""]",blank.png,blank.png,blank.png,PB14.png,,,,,,,,,,,1,,,,,,,,,,,,2077.0020002004458,,response,,,,,,,,,,,,,3,,,,,,,,,,,,,,,,,,,,,,,,,,,,,,,,,,,,,,,,,,,,,,,,,,,,,,,,,"[""cashew.png""]","[""chips.png""]",,,,1,left,keydown(ArrowLeft),false,,1,,,,,,,441644.1750000231,441642.7000002004,439246.274,439550.9000001475,439565.698,441926.707,,2,,
square,canvas.Screen,2_4_3_6_1_0_0_0_0_1_3,2021-01-14T18:36:59.317Z,,,blank.png,"[""chips.png""]",blank.png,blank.png,blank.png,blank.png,blank.png,blank.png,blank.png,blank.png,blank.png,blank.png,blank.png,,,,,,,,,,,,,,,,,,,,,,,,,,,,,"[""chips.png""]","[""cashew.png""]",PB14.png,,,,,,,,,,,0,6,"[""cashew.png""]","[""cashew.png""]","[""cashew.png""]","[""cashew.png""]","[""cashew.png""]","[""cashew.png""]",blank.png,PB18.png,PB18.png,"[""cashew.png""]","[""cashew.png""]","[""cashew.png""]",blank.png,blank.png,blank.png,"[""cashew.png""]","[""cashew.png""]","[""cashew.png""]","[""cashew.png""]","[""cashew.png""]","[""cashew.png""]",1,"[""chips.png""]",blank.png,blank.png,blank.png,3,"[""cashew.png""]","[""cashew.png""]","[""cashew.png""]",blank.png,blank.png,blank.png,PB14.png,,,,,,,,,,,1,,#33ff3f,#808080,,,,,,,,,1000.2930000000051,,timeout,,,,,,,,,,,,,3,,,,,,,,,,,,,,,,,,,,,,,,,,,,,,,,,,,,,,,,,,,,,,,,,,,,,,,,,"[""cashew.png""]","[""chips.png""]",,,,1,,,false,,1,,,,,black,white,442921.0900000762,442920.056,441919.763,441925.3000000026,441926.707,442927,,,,
ITI_late,canvas.Screen,2_4_3_6_1_0_0_0_0_1_4,2021-01-14T18:37:00.567Z,,,blank.png,"[""chips.png""]",blank.png,blank.png,blank.png,blank.png,blank.png,blank.png,blank.png,blank.png,blank.png,blank.png,blank.png,,,,,,,,,,,,,,,,,,,,,,,,,,,,,"[""chips.png""]","[""cashew.png""]",PB14.png,,,,,,,,,,,0,6,"[""cashew.png""]","[""cashew.png""]","[""cashew.png""]","[""cashew.png""]","[""cashew.png""]","[""cashew.png""]",blank.png,PB18.png,PB18.png,"[""cashew.png""]","[""cashew.png""]","[""cashew.png""]",blank.png,blank.png,blank.png,"[""cashew.png""]","[""cashew.png""]","[""cashew.png""]","[""cashew.png""]","[""cashew.png""]","[""cashew.png""]",1,"[""chips.png""]",blank.png,blank.png,blank.png,3,"[""cashew.png""]","[""cashew.png""]","[""cashew.png""]",blank.png,blank.png,blank.png,PB14.png,,,,,,,,,,,1,,,,,,,,,,,,1249.8009999999776,,timeout,,,,,,,,,,,,white,3,,,,,,,,,,,,,,,,,,,,,,,,,,,,,,,,,,,,,,,,,,,,,,,,,,,,,,,,,"[""cashew.png""]","[""chips.png""]",,,,1,,,false,,1,,,,,,,444171.17500002496,444169.857,442920.056,442922.2800000571,442927,444176.801,,,,
choice_sequence,flow.Sequence,2_4_3_6_1_0_0_0_0_1,2021-01-14T18:37:00.568Z,,,blank.png,"[""chips.png""]",blank.png,blank.png,blank.png,blank.png,blank.png,blank.png,blank.png,blank.png,blank.png,blank.png,blank.png,,,,,,,,,,,,,,,,,,,,,,,,,,,,,"[""chips.png""]","[""cashew.png""]",PB14.png,,,,,,,,,,,0,6,"[""cashew.png""]","[""cashew.png""]","[""cashew.png""]","[""cashew.png""]","[""cashew.png""]","[""cashew.png""]",blank.png,PB18.png,PB18.png,"[""cashew.png""]","[""cashew.png""]","[""cashew.png""]",blank.png,blank.png,blank.png,"[""cashew.png""]","[""cashew.png""]","[""cashew.png""]","[""cashew.png""]","[""cashew.png""]","[""cashew.png""]",1,"[""chips.png""]",blank.png,blank.png,blank.png,3,"[""cashew.png""]","[""cashew.png""]","[""cashew.png""]",blank.png,blank.png,blank.png,PB14.png,,,,,,,,,,,1,,,,,,,,,,,,6055.606000000029,,completion,,,,,,,,,,,,,3,,,,,,,,,,,,,,,,,,,,,,,,,,,,,,,,,,,,,,,,,,,,,,,,,,,,,,,,,"[""cashew.png""]","[""chips.png""]",,,,1,,,false,,1,,,,,,,444171.5250001289,444169.857,438107.307,438110.9900001902,438114.251,444176.801,,,,
fixCross,canvas.Screen,2_4_3_6_1_0_0_0_0_2_0,2021-01-14T18:37:00.866Z,,,blank.png,blank.png,blank.png,blank.png,blank.png,blank.png,blank.png,"[""chips.png""]",blank.png,blank.png,blank.png,blank.png,blank.png,,,,,,,,,,,,,,,,,,,,,,,,,,,,,"[""chips.png""]","[""cashew.png""]",PB18.png,,,,,,,,,,,0,6,"[""cashew.png""]","[""cashew.png""]","[""cashew.png""]","[""cashew.png""]","[""cashew.png""]","[""cashew.png""]",blank.png,PB18.png,PB15.png,"[""cashew.png""]","[""cashew.png""]","[""cashew.png""]","[""cashew.png""]","[""cashew.png""]","[""cashew.png""]","[""cashew.png""]","[""cashew.png""]","[""cashew.png""]","[""cashew.png""]",blank.png,blank.png,1,"[""chips.png""]",blank.png,blank.png,blank.png,4,"[""cashew.png""]","[""cashew.png""]","[""cashew.png""]","[""cashew.png""]",blank.png,blank.png,PB15.png,,,,,,,,,,,1,,,,,,,,,,,,597.3640000000014,,timeout,,,,,,,,,,,,,4,,,,,,,,,,,,,,,,,,,,,,,,,,,,,,,,,,,,,,,,,,,,,,,,,,,,,,,,,"[""cashew.png""]","[""chips.png""]",,,,1,,,false,,1,,,,,,,444469.86500010826,444468.629,444169.857,444174.8850001022,444176.801,444774.165,3,,,
timeout,canvas.Screen,2_4_3_6_1_0_0_0_0_2_1,2021-01-14T18:37:01.664Z,,,blank.png,blank.png,blank.png,blank.png,blank.png,blank.png,blank.png,"[""chips.png""]",blank.png,blank.png,blank.png,blank.png,blank.png,,,,,,,,,,,,,,,,,,,,,,,,,,,,,"[""chips.png""]","[""cashew.png""]",PB18.png,,,,,,,,,,,0,6,"[""cashew.png""]","[""cashew.png""]","[""cashew.png""]","[""cashew.png""]","[""cashew.png""]","[""cashew.png""]",blank.png,PB18.png,PB15.png,"[""cashew.png""]","[""cashew.png""]","[""cashew.png""]","[""cashew.png""]","[""cashew.png""]","[""cashew.png""]","[""cashew.png""]","[""cashew.png""]","[""cashew.png""]","[""cashew.png""]",blank.png,blank.png,1,"[""chips.png""]",blank.png,blank.png,blank.png,4,"[""cashew.png""]","[""cashew.png""]","[""cashew.png""]","[""cashew.png""]",blank.png,blank.png,PB15.png,,,,,,,,,,,1,,,,,,,,,,,,819.4650000000256,,timeout,,,,,,,,,,,,,4,,,,,,,,,,,,,,,,,,,,,,,,,,,,,,,,,,,,,,,,,,,,,,,,,,,,,,,,,"[""cashew.png""]","[""chips.png""]",,,,1,,,false,,1,,,,,,,445267.69500016235,445267.262,444468.629,444780.1950001158,444774.165,445593.63,,,,
choice,canvas.Screen,2_4_3_6_1_0_0_0_0_2_2,2021-01-14T18:37:04.993Z,,,blank.png,blank.png,blank.png,blank.png,blank.png,blank.png,blank.png,"[""chips.png""]",blank.png,blank.png,blank.png,blank.png,blank.png,,,,,,,,,,,,,,,,,,,,,,,,,,,,,"[""chips.png""]","[""cashew.png""]",PB18.png,,,,,,,,,,,0,6,"[""cashew.png""]","[""cashew.png""]","[""cashew.png""]","[""cashew.png""]","[""cashew.png""]","[""cashew.png""]",blank.png,PB18.png,PB15.png,"[""cashew.png""]","[""cashew.png""]","[""cashew.png""]","[""cashew.png""]","[""cashew.png""]","[""cashew.png""]","[""cashew.png""]","[""cashew.png""]","[""cashew.png""]","[""cashew.png""]",blank.png,blank.png,1,"[""chips.png""]",blank.png,blank.png,blank.png,4,"[""cashew.png""]","[""cashew.png""]","[""cashew.png""]","[""cashew.png""]",blank.png,blank.png,PB15.png,,,,,,,,,,,1,,,,,,,,,,,,3002.090000099386,,response,,,,,,,,,,,,,4,,,,,,,,,,,,,,,,,,,,,,,,,,,,,,,,,,,,,,,,,,,,,,,,,,,,,,,,,"[""cashew.png""]","[""chips.png""]",,,,1,right,keydown(ArrowRight),false,,1,,,,,,,448596.400000155,448595.7200000994,445267.262,445587.6250001602,445593.63,448898.947,,3,,
square,canvas.Screen,2_4_3_6_1_0_0_0_0_2_3,2021-01-14T18:37:06.289Z,,,blank.png,blank.png,blank.png,blank.png,blank.png,blank.png,blank.png,"[""chips.png""]",blank.png,blank.png,blank.png,blank.png,blank.png,,,,,,,,,,,,,,,,,,,,,,,,,,,,,"[""chips.png""]","[""cashew.png""]",PB18.png,,,,,,,,,,,0,6,"[""cashew.png""]","[""cashew.png""]","[""cashew.png""]","[""cashew.png""]","[""cashew.png""]","[""cashew.png""]",blank.png,PB18.png,PB15.png,"[""cashew.png""]","[""cashew.png""]","[""cashew.png""]","[""cashew.png""]","[""cashew.png""]","[""cashew.png""]","[""cashew.png""]","[""cashew.png""]","[""cashew.png""]","[""cashew.png""]",blank.png,blank.png,1,"[""chips.png""]",blank.png,blank.png,blank.png,4,"[""cashew.png""]","[""cashew.png""]","[""cashew.png""]","[""cashew.png""]",blank.png,blank.png,PB15.png,,,,,,,,,,,1,,#808080,#33ff3f,,,,,,,,,1000.234999999986,,timeout,,,,,,,,,,,,,4,,,,,,,,,,,,,,,,,,,,,,,,,,,,,,,,,,,,,,,,,,,,,,,,,,,,,,,,,"[""cashew.png""]","[""chips.png""]",,,,1,,,false,,1,,,,,white,black,449893.07500002906,449892.238,448892.003,448894.1050001886,448898.947,449899.182,,,,
ITI_late,canvas.Screen,2_4_3_6_1_0_0_0_0_2_4,2021-01-14T18:37:07.539Z,,,blank.png,blank.png,blank.png,blank.png,blank.png,blank.png,blank.png,"[""chips.png""]",blank.png,blank.png,blank.png,blank.png,blank.png,,,,,,,,,,,,,,,,,,,,,,,,,,,,,"[""chips.png""]","[""cashew.png""]",PB18.png,,,,,,,,,,,0,6,"[""cashew.png""]","[""cashew.png""]","[""cashew.png""]","[""cashew.png""]","[""cashew.png""]","[""cashew.png""]",blank.png,PB18.png,PB15.png,"[""cashew.png""]","[""cashew.png""]","[""cashew.png""]","[""cashew.png""]","[""cashew.png""]","[""cashew.png""]","[""cashew.png""]","[""cashew.png""]","[""cashew.png""]","[""cashew.png""]",blank.png,blank.png,1,"[""chips.png""]",blank.png,blank.png,blank.png,4,"[""cashew.png""]","[""cashew.png""]","[""cashew.png""]","[""cashew.png""]",blank.png,blank.png,PB15.png,,,,,,,,,,,1,,,,,,,,,,,,1249.9890000000014,,timeout,,,,,,,,,,,,white,4,,,,,,,,,,,,,,,,,,,,,,,,,,,,,,,,,,,,,,,,,,,,,,,,,,,,,,,,,"[""cashew.png""]","[""chips.png""]",,,,1,,,false,,1,,,,,,,451143.1600002106,451142.227,449892.238,449894.1950001754,449899.182,451149.171,,,,
choice_sequence,flow.Sequence,2_4_3_6_1_0_0_0_0_2,2021-01-14T18:37:07.540Z,,,blank.png,blank.png,blank.png,blank.png,blank.png,blank.png,blank.png,"[""chips.png""]",blank.png,blank.png,blank.png,blank.png,blank.png,,,,,,,,,,,,,,,,,,,,,,,,,,,,,"[""chips.png""]","[""cashew.png""]",PB18.png,,,,,,,,,,,0,6,"[""cashew.png""]","[""cashew.png""]","[""cashew.png""]","[""cashew.png""]","[""cashew.png""]","[""cashew.png""]",blank.png,PB18.png,PB15.png,"[""cashew.png""]","[""cashew.png""]","[""cashew.png""]","[""cashew.png""]","[""cashew.png""]","[""cashew.png""]","[""cashew.png""]","[""cashew.png""]","[""cashew.png""]","[""cashew.png""]",blank.png,blank.png,1,"[""chips.png""]",blank.png,blank.png,blank.png,4,"[""cashew.png""]","[""cashew.png""]","[""cashew.png""]","[""cashew.png""]",blank.png,blank.png,PB15.png,,,,,,,,,,,1,,,,,,,,,,,,6965.426000000036,,completion,,,,,,,,,,,,,4,,,,,,,,,,,,,,,,,,,,,,,,,,,,,,,,,,,,,,,,,,,,,,,,,,,,,,,,,"[""cashew.png""]","[""chips.png""]",,,,1,,,false,,1,,,,,,,451143.46000016667,451142.227,444169.857,444174.26500003785,444176.801,451149.171,,,,
fixCross,canvas.Screen,2_4_3_6_1_0_0_0_0_3_0,2021-01-14T18:37:08.137Z,,,blank.png,"[""chips.png""]",blank.png,blank.png,blank.png,blank.png,blank.png,blank.png,blank.png,blank.png,blank.png,blank.png,blank.png,,,,,,,,,,,,,,,,,,,,,,,,,,,,,"[""chips.png""]","[""cashew.png""]",PB01.png,,,,,,,,,,,0,6,"[""cashew.png""]","[""cashew.png""]","[""cashew.png""]","[""cashew.png""]","[""cashew.png""]","[""cashew.png""]",blank.png,PB18.png,PB18.png,blank.png,blank.png,blank.png,blank.png,blank.png,blank.png,"[""cashew.png""]","[""cashew.png""]","[""cashew.png""]","[""cashew.png""]","[""cashew.png""]","[""cashew.png""]",1,"[""chips.png""]",blank.png,blank.png,blank.png,0,blank.png,blank.png,blank.png,blank.png,blank.png,blank.png,PB01.png,,,,,,,,,,,1,,,,,,,,,,,,833.3940000000293,,timeout,,,,,,,,,,,,,3,,,,,,,,,,,,,,,,,,,,,,,,,,,,,,,,,,,,,,,,,,,,,,,,,,,,,,,,,"[""cashew.png""]","[""chips.png""]",,,,1,,,false,,1,,,,,,,451740.8900000155,451739.525,451142.227,451146.570000099,451149.171,451982.565,4,,,
timeout,canvas.Screen,2_4_3_6_1_0_0_0_0_3_1,2021-01-14T18:37:08.873Z,,,blank.png,"[""chips.png""]",blank.png,blank.png,blank.png,blank.png,blank.png,blank.png,blank.png,blank.png,blank.png,blank.png,blank.png,,,,,,,,,,,,,,,,,,,,,,,,,,,,,"[""chips.png""]","[""cashew.png""]",PB01.png,,,,,,,,,,,0,6,"[""cashew.png""]","[""cashew.png""]","[""cashew.png""]","[""cashew.png""]","[""cashew.png""]","[""cashew.png""]",blank.png,PB18.png,PB18.png,blank.png,blank.png,blank.png,blank.png,blank.png,blank.png,"[""cashew.png""]","[""cashew.png""]","[""cashew.png""]","[""cashew.png""]","[""cashew.png""]","[""cashew.png""]",1,"[""chips.png""]",blank.png,blank.png,blank.png,0,blank.png,blank.png,blank.png,blank.png,blank.png,blank.png,PB01.png,,,,,,,,,,,1,,,,,,,,,,,,750.0410000000265,,timeout,,,,,,,,,,,,,3,,,,,,,,,,,,,,,,,,,,,,,,,,,,,,,,,,,,,,,,,,,,,,,,,,,,,,,,,"[""cashew.png""]","[""chips.png""]",,,,1,,,false,,1,,,,,,,452476.3250001706,452475.678,451739.525,451988.0450000055,451982.565,452732.606,,,,
choice,canvas.Screen,2_4_3_6_1_0_0_0_0_3_2,2021-01-14T18:37:09.874Z,,,blank.png,"[""chips.png""]",blank.png,blank.png,blank.png,blank.png,blank.png,blank.png,blank.png,blank.png,blank.png,blank.png,blank.png,,,,,,,,,,,,,,,,,,,,,,,,,,,,,"[""chips.png""]","[""cashew.png""]",PB01.png,,,,,,,,,,,0,6,"[""cashew.png""]","[""cashew.png""]","[""cashew.png""]","[""cashew.png""]","[""cashew.png""]","[""cashew.png""]",blank.png,PB18.png,PB18.png,blank.png,blank.png,blank.png,blank.png,blank.png,blank.png,"[""cashew.png""]","[""cashew.png""]","[""cashew.png""]","[""cashew.png""]","[""cashew.png""]","[""cashew.png""]",1,"[""chips.png""]",blank.png,blank.png,blank.png,0,blank.png,blank.png,blank.png,blank.png,blank.png,blank.png,PB01.png,,,,,,,,,,,1,,,,,,,,,,,,744.1140001515159,,response,,,,,,,,,,,,,3,,,,,,,,,,,,,,,,,,,,,,,,,,,,,,,,,,,,,,,,,,,,,,,,,,,,,,,,,"[""cashew.png""]","[""chips.png""]",,,,1,right,keydown(ArrowRight),false,,1,,,,,,,453477.9350000899,453476.72000015154,452475.678,452728.39500010014,452732.606,453718.689,,4,,
square,canvas.Screen,2_4_3_6_1_0_0_0_0_3_3,2021-01-14T18:37:11.109Z,,,blank.png,"[""chips.png""]",blank.png,blank.png,blank.png,blank.png,blank.png,blank.png,blank.png,blank.png,blank.png,blank.png,blank.png,,,,,,,,,,,,,,,,,,,,,,,,,,,,,"[""chips.png""]","[""cashew.png""]",PB01.png,,,,,,,,,,,0,6,"[""cashew.png""]","[""cashew.png""]","[""cashew.png""]","[""cashew.png""]","[""cashew.png""]","[""cashew.png""]",blank.png,PB18.png,PB18.png,blank.png,blank.png,blank.png,blank.png,blank.png,blank.png,"[""cashew.png""]","[""cashew.png""]","[""cashew.png""]","[""cashew.png""]","[""cashew.png""]","[""cashew.png""]",1,"[""chips.png""]",blank.png,blank.png,blank.png,0,blank.png,blank.png,blank.png,blank.png,blank.png,blank.png,PB01.png,,,,,,,,,,,1,,#808080,#33ff3f,,,,,,,,,1000.0169999999925,,timeout,,,,,,,,,,,,,3,,,,,,,,,,,,,,,,,,,,,,,,,,,,,,,,,,,,,,,,,,,,,,,,,,,,,,,,,"[""cashew.png""]","[""chips.png""]",,,,1,,,false,,1,,,,,white,black,454712.5900001265,454711.762,453711.745,453716.71500010416,453718.689,454718.706,,,,
ITI_late,canvas.Screen,2_4_3_6_1_0_0_0_0_3_4,2021-01-14T18:37:11.359Z,,,blank.png,"[""chips.png""]",blank.png,blank.png,blank.png,blank.png,blank.png,blank.png,blank.png,blank.png,blank.png,blank.png,blank.png,,,,,,,,,,,,,,,,,,,,,,,,,,,,,"[""chips.png""]","[""cashew.png""]",PB01.png,,,,,,,,,,,0,6,"[""cashew.png""]","[""cashew.png""]","[""cashew.png""]","[""cashew.png""]","[""cashew.png""]","[""cashew.png""]",blank.png,PB18.png,PB18.png,blank.png,blank.png,blank.png,blank.png,blank.png,blank.png,"[""cashew.png""]","[""cashew.png""]","[""cashew.png""]","[""cashew.png""]","[""cashew.png""]","[""cashew.png""]",1,"[""chips.png""]",blank.png,blank.png,blank.png,0,blank.png,blank.png,blank.png,blank.png,blank.png,blank.png,PB01.png,,,,,,,,,,,1,,,,,,,,,,,,250.13199999998324,,timeout,,,,,,,,,,,,white,3,,,,,,,,,,,,,,,,,,,,,,,,,,,,,,,,,,,,,,,,,,,,,,,,,,,,,,,,,"[""cashew.png""]","[""chips.png""]",,,,1,,,false,,1,,,,,,,454963.0650000181,454961.894,454711.762,454713.7000001967,454718.706,454968.838,,,,
choice_sequence,flow.Sequence,2_4_3_6_1_0_0_0_0_3,2021-01-14T18:37:11.360Z,,,blank.png,"[""chips.png""]",blank.png,blank.png,blank.png,blank.png,blank.png,blank.png,blank.png,blank.png,blank.png,blank.png,blank.png,,,,,,,,,,,,,,,,,,,,,,,,,,,,,"[""chips.png""]","[""cashew.png""]",PB01.png,,,,,,,,,,,0,6,"[""cashew.png""]","[""cashew.png""]","[""cashew.png""]","[""cashew.png""]","[""cashew.png""]","[""cashew.png""]",blank.png,PB18.png,PB18.png,blank.png,blank.png,blank.png,blank.png,blank.png,blank.png,"[""cashew.png""]","[""cashew.png""]","[""cashew.png""]","[""cashew.png""]","[""cashew.png""]","[""cashew.png""]",1,"[""chips.png""]",blank.png,blank.png,blank.png,0,blank.png,blank.png,blank.png,blank.png,blank.png,blank.png,PB01.png,,,,,,,,,,,1,,,,,,,,,,,,3812.722999999998,,completion,,,,,,,,,,,,,3,,,,,,,,,,,,,,,,,,,,,,,,,,,,,,,,,,,,,,,,,,,,,,,,,,,,,,,,,"[""cashew.png""]","[""chips.png""]",,,,1,,,false,,1,,,,,,,454963.365000207,454961.894,451142.227,451145.98000003025,451149.171,454968.838,,,,
fixCross,canvas.Screen,2_4_3_6_1_0_0_0_0_4_0,2021-01-14T18:37:12.012Z,,,blank.png,blank.png,blank.png,blank.png,blank.png,blank.png,blank.png,"[""chips.png""]",blank.png,blank.png,blank.png,blank.png,blank.png,,,,,,,,,,,,,,,,,,,,,,,,,,,,,"[""chips.png""]","[""cashew.png""]",PB18.png,,,,,,,,,,,0,6,"[""cashew.png""]","[""cashew.png""]","[""cashew.png""]","[""cashew.png""]","[""cashew.png""]","[""cashew.png""]",blank.png,PB18.png,PB07.png,"[""cashew.png""]","[""cashew.png""]","[""cashew.png""]","[""cashew.png""]","[""cashew.png""]","[""cashew.png""]","[""cashew.png""]",blank.png,blank.png,blank.png,blank.png,blank.png,1,"[""chips.png""]",blank.png,blank.png,blank.png,1,"[""cashew.png""]",blank.png,blank.png,blank.png,blank.png,blank.png,PB07.png,,,,,,,,,,,1,,,,,,,,,,,,916.75,,timeout,,,,,,,,,,,,,4,,,,,,,,,,,,,,,,,,,,,,,,,,,,,,,,,,,,,,,,,,,,,,,,,,,,,,,,,"[""cashew.png""]","[""chips.png""]",,,,1,,,false,,1,,,,,,,455615.52000022493,455614.772,454961.894,454966.42500022426,454968.838,455885.588,5,,,
timeout,canvas.Screen,2_4_3_6_1_0_0_0_0_4_1,2021-01-14T18:37:12.776Z,,,blank.png,blank.png,blank.png,blank.png,blank.png,blank.png,blank.png,"[""chips.png""]",blank.png,blank.png,blank.png,blank.png,blank.png,,,,,,,,,,,,,,,,,,,,,,,,,,,,,"[""chips.png""]","[""cashew.png""]",PB18.png,,,,,,,,,,,0,6,"[""cashew.png""]","[""cashew.png""]","[""cashew.png""]","[""cashew.png""]","[""cashew.png""]","[""cashew.png""]",blank.png,PB18.png,PB07.png,"[""cashew.png""]","[""cashew.png""]","[""cashew.png""]","[""cashew.png""]","[""cashew.png""]","[""cashew.png""]","[""cashew.png""]",blank.png,blank.png,blank.png,blank.png,blank.png,1,"[""chips.png""]",blank.png,blank.png,blank.png,1,"[""cashew.png""]",blank.png,blank.png,blank.png,blank.png,blank.png,PB07.png,,,,,,,,,,,1,,,,,,,,,,,,777.625,,timeout,,,,,,,,,,,,,4,,,,,,,,,,,,,,,,,,,,,,,,,,,,,,,,,,,,,,,,,,,,,,,,,,,,,,,,,"[""cashew.png""]","[""chips.png""]",,,,1,,,false,,1,,,,,,,456379.6750002075,456378.509,455614.772,455894.44500021636,455885.588,456663.213,,,,
choice,canvas.Screen,2_4_3_6_1_0_0_0_0_4_2,2021-01-14T18:37:13.707Z,,,blank.png,blank.png,blank.png,blank.png,blank.png,blank.png,blank.png,"[""chips.png""]",blank.png,blank.png,blank.png,blank.png,blank.png,,,,,,,,,,,,,,,,,,,,,,,,,,,,,"[""chips.png""]","[""cashew.png""]",PB18.png,,,,,,,,,,,0,6,"[""cashew.png""]","[""cashew.png""]","[""cashew.png""]","[""cashew.png""]","[""cashew.png""]","[""cashew.png""]",blank.png,PB18.png,PB07.png,"[""cashew.png""]","[""cashew.png""]","[""cashew.png""]","[""cashew.png""]","[""cashew.png""]","[""cashew.png""]","[""cashew.png""]",blank.png,blank.png,blank.png,blank.png,blank.png,1,"[""chips.png""]",blank.png,blank.png,blank.png,1,"[""cashew.png""]",blank.png,blank.png,blank.png,blank.png,blank.png,PB07.png,,,,,,,,,,,1,,,,,,,,,,,,646.5020002140664,,response,,,,,,,,,,,,,4,,,,,,,,,,,,,,,,,,,,,,,,,,,,,,,,,,,,,,,,,,,,,,,,,,,,,,,,,"[""cashew.png""]","[""chips.png""]",,,,1,left,keydown(ArrowLeft),false,,1,,,,,,,457310.34000008367,457309.71500021406,456378.509,456656.6700001713,456663.213,457559.023,,5,,
square,canvas.Screen,2_4_3_6_1_0_0_0_0_4_3,2021-01-14T18:37:14.950Z,,,blank.png,blank.png,blank.png,blank.png,blank.png,blank.png,blank.png,"[""chips.png""]",blank.png,blank.png,blank.png,blank.png,blank.png,,,,,,,,,,,,,,,,,,,,,,,,,,,,,"[""chips.png""]","[""cashew.png""]",PB18.png,,,,,,,,,,,0,6,"[""cashew.png""]","[""cashew.png""]","[""cashew.png""]","[""cashew.png""]","[""cashew.png""]","[""cashew.png""]",blank.png,PB18.png,PB07.png,"[""cashew.png""]","[""cashew.png""]","[""cashew.png""]","[""cashew.png""]","[""cashew.png""]","[""cashew.png""]","[""cashew.png""]",blank.png,blank.png,blank.png,blank.png,blank.png,1,"[""chips.png""]",blank.png,blank.png,blank.png,1,"[""cashew.png""]",blank.png,blank.png,blank.png,blank.png,blank.png,PB07.png,,,,,,,,,,,1,,#33ff3f,#808080,,,,,,,,,1000.0709999999963,,timeout,,,,,,,,,,,,,4,,,,,,,,,,,,,,,,,,,,,,,,,,,,,,,,,,,,,,,,,,,,,,,,,,,,,,,,,"[""cashew.png""]","[""chips.png""]",,,,1,,,false,,1,,,,,black,white,458553.220000118,458552.15,457552.079,457558.14500013366,457559.023,458559.094,,,,
ITI_late,canvas.Screen,2_4_3_6_1_0_0_0_0_4_4,2021-01-14T18:37:15.200Z,,,blank.png,blank.png,blank.png,blank.png,blank.png,blank.png,blank.png,"[""chips.png""]",blank.png,blank.png,blank.png,blank.png,blank.png,,,,,,,,,,,,,,,,,,,,,,,,,,,,,"[""chips.png""]","[""cashew.png""]",PB18.png,,,,,,,,,,,0,6,"[""cashew.png""]","[""cashew.png""]","[""cashew.png""]","[""cashew.png""]","[""cashew.png""]","[""cashew.png""]",blank.png,PB18.png,PB07.png,"[""cashew.png""]","[""cashew.png""]","[""cashew.png""]","[""cashew.png""]","[""cashew.png""]","[""cashew.png""]","[""cashew.png""]",blank.png,blank.png,blank.png,blank.png,blank.png,1,"[""chips.png""]",blank.png,blank.png,blank.png,1,"[""cashew.png""]",blank.png,blank.png,blank.png,blank.png,blank.png,PB07.png,,,,,,,,,,,1,,,,,,,,,,,,249.97299999999814,,timeout,,,,,,,,,,,,white,4,,,,,,,,,,,,,,,,,,,,,,,,,,,,,,,,,,,,,,,,,,,,,,,,,,,,,,,,,"[""cashew.png""]","[""chips.png""]",,,,1,,,false,,1,,,,,,,458803.4400001634,458802.123,458552.15,458554.3300001882,458559.094,458809.067,,,,
choice_sequence,flow.Sequence,2_4_3_6_1_0_0_0_0_4,2021-01-14T18:37:15.200Z,,,blank.png,blank.png,blank.png,blank.png,blank.png,blank.png,blank.png,"[""chips.png""]",blank.png,blank.png,blank.png,blank.png,blank.png,,,,,,,,,,,,,,,,,,,,,,,,,,,,,"[""chips.png""]","[""cashew.png""]",PB18.png,,,,,,,,,,,0,6,"[""cashew.png""]","[""cashew.png""]","[""cashew.png""]","[""cashew.png""]","[""cashew.png""]","[""cashew.png""]",blank.png,PB18.png,PB07.png,"[""cashew.png""]","[""cashew.png""]","[""cashew.png""]","[""cashew.png""]","[""cashew.png""]","[""cashew.png""]","[""cashew.png""]",blank.png,blank.png,blank.png,blank.png,blank.png,1,"[""chips.png""]",blank.png,blank.png,blank.png,1,"[""cashew.png""]",blank.png,blank.png,blank.png,blank.png,blank.png,PB07.png,,,,,,,,,,,1,,,,,,,,,,,,3833.2850000000326,,completion,,,,,,,,,,,,,4,,,,,,,,,,,,,,,,,,,,,,,,,,,,,,,,,,,,,,,,,,,,,,,,,,,,,,,,,"[""cashew.png""]","[""chips.png""]",,,,1,,,false,,1,,,,,,,458803.74000011943,458802.123,454961.894,454965.7900000457,454968.838,458809.067,,,,
fixCross,canvas.Screen,2_4_3_6_1_0_0_0_0_5_0,2021-01-14T18:37:15.748Z,,,blank.png,"[""chips.png""]",blank.png,blank.png,blank.png,blank.png,blank.png,blank.png,blank.png,blank.png,blank.png,blank.png,blank.png,,,,,,,,,,,,,,,,,,,,,,,,,,,,,"[""chips.png""]","[""cashew.png""]",PB12.png,,,,,,,,,,,0,6,"[""cashew.png""]","[""cashew.png""]","[""cashew.png""]","[""cashew.png""]","[""cashew.png""]","[""cashew.png""]",blank.png,PB18.png,PB18.png,"[""cashew.png""]","[""cashew.png""]",blank.png,blank.png,blank.png,blank.png,"[""cashew.png""]","[""cashew.png""]","[""cashew.png""]","[""cashew.png""]","[""cashew.png""]","[""cashew.png""]",1,"[""chips.png""]",blank.png,blank.png,blank.png,2,"[""cashew.png""]","[""cashew.png""]",blank.png,blank.png,blank.png,blank.png,PB12.png,,,,,,,,,,,1,,,,,,,,,,,,819.5200000000186,,timeout,,,,,,,,,,,,,3,,,,,,,,,,,,,,,,,,,,,,,,,,,,,,,,,,,,,,,,,,,,,,,,,,,,,,,,,"[""cashew.png""]","[""chips.png""]",,,,1,,,false,,1,,,,,,,459351.4350000769,459350.827,458802.123,458807.29000014253,458809.067,459628.587,6,,,
timeout,canvas.Screen,2_4_3_6_1_0_0_0_0_5_1,2021-01-14T18:37:16.518Z,,,blank.png,"[""chips.png""]",blank.png,blank.png,blank.png,blank.png,blank.png,blank.png,blank.png,blank.png,blank.png,blank.png,blank.png,,,,,,,,,,,,,,,,,,,,,,,,,,,,,"[""chips.png""]","[""cashew.png""]",PB12.png,,,,,,,,,,,0,6,"[""cashew.png""]","[""cashew.png""]","[""cashew.png""]","[""cashew.png""]","[""cashew.png""]","[""cashew.png""]",blank.png,PB18.png,PB18.png,"[""cashew.png""]","[""cashew.png""]",blank.png,blank.png,blank.png,blank.png,"[""cashew.png""]","[""cashew.png""]","[""cashew.png""]","[""cashew.png""]","[""cashew.png""]","[""cashew.png""]",1,"[""chips.png""]",blank.png,blank.png,blank.png,2,"[""cashew.png""]","[""cashew.png""]",blank.png,blank.png,blank.png,blank.png,PB12.png,,,,,,,,,,,1,,,,,,,,,,,,784.7239999999874,,timeout,,,,,,,,,,,,,3,,,,,,,,,,,,,,,,,,,,,,,,,,,,,,,,,,,,,,,,,,,,,,,,,,,,,,,,,"[""cashew.png""]","[""chips.png""]",,,,1,,,false,,1,,,,,,,460122.1000000369,460121.663,459350.827,459635.3000001982,459628.587,460413.311,,,,
choice,canvas.Screen,2_4_3_6_1_0_0_0_0_5_2,2021-01-14T18:37:17.944Z,,,blank.png,"[""chips.png""]",blank.png,blank.png,blank.png,blank.png,blank.png,blank.png,blank.png,blank.png,blank.png,blank.png,blank.png,,,,,,,,,,,,,,,,,,,,,,,,,,,,,"[""chips.png""]","[""cashew.png""]",PB12.png,,,,,,,,,,,0,6,"[""cashew.png""]","[""cashew.png""]","[""cashew.png""]","[""cashew.png""]","[""cashew.png""]","[""cashew.png""]",blank.png,PB18.png,PB18.png,"[""cashew.png""]","[""cashew.png""]",blank.png,blank.png,blank.png,blank.png,"[""cashew.png""]","[""cashew.png""]","[""cashew.png""]","[""cashew.png""]","[""cashew.png""]","[""cashew.png""]",1,"[""chips.png""]",blank.png,blank.png,blank.png,2,"[""cashew.png""]","[""cashew.png""]",blank.png,blank.png,blank.png,blank.png,PB12.png,,,,,,,,,,,1,,,,,,,,,,,,1133.3890000644606,,response,,,,,,,,,,,,,3,,,,,,,,,,,,,,,,,,,,,,,,,,,,,,,,,,,,,,,,,,,,,,,,,,,,,,,,,"[""cashew.png""]","[""chips.png""]",,,,1,right,keydown(ArrowRight),false,,1,,,,,,,461547.33000020497,461546.70000006445,460121.663,460410.10000021197,460413.311,461816.052,,6,,
square,canvas.Screen,2_4_3_6_1_0_0_0_0_5_3,2021-01-14T18:37:19.207Z,,,blank.png,"[""chips.png""]",blank.png,blank.png,blank.png,blank.png,blank.png,blank.png,blank.png,blank.png,blank.png,blank.png,blank.png,,,,,,,,,,,,,,,,,,,,,,,,,,,,,"[""chips.png""]","[""cashew.png""]",PB12.png,,,,,,,,,,,0,6,"[""cashew.png""]","[""cashew.png""]","[""cashew.png""]","[""cashew.png""]","[""cashew.png""]","[""cashew.png""]",blank.png,PB18.png,PB18.png,"[""cashew.png""]","[""cashew.png""]",blank.png,blank.png,blank.png,blank.png,"[""cashew.png""]","[""cashew.png""]","[""cashew.png""]","[""cashew.png""]","[""cashew.png""]","[""cashew.png""]",1,"[""chips.png""]",blank.png,blank.png,blank.png,2,"[""cashew.png""]","[""cashew.png""]",blank.png,blank.png,blank.png,blank.png,PB12.png,,,,,,,,,,,1,,#808080,#33ff3f,,,,,,,,,1000,,timeout,,,,,,,,,,,,,3,,,,,,,,,,,,,,,,,,,,,,,,,,,,,,,,,,,,,,,,,,,,,,,,,,,,,,,,,"[""cashew.png""]","[""chips.png""]",,,,1,,,false,,1,,,,,white,black,462810.92500011437,462809.108,461809.108,461812.6250000205,461816.052,462816.052,,,,
ITI_late,canvas.Screen,2_4_3_6_1_0_0_0_0_5_4,2021-01-14T18:37:20.457Z,,,blank.png,"[""chips.png""]",blank.png,blank.png,blank.png,blank.png,blank.png,blank.png,blank.png,blank.png,blank.png,blank.png,blank.png,,,,,,,,,,,,,,,,,,,,,,,,,,,,,"[""chips.png""]","[""cashew.png""]",PB12.png,,,,,,,,,,,0,6,"[""cashew.png""]","[""cashew.png""]","[""cashew.png""]","[""cashew.png""]","[""cashew.png""]","[""cashew.png""]",blank.png,PB18.png,PB18.png,"[""cashew.png""]","[""cashew.png""]",blank.png,blank.png,blank.png,blank.png,"[""cashew.png""]","[""cashew.png""]","[""cashew.png""]","[""cashew.png""]","[""cashew.png""]","[""cashew.png""]",1,"[""chips.png""]",blank.png,blank.png,blank.png,2,"[""cashew.png""]","[""cashew.png""]",blank.png,blank.png,blank.png,blank.png,PB12.png,,,,,,,,,,,1,,,,,,,,,,,,1250.1030000000028,,timeout,,,,,,,,,,,,white,3,,,,,,,,,,,,,,,,,,,,,,,,,,,,,,,,,,,,,,,,,,,,,,,,,,,,,,,,,"[""cashew.png""]","[""chips.png""]",,,,1,,,false,,1,,,,,,,464061.1950000748,464059.211,462809.108,462812.1750000864,462816.052,464066.155,,,,
choice_sequence,flow.Sequence,2_4_3_6_1_0_0_0_0_5,2021-01-14T18:37:20.458Z,,,blank.png,"[""chips.png""]",blank.png,blank.png,blank.png,blank.png,blank.png,blank.png,blank.png,blank.png,blank.png,blank.png,blank.png,,,,,,,,,,,,,,,,,,,,,,,,,,,,,"[""chips.png""]","[""cashew.png""]",PB12.png,,,,,,,,,,,0,6,"[""cashew.png""]","[""cashew.png""]","[""cashew.png""]","[""cashew.png""]","[""cashew.png""]","[""cashew.png""]",blank.png,PB18.png,PB18.png,"[""cashew.png""]","[""cashew.png""]",blank.png,blank.png,blank.png,blank.png,"[""cashew.png""]","[""cashew.png""]","[""cashew.png""]","[""cashew.png""]","[""cashew.png""]","[""cashew.png""]",1,"[""chips.png""]",blank.png,blank.png,blank.png,2,"[""cashew.png""]","[""cashew.png""]",blank.png,blank.png,blank.png,blank.png,PB12.png,,,,,,,,,,,1,,,,,,,,,,,,5250.144000000029,,completion,,,,,,,,,,,,,3,,,,,,,,,,,,,,,,,,,,,,,,,,,,,,,,,,,,,,,,,,,,,,,,,,,,,,,,,"[""cashew.png""]","[""chips.png""]",,,,1,,,false,,1,,,,,,,464061.4900002256,464059.211,458802.123,458806.7100001499,458809.067,464066.155,,,,
fixCross,canvas.Screen,2_4_3_6_1_0_0_0_0_6_0,2021-01-14T18:37:21.158Z,,,blank.png,blank.png,blank.png,blank.png,blank.png,blank.png,blank.png,"[""chips.png""]",blank.png,blank.png,blank.png,blank.png,blank.png,,,,,,,,,,,,,,,,,,,,,,,,,,,,,"[""chips.png""]","[""cashew.png""]",PB18.png,,,,,,,,,,,0,6,"[""cashew.png""]","[""cashew.png""]","[""cashew.png""]","[""cashew.png""]","[""cashew.png""]","[""cashew.png""]",blank.png,PB18.png,PB17.png,"[""cashew.png""]","[""cashew.png""]","[""cashew.png""]","[""cashew.png""]","[""cashew.png""]","[""cashew.png""]","[""cashew.png""]","[""cashew.png""]","[""cashew.png""]","[""cashew.png""]","[""cashew.png""]","[""cashew.png""]",1,"[""chips.png""]",blank.png,blank.png,blank.png,6,"[""cashew.png""]","[""cashew.png""]","[""cashew.png""]","[""cashew.png""]","[""cashew.png""]","[""cashew.png""]",PB17.png,,,,,,,,,,,1,,,,,,,,,,,,1027.725999999966,,timeout,,,,,,,,,,,,,4,,,,,,,,,,,,,,,,,,,,,,,,,,,,,,,,,,,,,,,,,,,,,,,,,,,,,,,,,"[""cashew.png""]","[""chips.png""]",,,,1,,,false,,1,,,,,,,464761.56500005163,464760.569,464059.211,464064.455000218,464066.155,465093.881,7,,,
timeout,canvas.Screen,2_4_3_6_1_0_0_0_0_6_1,2021-01-14T18:37:21.984Z,,,blank.png,blank.png,blank.png,blank.png,blank.png,blank.png,blank.png,"[""chips.png""]",blank.png,blank.png,blank.png,blank.png,blank.png,,,,,,,,,,,,,,,,,,,,,,,,,,,,,"[""chips.png""]","[""cashew.png""]",PB18.png,,,,,,,,,,,0,6,"[""cashew.png""]","[""cashew.png""]","[""cashew.png""]","[""cashew.png""]","[""cashew.png""]","[""cashew.png""]",blank.png,PB18.png,PB17.png,"[""cashew.png""]","[""cashew.png""]","[""cashew.png""]","[""cashew.png""]","[""cashew.png""]","[""cashew.png""]","[""cashew.png""]","[""cashew.png""]","[""cashew.png""]","[""cashew.png""]","[""cashew.png""]","[""cashew.png""]",1,"[""chips.png""]",blank.png,blank.png,blank.png,6,"[""cashew.png""]","[""cashew.png""]","[""cashew.png""]","[""cashew.png""]","[""cashew.png""]","[""cashew.png""]",PB17.png,,,,,,,,,,,1,,,,,,,,,,,,847.2250000000349,,timeout,,,,,,,,,,,,,4,,,,,,,,,,,,,,,,,,,,,,,,,,,,,,,,,,,,,,,,,,,,,,,,,,,,,,,,,"[""cashew.png""]","[""chips.png""]",,,,1,,,false,,1,,,,,,,465587.9300001543,465586.962,464760.569,465097.0050001051,465093.881,465941.106,,,,
choice,canvas.Screen,2_4_3_6_1_0_0_0_0_6_2,2021-01-14T18:37:22.827Z,,,blank.png,blank.png,blank.png,blank.png,blank.png,blank.png,blank.png,"[""chips.png""]",blank.png,blank.png,blank.png,blank.png,blank.png,,,,,,,,,,,,,,,,,,,,,,,,,,,,,"[""chips.png""]","[""cashew.png""]",PB18.png,,,,,,,,,,,0,6,"[""cashew.png""]","[""cashew.png""]","[""cashew.png""]","[""cashew.png""]","[""cashew.png""]","[""cashew.png""]",blank.png,PB18.png,PB17.png,"[""cashew.png""]","[""cashew.png""]","[""cashew.png""]","[""cashew.png""]","[""cashew.png""]","[""cashew.png""]","[""cashew.png""]","[""cashew.png""]","[""cashew.png""]","[""cashew.png""]","[""cashew.png""]","[""cashew.png""]",1,"[""chips.png""]",blank.png,blank.png,blank.png,6,"[""cashew.png""]","[""cashew.png""]","[""cashew.png""]","[""cashew.png""]","[""cashew.png""]","[""cashew.png""]",PB17.png,,,,,,,,,,,1,,,,,,,,,,,,488.61400013102684,,response,,,,,,,,,,,,,4,,,,,,,,,,,,,,,,,,,,,,,,,,,,,,,,,,,,,,,,,,,,,,,,,,,,,,,,,"[""cashew.png""]","[""chips.png""]",,,,1,right,keydown(ArrowRight),false,,1,,,,,,,466430.95500022173,466429.72000013106,465586.962,465937.010000227,465941.106,466760.54,,7,,
square,canvas.Screen,2_4_3_6_1_0_0_0_0_6_3,2021-01-14T18:37:24.151Z,,,blank.png,blank.png,blank.png,blank.png,blank.png,blank.png,blank.png,"[""chips.png""]",blank.png,blank.png,blank.png,blank.png,blank.png,,,,,,,,,,,,,,,,,,,,,,,,,,,,,"[""chips.png""]","[""cashew.png""]",PB18.png,,,,,,,,,,,0,6,"[""cashew.png""]","[""cashew.png""]","[""cashew.png""]","[""cashew.png""]","[""cashew.png""]","[""cashew.png""]",blank.png,PB18.png,PB17.png,"[""cashew.png""]","[""cashew.png""]","[""cashew.png""]","[""cashew.png""]","[""cashew.png""]","[""cashew.png""]","[""cashew.png""]","[""cashew.png""]","[""cashew.png""]","[""cashew.png""]","[""cashew.png""]","[""cashew.png""]",1,"[""chips.png""]",blank.png,blank.png,blank.png,6,"[""cashew.png""]","[""cashew.png""]","[""cashew.png""]","[""cashew.png""]","[""cashew.png""]","[""cashew.png""]",PB17.png,,,,,,,,,,,1,,#808080,#33ff3f,,,,,,,,,1000.0320000000065,,timeout,,,,,,,,,,,,,4,,,,,,,,,,,,,,,,,,,,,,,,,,,,,,,,,,,,,,,,,,,,,,,,,,,,,,,,,"[""cashew.png""]","[""chips.png""]",,,,1,,,false,,1,,,,,white,black,467754.3150000274,467753.628,466753.596,466759.2800001148,466760.54,467760.572,,,,
ITI_late,canvas.Screen,2_4_3_6_1_0_0_0_0_6_4,2021-01-14T18:37:25.400Z,,,blank.png,blank.png,blank.png,blank.png,blank.png,blank.png,blank.png,"[""chips.png""]",blank.png,blank.png,blank.png,blank.png,blank.png,,,,,,,,,,,,,,,,,,,,,,,,,,,,,"[""chips.png""]","[""cashew.png""]",PB18.png,,,,,,,,,,,0,6,"[""cashew.png""]","[""cashew.png""]","[""cashew.png""]","[""cashew.png""]","[""cashew.png""]","[""cashew.png""]",blank.png,PB18.png,PB17.png,"[""cashew.png""]","[""cashew.png""]","[""cashew.png""]","[""cashew.png""]","[""cashew.png""]","[""cashew.png""]","[""cashew.png""]","[""cashew.png""]","[""cashew.png""]","[""cashew.png""]","[""cashew.png""]","[""cashew.png""]",1,"[""chips.png""]",blank.png,blank.png,blank.png,6,"[""cashew.png""]","[""cashew.png""]","[""cashew.png""]","[""cashew.png""]","[""cashew.png""]","[""cashew.png""]",PB17.png,,,,,,,,,,,1,,,,,,,,,,,,1263.8699999999953,,timeout,,,,,,,,,,,,white,4,,,,,,,,,,,,,,,,,,,,,,,,,,,,,,,,,,,,,,,,,,,,,,,,,,,,,,,,,"[""cashew.png""]","[""chips.png""]",,,,1,,,false,,1,,,,,,,469004.02000010945,469003.61,467753.628,467755.43500017375,467760.572,469024.442,,,,
choice_sequence,flow.Sequence,2_4_3_6_1_0_0_0_0_6,2021-01-14T18:37:25.401Z,,,blank.png,blank.png,blank.png,blank.png,blank.png,blank.png,blank.png,"[""chips.png""]",blank.png,blank.png,blank.png,blank.png,blank.png,,,,,,,,,,,,,,,,,,,,,,,,,,,,,"[""chips.png""]","[""cashew.png""]",PB18.png,,,,,,,,,,,0,6,"[""cashew.png""]","[""cashew.png""]","[""cashew.png""]","[""cashew.png""]","[""cashew.png""]","[""cashew.png""]",blank.png,PB18.png,PB17.png,"[""cashew.png""]","[""cashew.png""]","[""cashew.png""]","[""cashew.png""]","[""cashew.png""]","[""cashew.png""]","[""cashew.png""]","[""cashew.png""]","[""cashew.png""]","[""cashew.png""]","[""cashew.png""]","[""cashew.png""]",1,"[""chips.png""]",blank.png,blank.png,blank.png,6,"[""cashew.png""]","[""cashew.png""]","[""cashew.png""]","[""cashew.png""]","[""cashew.png""]","[""cashew.png""]",PB17.png,,,,,,,,,,,1,,,,,,,,,,,,4937.454999999958,,completion,,,,,,,,,,,,,4,,,,,,,,,,,,,,,,,,,,,,,,,,,,,,,,,,,,,,,,,,,,,,,,,,,,,,,,,"[""cashew.png""]","[""chips.png""]",,,,1,,,false,,1,,,,,,,469004.3200000655,469003.61,464059.211,464063.8750002254,464066.155,469024.442,,,,
choice_loop,flow.Loop,2_4_3_6_1_0_0_0_0,2021-01-14T18:37:25.401Z,,,,,,,,,,,,,,,,,,,,,,,,,,,,,,,,,,,,,,,,,,,,"[""chips.png""]","[""cashew.png""]",,,,,,,,,,,,,,,,,,,,,,,,,,,,,,,,,,,,,,,,,,,,,,,,,,,,,,,,,,,,,,,,,,,,,,36465.861999999965,,completion,,,,,,,,,,,,,,,,,,,,,,,,,,,,,,,,,,,,,,,,,,,,,,,,,,,,,,,,,,,,,,,,,,,,,,"[""cashew.png""]","[""chips.png""]",,,,1,,,false,,,,,,,,,469004.54000011086,469003.61,432516.916,432534.1450001579,432537.748,469024.442,,,,
choice_frame,html.Frame,2_4_3_6_1_0_0_0,2021-01-14T18:37:25.402Z,,,,,,,,,,,,,,,,,,,,,,,,,,,,,,,,,,,,,,,,,,,,,,,,,,,,,,,,,,,,,,,,,,,,,,,,,,,,,,,,,,,,,,,,,,,,,,,,,,,,,,,,,,,,,,,,,,,36467.99700020591,,,,,,,,,,,,,,,,,,,,,,,,,,,,,,,,,,,,,,,,,,,,,,,,,,,,,,,,,,,,,,,,,,,,,,,,,,,,,1,,,false,,,,,,,,,469005.87500003166,469005.74500020593,432516.916,432517.3950002063,432537.748,469038.33,,,,
sublock_1,flow.Sequence,2_4_3_6_1_0_0,2021-01-14T18:37:25.402Z,,,,,,,,,,,,,,,,,,,,,,,,,,,,,,,,,,,,,,,,,,,,,,,,,,,,,,,,,,,,,,,,,,,,,,,,,,,,,,,,,,,,,,,,,,,,,,,,,,,,,,,,,,,,,,,,,,,36467.99700020591,,completion,,,,,,,,,,,,,,,,,,,,,,,,,,,,,,,,,,,,,,,,,,,,,,,,,,,,,,,,,,,,,,,,,,,,,,,,,,,1,,,false,,,,,,,,,469005.9750000946,469005.74500020593,432516.916,432517.375000054,432537.748,469038.33,,,,
fixCross,canvas.Screen,2_4_3_6_1_0_1_0_0_0_0,2021-01-14T18:37:25.727Z,,,blank.png,blank.png,blank.png,blank.png,blank.png,blank.png,blank.png,"[""chips.png""]",blank.png,blank.png,blank.png,blank.png,blank.png,,,,,,,,,,,,,,,,,,,,,,,,,,,,,"[""chips.png""]","[""cashew.png""]",PB18.png,,,,,,,,,,,0,6,"[""cashew.png""]","[""cashew.png""]","[""cashew.png""]","[""cashew.png""]","[""cashew.png""]","[""cashew.png""]",blank.png,PB18.png,PB07.png,"[""cashew.png""]","[""cashew.png""]","[""cashew.png""]","[""cashew.png""]","[""cashew.png""]","[""cashew.png""]","[""cashew.png""]",blank.png,blank.png,blank.png,blank.png,blank.png,1,"[""chips.png""]",blank.png,blank.png,blank.png,1,"[""cashew.png""]",blank.png,blank.png,blank.png,blank.png,blank.png,PB07.png,,,,,,,,,,,1,,,,,,,,,,,,555.6479999999865,,timeout,,,,,,,,,,,,,4,,,,,,,,,,,,,,,,,,,,,,,,,,,,,,,,,,,,,,,,,,,,,,,,,,,,,,,,,"[""cashew.png""]","[""chips.png""]",,,,3,,,false,,1,,,,,,,469330.9850001242,469330.106,469024.442,469028.7150000222,469038.33,469593.978,8,,,
timeout,canvas.Screen,2_4_3_6_1_0_1_0_0_0_1,2021-01-14T18:37:26.484Z,,,blank.png,blank.png,blank.png,blank.png,blank.png,blank.png,blank.png,"[""chips.png""]",blank.png,blank.png,blank.png,blank.png,blank.png,,,,,,,,,,,,,,,,,,,,,,,,,,,,,"[""chips.png""]","[""cashew.png""]",PB18.png,,,,,,,,,,,0,6,"[""cashew.png""]","[""cashew.png""]","[""cashew.png""]","[""cashew.png""]","[""cashew.png""]","[""cashew.png""]",blank.png,PB18.png,PB07.png,"[""cashew.png""]","[""cashew.png""]","[""cashew.png""]","[""cashew.png""]","[""cashew.png""]","[""cashew.png""]","[""cashew.png""]",blank.png,blank.png,blank.png,blank.png,blank.png,1,"[""chips.png""]",blank.png,blank.png,blank.png,1,"[""cashew.png""]",blank.png,blank.png,blank.png,blank.png,blank.png,PB07.png,,,,,,,,,,,1,,,,,,,,,,,,763.8319999999949,,timeout,,,,,,,,,,,,,4,,,,,,,,,,,,,,,,,,,,,,,,,,,,,,,,,,,,,,,,,,,,,,,,,,,,,,,,,"[""cashew.png""]","[""chips.png""]",,,,3,,,false,,1,,,,,,,470087.9600001499,470086.994,469330.106,469590.4800000135,469593.978,470357.81,,,,
choice,canvas.Screen,2_4_3_6_1_0_1_0_0_0_2,2021-01-14T18:37:27.215Z,,,blank.png,blank.png,blank.png,blank.png,blank.png,blank.png,blank.png,"[""chips.png""]",blank.png,blank.png,blank.png,blank.png,blank.png,,,,,,,,,,,,,,,,,,,,,,,,,,,,,"[""chips.png""]","[""cashew.png""]",PB18.png,,,,,,,,,,,0,6,"[""cashew.png""]","[""cashew.png""]","[""cashew.png""]","[""cashew.png""]","[""cashew.png""]","[""cashew.png""]",blank.png,PB18.png,PB07.png,"[""cashew.png""]","[""cashew.png""]","[""cashew.png""]","[""cashew.png""]","[""cashew.png""]","[""cashew.png""]","[""cashew.png""]",blank.png,blank.png,blank.png,blank.png,blank.png,1,"[""chips.png""]",blank.png,blank.png,blank.png,1,"[""cashew.png""]",blank.png,blank.png,blank.png,blank.png,blank.png,PB07.png,,,,,,,,,,,1,,,,,,,,,,,,460.7900001151138,,response,,,,,,,,,,,,,4,,,,,,,,,,,,,,,,,,,,,,,,,,,,,,,,,,,,,,,,,,,,,,,,,,,,,,,,,"[""cashew.png""]","[""chips.png""]",,,,3,left,keydown(ArrowLeft),false,,1,,,,,,,470819.2000000272,470818.6000001151,470086.994,470354.3250001967,470357.81,471080.065,,8,,
square,canvas.Screen,2_4_3_6_1_0_1_0_0_0_3,2021-01-14T18:37:28.470Z,,,blank.png,blank.png,blank.png,blank.png,blank.png,blank.png,blank.png,"[""chips.png""]",blank.png,blank.png,blank.png,blank.png,blank.png,,,,,,,,,,,,,,,,,,,,,,,,,,,,,"[""chips.png""]","[""cashew.png""]",PB18.png,,,,,,,,,,,0,6,"[""cashew.png""]","[""cashew.png""]","[""cashew.png""]","[""cashew.png""]","[""cashew.png""]","[""cashew.png""]",blank.png,PB18.png,PB07.png,"[""cashew.png""]","[""cashew.png""]","[""cashew.png""]","[""cashew.png""]","[""cashew.png""]","[""cashew.png""]","[""cashew.png""]",blank.png,blank.png,blank.png,blank.png,blank.png,1,"[""chips.png""]",blank.png,blank.png,blank.png,1,"[""cashew.png""]",blank.png,blank.png,blank.png,blank.png,blank.png,PB07.png,,,,,,,,,,,1,,#33ff3f,#808080,,,,,,,,,1000.0289999999804,,timeout,,,,,,,,,,,,,4,,,,,,,,,,,,,,,,,,,,,,,,,,,,,,,,,,,,,,,,,,,,,,,,,,,,,,,,,"[""cashew.png""]","[""chips.png""]",,,,3,,,false,,1,,,,,black,white,472073.80500016734,472073.15,471073.121,471079.075000016,471080.065,472080.094,,,,
ITI_late,canvas.Screen,2_4_3_6_1_0_1_0_0_0_4,2021-01-14T18:37:28.975Z,,,blank.png,blank.png,blank.png,blank.png,blank.png,blank.png,blank.png,"[""chips.png""]",blank.png,blank.png,blank.png,blank.png,blank.png,,,,,,,,,,,,,,,,,,,,,,,,,,,,,"[""chips.png""]","[""cashew.png""]",PB18.png,,,,,,,,,,,0,6,"[""cashew.png""]","[""cashew.png""]","[""cashew.png""]","[""cashew.png""]","[""cashew.png""]","[""cashew.png""]",blank.png,PB18.png,PB07.png,"[""cashew.png""]","[""cashew.png""]","[""cashew.png""]","[""cashew.png""]","[""cashew.png""]","[""cashew.png""]","[""cashew.png""]",blank.png,blank.png,blank.png,blank.png,blank.png,1,"[""chips.png""]",blank.png,blank.png,blank.png,1,"[""cashew.png""]",blank.png,blank.png,blank.png,blank.png,blank.png,PB07.png,,,,,,,,,,,1,,,,,,,,,,,,499.9860000000335,,timeout,,,,,,,,,,,,white,4,,,,,,,,,,,,,,,,,,,,,,,,,,,,,,,,,,,,,,,,,,,,,,,,,,,,,,,,,"[""cashew.png""]","[""chips.png""]",,,,3,,,false,,1,,,,,,,472578.44500010833,472573.136,472073.15,472074.85000020824,472080.094,472580.08,,,,
choice_sequence,flow.Sequence,2_4_3_6_1_0_1_0_0_0,2021-01-14T18:37:28.975Z,,,blank.png,blank.png,blank.png,blank.png,blank.png,blank.png,blank.png,"[""chips.png""]",blank.png,blank.png,blank.png,blank.png,blank.png,,,,,,,,,,,,,,,,,,,,,,,,,,,,,"[""chips.png""]","[""cashew.png""]",PB18.png,,,,,,,,,,,0,6,"[""cashew.png""]","[""cashew.png""]","[""cashew.png""]","[""cashew.png""]","[""cashew.png""]","[""cashew.png""]",blank.png,PB18.png,PB07.png,"[""cashew.png""]","[""cashew.png""]","[""cashew.png""]","[""cashew.png""]","[""cashew.png""]","[""cashew.png""]","[""cashew.png""]",blank.png,blank.png,blank.png,blank.png,blank.png,1,"[""chips.png""]",blank.png,blank.png,blank.png,1,"[""cashew.png""]",blank.png,blank.png,blank.png,blank.png,blank.png,PB07.png,,,,,,,,,,,1,,,,,,,,,,,,3534.8059999999823,,completion,,,,,,,,,,,,,4,,,,,,,,,,,,,,,,,,,,,,,,,,,,,,,,,,,,,,,,,,,,,,,,,,,,,,,,,"[""cashew.png""]","[""chips.png""]",,,,3,,,false,,1,,,,,,,472578.70500022545,472573.136,469024.442,469028.0900001526,469038.33,472580.08,,,,
fixCross,canvas.Screen,2_4_3_6_1_0_1_0_0_1_0,2021-01-14T18:37:29.422Z,,,blank.png,blank.png,blank.png,blank.png,blank.png,blank.png,blank.png,"[""chips.png""]",blank.png,blank.png,blank.png,blank.png,blank.png,,,,,,,,,,,,,,,,,,,,,,,,,,,,,"[""chips.png""]","[""cashew.png""]",PB18.png,,,,,,,,,,,0,6,"[""cashew.png""]","[""cashew.png""]","[""cashew.png""]","[""cashew.png""]","[""cashew.png""]","[""cashew.png""]",blank.png,PB18.png,PB16.png,"[""cashew.png""]","[""cashew.png""]","[""cashew.png""]","[""cashew.png""]","[""cashew.png""]","[""cashew.png""]","[""cashew.png""]","[""cashew.png""]","[""cashew.png""]","[""cashew.png""]","[""cashew.png""]",blank.png,1,"[""chips.png""]",blank.png,blank.png,blank.png,5,"[""cashew.png""]","[""cashew.png""]","[""cashew.png""]","[""cashew.png""]","[""cashew.png""]",blank.png,PB16.png,,,,,,,,,,,1,,,,,,,,,,,,771.0380000000005,,timeout,,,,,,,,,,,,,4,,,,,,,,,,,,,,,,,,,,,,,,,,,,,,,,,,,,,,,,,,,,,,,,,,,,,,,,,"[""cashew.png""]","[""chips.png""]",,,,3,,,false,,1,,,,,,,473025.30000009574,473024.75,472573.136,472581.6650001798,472580.08,473351.118,9,,,
timeout,canvas.Screen,2_4_3_6_1_0_1_0_0_1_1,2021-01-14T18:37:30.241Z,,,blank.png,blank.png,blank.png,blank.png,blank.png,blank.png,blank.png,"[""chips.png""]",blank.png,blank.png,blank.png,blank.png,blank.png,,,,,,,,,,,,,,,,,,,,,,,,,,,,,"[""chips.png""]","[""cashew.png""]",PB18.png,,,,,,,,,,,0,6,"[""cashew.png""]","[""cashew.png""]","[""cashew.png""]","[""cashew.png""]","[""cashew.png""]","[""cashew.png""]",blank.png,PB18.png,PB16.png,"[""cashew.png""]","[""cashew.png""]","[""cashew.png""]","[""cashew.png""]","[""cashew.png""]","[""cashew.png""]","[""cashew.png""]","[""cashew.png""]","[""cashew.png""]","[""cashew.png""]","[""cashew.png""]",blank.png,1,"[""chips.png""]",blank.png,blank.png,blank.png,5,"[""cashew.png""]","[""cashew.png""]","[""cashew.png""]","[""cashew.png""]","[""cashew.png""]",blank.png,PB16.png,,,,,,,,,,,1,,,,,,,,,,,,826.2699999999604,,timeout,,,,,,,,,,,,,4,,,,,,,,,,,,,,,,,,,,,,,,,,,,,,,,,,,,,,,,,,,,,,,,,,,,,,,,,"[""cashew.png""]","[""chips.png""]",,,,3,,,false,,1,,,,,,,473844.6300001815,473844.076,473024.75,473349.86000019126,473351.118,474177.388,,,,
choice,canvas.Screen,2_4_3_6_1_0_1_0_0_1_2,2021-01-14T18:37:30.921Z,,,blank.png,blank.png,blank.png,blank.png,blank.png,blank.png,blank.png,"[""chips.png""]",blank.png,blank.png,blank.png,blank.png,blank.png,,,,,,,,,,,,,,,,,,,,,,,,,,,,,"[""chips.png""]","[""cashew.png""]",PB18.png,,,,,,,,,,,0,6,"[""cashew.png""]","[""cashew.png""]","[""cashew.png""]","[""cashew.png""]","[""cashew.png""]","[""cashew.png""]",blank.png,PB18.png,PB16.png,"[""cashew.png""]","[""cashew.png""]","[""cashew.png""]","[""cashew.png""]","[""cashew.png""]","[""cashew.png""]","[""cashew.png""]","[""cashew.png""]","[""cashew.png""]","[""cashew.png""]","[""cashew.png""]",blank.png,1,"[""chips.png""]",blank.png,blank.png,blank.png,5,"[""cashew.png""]","[""cashew.png""]","[""cashew.png""]","[""cashew.png""]","[""cashew.png""]",blank.png,PB16.png,,,,,,,,,,,1,,,,,,,,,,,,346.2970001383801,,response,,,,,,,,,,,,,4,,,,,,,,,,,,,,,,,,,,,,,,,,,,,,,,,,,,,,,,,,,,,,,,,,,,,,,,,"[""cashew.png""]","[""chips.png""]",,,,3,right,keydown(ArrowRight),false,,1,,,,,,,474524.30000016466,474523.68500013836,473844.076,474172.1350001171,474177.388,474850.966,,9,,
square,canvas.Screen,2_4_3_6_1_0_1_0_0_1_3,2021-01-14T18:37:32.241Z,,,blank.png,blank.png,blank.png,blank.png,blank.png,blank.png,blank.png,"[""chips.png""]",blank.png,blank.png,blank.png,blank.png,blank.png,,,,,,,,,,,,,,,,,,,,,,,,,,,,,"[""chips.png""]","[""cashew.png""]",PB18.png,,,,,,,,,,,0,6,"[""cashew.png""]","[""cashew.png""]","[""cashew.png""]","[""cashew.png""]","[""cashew.png""]","[""cashew.png""]",blank.png,PB18.png,PB16.png,"[""cashew.png""]","[""cashew.png""]","[""cashew.png""]","[""cashew.png""]","[""cashew.png""]","[""cashew.png""]","[""cashew.png""]","[""cashew.png""]","[""cashew.png""]","[""cashew.png""]","[""cashew.png""]",blank.png,1,"[""chips.png""]",blank.png,blank.png,blank.png,5,"[""cashew.png""]","[""cashew.png""]","[""cashew.png""]","[""cashew.png""]","[""cashew.png""]",blank.png,PB16.png,,,,,,,,,,,1,,#808080,#33ff3f,,,,,,,,,1000.0540000000037,,timeout,,,,,,,,,,,,,4,,,,,,,,,,,,,,,,,,,,,,,,,,,,,,,,,,,,,,,,,,,,,,,,,,,,,,,,,"[""cashew.png""]","[""chips.png""]",,,,3,,,false,,1,,,,,white,black,475845.0450000819,475844.076,474844.022,474847.46000007726,474850.966,475851.02,,,,
ITI_late,canvas.Screen,2_4_3_6_1_0_1_0_0_1_4,2021-01-14T18:37:32.741Z,,,blank.png,blank.png,blank.png,blank.png,blank.png,blank.png,blank.png,"[""chips.png""]",blank.png,blank.png,blank.png,blank.png,blank.png,,,,,,,,,,,,,,,,,,,,,,,,,,,,,"[""chips.png""]","[""cashew.png""]",PB18.png,,,,,,,,,,,0,6,"[""cashew.png""]","[""cashew.png""]","[""cashew.png""]","[""cashew.png""]","[""cashew.png""]","[""cashew.png""]",blank.png,PB18.png,PB16.png,"[""cashew.png""]","[""cashew.png""]","[""cashew.png""]","[""cashew.png""]","[""cashew.png""]","[""cashew.png""]","[""cashew.png""]","[""cashew.png""]","[""cashew.png""]","[""cashew.png""]","[""cashew.png""]",blank.png,1,"[""chips.png""]",blank.png,blank.png,blank.png,5,"[""cashew.png""]","[""cashew.png""]","[""cashew.png""]","[""cashew.png""]","[""cashew.png""]",blank.png,PB16.png,,,,,,,,,,,1,,,,,,,,,,,,500.0989999999874,,timeout,,,,,,,,,,,,white,4,,,,,,,,,,,,,,,,,,,,,,,,,,,,,,,,,,,,,,,,,,,,,,,,,,,,,,,,,"[""cashew.png""]","[""chips.png""]",,,,3,,,false,,1,,,,,,,476345.2150002122,476344.175,475844.076,475846.16000019014,475851.02,476351.119,,,,
choice_sequence,flow.Sequence,2_4_3_6_1_0_1_0_0_1,2021-01-14T18:37:32.742Z,,,blank.png,blank.png,blank.png,blank.png,blank.png,blank.png,blank.png,"[""chips.png""]",blank.png,blank.png,blank.png,blank.png,blank.png,,,,,,,,,,,,,,,,,,,,,,,,,,,,,"[""chips.png""]","[""cashew.png""]",PB18.png,,,,,,,,,,,0,6,"[""cashew.png""]","[""cashew.png""]","[""cashew.png""]","[""cashew.png""]","[""cashew.png""]","[""cashew.png""]",blank.png,PB18.png,PB16.png,"[""cashew.png""]","[""cashew.png""]","[""cashew.png""]","[""cashew.png""]","[""cashew.png""]","[""cashew.png""]","[""cashew.png""]","[""cashew.png""]","[""cashew.png""]","[""cashew.png""]","[""cashew.png""]",blank.png,1,"[""chips.png""]",blank.png,blank.png,blank.png,5,"[""cashew.png""]","[""cashew.png""]","[""cashew.png""]","[""cashew.png""]","[""cashew.png""]",blank.png,PB16.png,,,,,,,,,,,1,,,,,,,,,,,,3764.094999999972,,completion,,,,,,,,,,,,,4,,,,,,,,,,,,,,,,,,,,,,,,,,,,,,,,,,,,,,,,,,,,,,,,,,,,,,,,,"[""cashew.png""]","[""chips.png""]",,,,3,,,false,,1,,,,,,,476345.500000054,476344.175,472573.136,472580.90500021353,472580.08,476351.119,,,,
fixCross,canvas.Screen,2_4_3_6_1_0_1_0_0_2_0,2021-01-14T18:37:33.394Z,,,blank.png,"[""chips.png""]",blank.png,blank.png,blank.png,blank.png,blank.png,blank.png,blank.png,blank.png,blank.png,blank.png,blank.png,,,,,,,,,,,,,,,,,,,,,,,,,,,,,"[""chips.png""]","[""cashew.png""]",PB12.png,,,,,,,,,,,0,6,"[""cashew.png""]","[""cashew.png""]","[""cashew.png""]","[""cashew.png""]","[""cashew.png""]","[""cashew.png""]",blank.png,PB18.png,PB18.png,"[""cashew.png""]","[""cashew.png""]",blank.png,blank.png,blank.png,blank.png,"[""cashew.png""]","[""cashew.png""]","[""cashew.png""]","[""cashew.png""]","[""cashew.png""]","[""cashew.png""]",1,"[""chips.png""]",blank.png,blank.png,blank.png,2,"[""cashew.png""]","[""cashew.png""]",blank.png,blank.png,blank.png,blank.png,PB12.png,,,,,,,,,,,1,,,,,,,,,,,,916.6089999999967,,timeout,,,,,,,,,,,,,3,,,,,,,,,,,,,,,,,,,,,,,,,,,,,,,,,,,,,,,,,,,,,,,,,,,,,,,,,"[""cashew.png""]","[""chips.png""]",,,,3,,,false,,1,,,,,,,476997.3699999973,476996.912,476344.175,476348.7500001211,476351.119,477267.728,10,,,
timeout,canvas.Screen,2_4_3_6_1_0_1_0_0_2_1,2021-01-14T18:37:34.158Z,,,blank.png,"[""chips.png""]",blank.png,blank.png,blank.png,blank.png,blank.png,blank.png,blank.png,blank.png,blank.png,blank.png,blank.png,,,,,,,,,,,,,,,,,,,,,,,,,,,,,"[""chips.png""]","[""cashew.png""]",PB12.png,,,,,,,,,,,0,6,"[""cashew.png""]","[""cashew.png""]","[""cashew.png""]","[""cashew.png""]","[""cashew.png""]","[""cashew.png""]",blank.png,PB18.png,PB18.png,"[""cashew.png""]","[""cashew.png""]",blank.png,blank.png,blank.png,blank.png,"[""cashew.png""]","[""cashew.png""]","[""cashew.png""]","[""cashew.png""]","[""cashew.png""]","[""cashew.png""]",1,"[""chips.png""]",blank.png,blank.png,blank.png,2,"[""cashew.png""]","[""cashew.png""]",blank.png,blank.png,blank.png,blank.png,PB12.png,,,,,,,,,,,1,,,,,,,,,,,,777.7970000000205,,timeout,,,,,,,,,,,,,3,,,,,,,,,,,,,,,,,,,,,,,,,,,,,,,,,,,,,,,,,,,,,,,,,,,,,,,,,"[""cashew.png""]","[""chips.png""]",,,,3,,,false,,1,,,,,,,477762.21000007354,477760.821,476996.912,477266.975000035,477267.728,478045.525,,,,
choice,canvas.Screen,2_4_3_6_1_0_1_0_0_2_2,2021-01-14T18:37:34.668Z,,,blank.png,"[""chips.png""]",blank.png,blank.png,blank.png,blank.png,blank.png,blank.png,blank.png,blank.png,blank.png,blank.png,blank.png,,,,,,,,,,,,,,,,,,,,,,,,,,,,,"[""chips.png""]","[""cashew.png""]",PB12.png,,,,,,,,,,,0,6,"[""cashew.png""]","[""cashew.png""]","[""cashew.png""]","[""cashew.png""]","[""cashew.png""]","[""cashew.png""]",blank.png,PB18.png,PB18.png,"[""cashew.png""]","[""cashew.png""]",blank.png,blank.png,blank.png,blank.png,"[""cashew.png""]","[""cashew.png""]","[""cashew.png""]","[""cashew.png""]","[""cashew.png""]","[""cashew.png""]",1,"[""chips.png""]",blank.png,blank.png,blank.png,2,"[""cashew.png""]","[""cashew.png""]",blank.png,blank.png,blank.png,blank.png,PB12.png,,,,,,,,,,,1,,,,,,,,,,,,225.1700001884019,,response,,,,,,,,,,,,,3,,,,,,,,,,,,,,,,,,,,,,,,,,,,,,,,,,,,,,,,,,,,,,,,,,,,,,,,,"[""cashew.png""]","[""chips.png""]",,,,3,right,keydown(ArrowRight),false,,1,,,,,,,478272.06000010483,478270.6950001884,477760.821,478044.5450001862,478045.525,478545.475,,10,,
square,canvas.Screen,2_4_3_6_1_0_1_0_0_2_3,2021-01-14T18:37:35.936Z,,,blank.png,"[""chips.png""]",blank.png,blank.png,blank.png,blank.png,blank.png,blank.png,blank.png,blank.png,blank.png,blank.png,blank.png,,,,,,,,,,,,,,,,,,,,,,,,,,,,,"[""chips.png""]","[""cashew.png""]",PB12.png,,,,,,,,,,,0,6,"[""cashew.png""]","[""cashew.png""]","[""cashew.png""]","[""cashew.png""]","[""cashew.png""]","[""cashew.png""]",blank.png,PB18.png,PB18.png,"[""cashew.png""]","[""cashew.png""]",blank.png,blank.png,blank.png,blank.png,"[""cashew.png""]","[""cashew.png""]","[""cashew.png""]","[""cashew.png""]","[""cashew.png""]","[""cashew.png""]",1,"[""chips.png""]",blank.png,blank.png,blank.png,2,"[""cashew.png""]","[""cashew.png""]",blank.png,blank.png,blank.png,blank.png,PB12.png,,,,,,,,,,,1,,#808080,#33ff3f,,,,,,,,,1000.0020000000368,,timeout,,,,,,,,,,,,,3,,,,,,,,,,,,,,,,,,,,,,,,,,,,,,,,,,,,,,,,,,,,,,,,,,,,,,,,,"[""cashew.png""]","[""chips.png""]",,,,3,,,false,,1,,,,,white,black,479539.48000003584,479538.533,478538.531,478540.73500004597,478545.475,479545.477,,,,
ITI_late,canvas.Screen,2_4_3_6_1_0_1_0_0_2_4,2021-01-14T18:37:36.436Z,,,blank.png,"[""chips.png""]",blank.png,blank.png,blank.png,blank.png,blank.png,blank.png,blank.png,blank.png,blank.png,blank.png,blank.png,,,,,,,,,,,,,,,,,,,,,,,,,,,,,"[""chips.png""]","[""cashew.png""]",PB12.png,,,,,,,,,,,0,6,"[""cashew.png""]","[""cashew.png""]","[""cashew.png""]","[""cashew.png""]","[""cashew.png""]","[""cashew.png""]",blank.png,PB18.png,PB18.png,"[""cashew.png""]","[""cashew.png""]",blank.png,blank.png,blank.png,blank.png,"[""cashew.png""]","[""cashew.png""]","[""cashew.png""]","[""cashew.png""]","[""cashew.png""]","[""cashew.png""]",1,"[""chips.png""]",blank.png,blank.png,blank.png,2,"[""cashew.png""]","[""cashew.png""]",blank.png,blank.png,blank.png,blank.png,PB12.png,,,,,,,,,,,1,,,,,,,,,,,,500,,timeout,,,,,,,,,,,,white,3,,,,,,,,,,,,,,,,,,,,,,,,,,,,,,,,,,,,,,,,,,,,,,,,,,,,,,,,,"[""cashew.png""]","[""chips.png""]",,,,3,,,false,,1,,,,,,,480039.4250000827,480038.533,479538.533,479540.5650001485,479545.477,480045.477,,,,
