sender,sender_type,sender_id,timestamp,meta,,Blank,DownLeft1,DownLeft2,DownLeft3,DownLeft4,DownLeft5,DownLeft6,DownRight1,DownRight2,DownRight3,DownRight4,DownRight5,DownRight6,FoodHabits_Fru_item1,FoodHabits_Fru_item2,FoodHabits_Fru_item3,FoodHabits_Fru_item4,FoodHabits_Fru_item5,FoodHabits_Fru_item6,FoodHabits_Fru_item7,FoodHabits_Meat_item1,FoodHabits_Meat_item2,FoodHabits_Meat_item3,FoodHabits_Meat_item4,FoodHabits_Meat_item5,FoodHabits_Meat_item6,FoodHabits_Meat_item7,FoodHabits_Swe_item1,FoodHabits_Swe_item2,FoodHabits_Swe_item3,FoodHabits_Swe_item4,FoodHabits_Swe_item5,FoodHabits_Swe_item6,FoodHabits_Swe_item7,FoodHabits_Veg_item1,FoodHabits_Veg_item2,FoodHabits_Veg_item3,FoodHabits_Veg_item4,FoodHabits_Veg_item5,FoodHabits_Veg_item6,FoodHabits_Veg_item7,ImgA,ImgB,LeftBar,PSS_item01,PSS_item02,PSS_item03,PSS_item04,PSS_item05,PSS_item06,PSS_item07,PSS_item08,PSS_item09,PSS_item10,RefA,RefB,RefB1,RefB2,RefB3,RefB4,RefB5,RefB6,RefB7,Ref_PB,RightBar,UpLeft1,UpLeft2,UpLeft3,UpLeft4,UpLeft5,UpLeft6,UpRight1,UpRight2,UpRight3,UpRight4,UpRight5,UpRight6,VarA,VarA1,VarA2,VarA3,VarA4,VarB,VarB1,VarB2,VarB3,VarB4,VarB5,VarB6,Var_PB,attCheck_fileA,attCheck_fileB,attCheck_fileC,attCheck_fileD,attCheck_options,attCheck_valueA,attCheck_valueB,attCheck_valueC,attCheck_valueD,attention_check,block,browser_name,choseL,choseR,consent_form1,consent_form2,consentconfirmation_form1,consentconfirmation_form2,correct,correctResponse,diet,disorder,duration,edu,ended_on,enjoy,full_version,gender,group,hunger,img,imgTask,input_age,input_meal,input_occ,input_remark,lateRespFeed,list,major_version,message,mixQ_item1,mixQ_item2,mixQ_item3,mixQ_item4,mixQ_item5,name,navigator_appName,navigator_userAgent,os,pracQ1_IDa,pracQ1_IDb,pracQ1_IDc,pracQ1_IDd,pracQ1_optionA,pracQ1_optionB,pracQ1_optionC,pracQ1_optionD,pracQ1_valueA,pracQ1_valueB,pracQ1_valueC,pracQ1_valueD,pracQ2_IDa,pracQ2_IDb,pracQ2_IDc,pracQ2_optionA,pracQ2_optionB,pracQ2_optionC,pracQ2_valueA,pracQ2_valueB,pracQ2_valueC,pracQ4_IDa,pracQ4_IDb,pracQ4_IDc,pracQ4_IDd,pracQ4_optionA,pracQ4_optionB,pracQ4_optionC,pracQ4_optionD,pracQ4_valueA,pracQ4_valueB,pracQ4_valueC,pracQ4_valueD,pracQ5_IDa,pracQ5_IDb,pracQ5_IDc,pracQ5_IDd,pracQ5_optionA,pracQ5_optionB,pracQ5_optionC,pracQ5_optionD,pracQ5_valueA,pracQ5_valueB,pracQ5_valueC,pracQ5_valueD,prefHealty,prefUnhealthy,prolific_ID,psessionID,pstudyID,rep,response,response_action,skip,snack,sublock,subtitle,task_difficulty,task_engagement,task_focus,textL,textR,time_commit,time_end,time_render,time_run,time_show,time_switch,trial_count,trial_countO,url,valence
Title,html.Page,0,2021-01-14T18:56:36.381Z,"{""labjs_version"":""20.1.1"",""labjs_build"":{""flavor"":""production"",""commit"":""c48ac4ada3769e8d34489594ab03097d5f256ac7""},""location"":""https://run.pavlovia.org/E3lab/rebund/html/?PROLIFIC_PID={{%PROLIFIC_PID%}}&STUDY_ID={{%STUDY_ID%}}&SESSION_ID={{%SESSION_ID%}}"",""userAgent"":""Mozilla/5.0 (Windows NT 10.0; Win64; x64) AppleWebKit/537.36 (KHTML, like Gecko) Chrome/87.0.4280.141 Safari/537.36"",""platform"":""Win32"",""language"":""en-GB"",""locale"":""el"",""timeZone"":""Europe/Athens"",""timezoneOffset"":-120,""screen_width"":1920,""screen_height"":1080,""scroll_width"":1920,""scroll_height"":889,""window_innerWidth"":1920,""window_innerHeight"":937,""devicePixelRatio"":1}",,,,,,,,,,,,,,,,,,,,,,,,,,,,,,,,,,,,,,,,,,,,,,,,,,,,,,,,,,,,,,,,,,,,,,,,,,,,,,,,,,,,,,,,,,,,,,,,,,,,,,,,,,,,,,,,,,35021.48599999997,,form submission,,,,,,,,,,,,,,,,,,,,,,,,,,,,,,,,,,,,,,,,,,,,,,,,,,,,,,,,,,,,,,,,,,,,,,,,,,,,,,,,,,,,,,,44731.9150000003,44731.45999999997,9696.639,5988.014999999905,9709.974,44740.467,,,"{""PROLIFIC_PID"":""{{%PROLIFIC_PID%}}"",""STUDY_ID"":""{{%STUDY_ID%}}"",""SESSION_ID"":""{{%SESSION_ID%}}""}",
get_systemInfo,canvas.Screen,1,2021-01-14T18:56:36.392Z,,,,,,,,,,,,,,,,,,,,,,,,,,,,,,,,,,,,,,,,,,,,,,,,,,,,,,,,,,,,,,,,,,,,,,,,,,,,,,,,,,,,,,,,,,,,,,,,,,,,,,,,Chrome,,,,,,,,,,,3467.1470000000045,,timeout,,87.0.4280.141,,,,,,,,,,,,87,,,,,,,,Netscape,"Mozilla/5.0 (Windows NT 10.0; Win64; x64) AppleWebKit/537.36 (KHTML, like Gecko) Chrome/87.0.4280.141 Safari/537.36",Windows,,,,,,,,,,,,,,,,,,,,,,,,,,,,,,,,,,,,,,,,,,,,,,,,{{%PROLIFIC_PID%}},,{{%STUDY_ID%}},,,,,,,,,,,,,44743.71500000052,44743.55999999989,44727.132,44732.5550000005,44740.467,48207.614,,,,
ConsentForm,html.Form,2_0,2021-01-14T18:58:25.800Z,,,,,,,,,,,,,,,,,,,,,,,,,,,,,,,,,,,,,,,,,,,,,,,,,,,,,,,,,,,,,,,,,,,,,,,,,,,,,,,,,,,,,,,,,,,,,,,,,,,,,,,,,,,true,true,,,,,,,105943.451,,form submission,,,,,,,,,,,,,,,,,,,,,,,,,,,,,,,,,,,,,,,,,,,,,,,,,,,,,,,,,,,,,,,,,,,,,,,,,,,,,,,,,,,,,,,154151.3450000002,154151.065,44743.55999999989,48212.954999999965,48207.614,154157.742,,,,
PepTalk,html.Page,2_1,2021-01-14T18:58:41.559Z,,,,,,,,,,,,,,,,,,,,,,,,,,,,,,,,,,,,,,,,,,,,,,,,,,,,,,,,,,,,,,,,,,,,,,,,,,,,,,,,,,,,,,,,,,,,,,,,,,,,,,,,,,,,,,,,,,,15752.82300000012,,form submission,,,,,,,,,,,,,,,,,,,,,,,,,,,,,,,,,,,,,,,,,,,,,,,,,,,,,,,,,,,,,,,,,,,,,,,,,,,,,,,,,,,,,,,169910.79500000068,169910.56500000012,154144.407,154151.4450000004,154157.742,169920.123,,,,
Demographics,html.Form,2_2,2021-01-14T18:59:03.982Z,,,,,,,,,,,,,,,,,,,,,,,,,,,,,,,,,,,,,,,,,,,,,,,,,,,,,,,,,,,,,,,,,,,,,,,,,,,,,,,,,,,,,,,,,,,,,,,,,,,,,,,,,,,,,,,,,,,22413.832000000082,2,form submission,,,2,,,,,23,,Student,,,,,,,,,,,,,,,,,,,,,,,,,,,,,,,,,,,,,,,,,,,,,,,,,,,,,,,,,,,,,,,,,,,,,,,,,,,,,192334.16000000032,192333.95500000007,169906.788,169910.8750000005,169920.123,192336.95,,,,
InclusionCrit,html.Form,2_3,2021-01-14T18:59:13.054Z,,,,,,,,,,,,,,,,,,,,,,,,,,,,,,,,,,,,,,,,,,,,,,,,,,,,,,,,,,,,,,,,,,,,,,,,,,,,,,,,,,,,,,,,,,,,,,,,,,,,,,,,,,,,,,,,,1,1,9068.070000000123,,form submission,1,,,,,,,,,,,,,,,,,,,,,,,,,,,,,,,,,,,,,,,,,,,,,,,,,,,,,,,,,,,,,,,,,,,,,,,,,,,,,,,,,,,,,,201405.2550000006,201405.02000000014,192323.615,192334.245,192336.95,201405.05,,,,
Selection,html.Page,2_4_0,2021-01-14T18:59:31.968Z,,,,,,,,,,,,,,,,,,,,,,,,,,,,,,,,,,,,,,,,,,,,,,,,,,,,,,,,,,,,,,,,,,,,,,,,,,,,,,,,,,,,,,,,,,,,,,,,,,,,,,,,,,,,,,,,,,,18914.689999999915,,form submission,,,,,,,,,,,,,,,,,,,,,,,,,,,,,,,,,,,,,,,,,,,,,,,,,,,,,,,,,,,,,,,,,,,,,,,,,,,,,,,1,,,,,,,,220319.9650000006,220319.7399999999,201391.715,201405.385,201405.05,220327.98,,,,
Load,html.Page,2_4_1,2021-01-14T18:59:31.978Z,,,,,,,,,,,,,,,,,,,,,,,,,,,,,,,,,,,,,,,,,,,,,,,,,,,,,,,,,,,,,,,,,,,,,,,,,,,,,,,,,,,,,,,,,,,,,,,,,,,,,,,,,,,,,,,,,,,39286.12399999998,,timeout,,,,,,,,,,,,,,,,,,,,,,,,,,,,,,,,,,,,,,,,,,,,,,,,,,,,,,,,,,,,,,,,,,,,,,,,,,,,,,,,,,,,,,,220329.2449999999,220329.11000000057,220314.645,220320.05000000028,220327.98,259614.104,,,,
SequenceSweet,flow.Sequence,2_4_2,2021-01-14T18:59:53.459Z,,,,,,,,,,,,,,,,,,,,,,,,,,,,,,,,,,,,,,,,,,,,,,,,,,,,,,,,,,,,,,,,,,,,,,,,,,,,,,,,,,,,,,,,,,,,,,,,,,,,,,,,,,,,,,,,,,,NaN,,skipped,,,,,,,,,,,,,,,,,,,,,,,,,,,,,,,,,,,,,,,,,,,,,,,,,,,,,,,,,,,,,,,,,,,,,,,,,,,,,,true,,,,,,,,,241811.10500000068,220329.11000000057,,241810.93500000043,,259614.104,0,0,,
ratings_instructions,html.Screen,2_4_3_0,2021-01-14T19:00:40.350Z,,,,,,,,,,,,,,,,,,,,,,,,,,,,,,,,,,,,,,,,,,,,,,,,,,,,,,,,,,,,,,,,,,,,,,,,,,,,,,,,,,,,,,,,,,,,,,,,,,,,,,,,,,,,,,,,,,,29086.3010000005,,response,,,,,,,,,,,,,,,,,,,,,,,,,,,,,,,,,,,,,,,,,,,,,,,,,,,,,,,,,,,,,,,,,,,,,,,,,,,,continue,keypress(Space),false,,,,,,,,,288701.6600000006,288700.4050000005,220329.11000000057,259628.7250000005,259614.104,288711.87,0,0,,
fixCross,canvas.Screen,2_4_3_1_0_0,2021-01-14T19:00:40.842Z,,,,,,,,,,,,,,,,,,,,,,,,,,,,,,,,,,,,,,,,,,,,,,,,,,,,,,,,,,,,,,,,,,,,,,,,,,,,,,,,,,,,,,,,,,,,,,,,,,,,,,,,,,,,,,,,,,,493.51500000001397,,timeout,,,,healthy,,tomato.png,,,,,,,,,,,,,,,cherry tomato,,,,,,,,,,,,,,,,,,,,,,,,,,,,,,,,,,,,,,,,,,,,,,,,,,,,,,,,,false,,,,,,,,,289193.35000000044,289192.05,288698.535,288701.7999999998,288711.87,289205.385,,,,
Rating,html.Form,2_4_3_1_0_1,2021-01-14T19:00:53.431Z,,,,,,,,,,,,,,,,,,,,,,,,,,,,,,,,,,,,,,,,,,,,,,,,,,,,,,,,,,,,,,,,,,,,,,,,,,,,,,,,,,,,,,,,,,,,,,,,,,,,,,,,,,,,,,,,,,,12577.230000000098,,form submission,,,,healthy,,tomato.png,,,,,,,,,,,,,,,cherry tomato,,,,,,,,,,,,,,,,,,,,,,,,,,,,,,,,,,,,,,,,,,,,,,,,,,,,,,,,,false,,,,,,,,,301782.8749999999,301782.6150000001,289192.05,289193.4300000003,289205.385,301794.033,,,,64
rating_sequence,flow.Sequence,2_4_3_1_0,2021-01-14T19:00:53.431Z,,,,,,,,,,,,,,,,,,,,,,,,,,,,,,,,,,,,,,,,,,,,,,,,,,,,,,,,,,,,,,,,,,,,,,,,,,,,,,,,,,,,,,,,,,,,,,,,,,,,,,,,,,,,,,,,,,,13070.745000000112,,completion,,,,healthy,,tomato.png,,,,,,,,,,,,,,,cherry tomato,,,,,,,,,,,,,,,,,,,,,,,,,,,,,,,,,,,,,,,,,,,,,,,,,,,,,,,,,false,,,,,,,,,301783.0250000006,301782.6150000001,288698.535,288701.7800000003,288711.87,301794.033,,,,
fixCross,canvas.Screen,2_4_3_1_1_0,2021-01-14T19:00:53.923Z,,,,,,,,,,,,,,,,,,,,,,,,,,,,,,,,,,,,,,,,,,,,,,,,,,,,,,,,,,,,,,,,,,,,,,,,,,,,,,,,,,,,,,,,,,,,,,,,,,,,,,,,,,,,,,,,,,,493.3879999999772,,timeout,,,,unhealthy,,sausage.png,,,,,,,,,,,,,,,salami,,,,,,,,,,,,,,,,,,,,,,,,,,,,,,,,,,,,,,,,,,,,,,,,,,,,,,,,,false,,,,,,,,,302275.3050000001,302274.086,301780.698,301783.09500000067,301794.033,302287.421,,,,
Rating,html.Form,2_4_3_1_1_1,2021-01-14T19:00:59.925Z,,,,,,,,,,,,,,,,,,,,,,,,,,,,,,,,,,,,,,,,,,,,,,,,,,,,,,,,,,,,,,,,,,,,,,,,,,,,,,,,,,,,,,,,,,,,,,,,,,,,,,,,,,,,,,,,,,,5989.194000000716,,form submission,,,,unhealthy,,sausage.png,,,,,,,,,,,,,,,salami,,,,,,,,,,,,,,,,,,,,,,,,,,,,,,,,,,,,,,,,,,,,,,,,,,,,,,,,,false,,,,,,,,,308276.8300000007,308276.6150000007,302274.086,302275.36000000057,302287.421,308288.379,,,,69
rating_sequence,flow.Sequence,2_4_3_1_1,2021-01-14T19:00:59.926Z,,,,,,,,,,,,,,,,,,,,,,,,,,,,,,,,,,,,,,,,,,,,,,,,,,,,,,,,,,,,,,,,,,,,,,,,,,,,,,,,,,,,,,,,,,,,,,,,,,,,,,,,,,,,,,,,,,,6482.582000000693,,completion,,,,unhealthy,,sausage.png,,,,,,,,,,,,,,,salami,,,,,,,,,,,,,,,,,,,,,,,,,,,,,,,,,,,,,,,,,,,,,,,,,,,,,,,,,false,,,,,,,,,308276.9100000005,308276.6150000007,301780.698,301783.0750000003,301794.033,308288.379,,,,
fixCross,canvas.Screen,2_4_3_1_2_0,2021-01-14T19:01:00.418Z,,,,,,,,,,,,,,,,,,,,,,,,,,,,,,,,,,,,,,,,,,,,,,,,,,,,,,,,,,,,,,,,,,,,,,,,,,,,,,,,,,,,,,,,,,,,,,,,,,,,,,,,,,,,,,,,,,,493.40200000000186,,timeout,,,,unhealthy,,peanut_cracker.png,,,,,,,,,,,,,,,peanut chip,,,,,,,,,,,,,,,,,,,,,,,,,,,,,,,,,,,,,,,,,,,,,,,,,,,,,,,,,false,,,,,,,,,308769.3600000002,308768.446,308275.044,308276.96000000014,308288.379,308781.781,,,,
Rating,html.Form,2_4_3_1_2_1,2021-01-14T19:01:04.968Z,,,,,,,,,,,,,,,,,,,,,,,,,,,,,,,,,,,,,,,,,,,,,,,,,,,,,,,,,,,,,,,,,,,,,,,,,,,,,,,,,,,,,,,,,,,,,,,,,,,,,,,,,,,,,,,,,,,4536.983999999997,,form submission,,,,unhealthy,,peanut_cracker.png,,,,,,,,,,,,,,,peanut chip,,,,,,,,,,,,,,,,,,,,,,,,,,,,,,,,,,,,,,,,,,,,,,,,,,,,,,,,,false,,,,,,,,,313319.015,313318.765,308768.446,308769.4200000005,308781.781,313329.577,,,,68
rating_sequence,flow.Sequence,2_4_3_1_2,2021-01-14T19:01:04.968Z,,,,,,,,,,,,,,,,,,,,,,,,,,,,,,,,,,,,,,,,,,,,,,,,,,,,,,,,,,,,,,,,,,,,,,,,,,,,,,,,,,,,,,,,,,,,,,,,,,,,,,,,,,,,,,,,,,,5030.385999999999,,completion,,,,unhealthy,,peanut_cracker.png,,,,,,,,,,,,,,,peanut chip,,,,,,,,,,,,,,,,,,,,,,,,,,,,,,,,,,,,,,,,,,,,,,,,,,,,,,,,,false,,,,,,,,,313319.1200000001,313318.765,308275.044,308276.94500000053,308288.379,313329.577,,,,
fixCross,canvas.Screen,2_4_3_1_3_0,2021-01-14T19:01:05.472Z,,,,,,,,,,,,,,,,,,,,,,,,,,,,,,,,,,,,,,,,,,,,,,,,,,,,,,,,,,,,,,,,,,,,,,,,,,,,,,,,,,,,,,,,,,,,,,,,,,,,,,,,,,,,,,,,,,,506.10999999998603,,timeout,,,,healthy,,edamame.png,,,,,,,,,,,,,,,edamame,,,,,,,,,,,,,,,,,,,,,,,,,,,,,,,,,,,,,,,,,,,,,,,,,,,,,,,,,false,,,,,,,,,313823.3200000004,313822.352,313316.242,313319.1850000003,313329.577,313835.687,,,,
Rating,html.Form,2_4_3_1_3_1,2021-01-14T19:01:11.388Z,,,,,,,,,,,,,,,,,,,,,,,,,,,,,,,,,,,,,,,,,,,,,,,,,,,,,,,,,,,,,,,,,,,,,,,,,,,,,,,,,,,,,,,,,,,,,,,,,,,,,,,,,,,,,,,,,,,5903.082999999926,,form submission,,,,healthy,,edamame.png,,,,,,,,,,,,,,,edamame,,,,,,,,,,,,,,,,,,,,,,,,,,,,,,,,,,,,,,,,,,,,,,,,,,,,,,,,,false,,,,,,,,,319738.9750000002,319738.7699999999,313822.352,313823.37499999994,313835.687,319743.506,,,,53
rating_sequence,flow.Sequence,2_4_3_1_3,2021-01-14T19:01:11.388Z,,,,,,,,,,,,,,,,,,,,,,,,,,,,,,,,,,,,,,,,,,,,,,,,,,,,,,,,,,,,,,,,,,,,,,,,,,,,,,,,,,,,,,,,,,,,,,,,,,,,,,,,,,,,,,,,,,,6409.192999999912,,completion,,,,healthy,,edamame.png,,,,,,,,,,,,,,,edamame,,,,,,,,,,,,,,,,,,,,,,,,,,,,,,,,,,,,,,,,,,,,,,,,,,,,,,,,,false,,,,,,,,,319739.0599999999,319738.7699999999,313316.242,313319.16000000003,313329.577,319743.506,,,,
fixCross,canvas.Screen,2_4_3_1_4_0,2021-01-14T19:01:11.874Z,,,,,,,,,,,,,,,,,,,,,,,,,,,,,,,,,,,,,,,,,,,,,,,,,,,,,,,,,,,,,,,,,,,,,,,,,,,,,,,,,,,,,,,,,,,,,,,,,,,,,,,,,,,,,,,,,,,493.4180000000051,,timeout,,,,unhealthy,,chips.png,,,,,,,,,,,,,,,potato chip,,,,,,,,,,,,,,,,,,,,,,,,,,,,,,,,,,,,,,,,,,,,,,,,,,,,,,,,,false,,,,,,,,,320225.34499999986,320223.589,319730.171,319739.11500000034,319743.506,320236.924,,,,
Rating,html.Form,2_4_3_1_4_1,2021-01-14T19:01:14.961Z,,,,,,,,,,,,,,,,,,,,,,,,,,,,,,,,,,,,,,,,,,,,,,,,,,,,,,,,,,,,,,,,,,,,,,,,,,,,,,,,,,,,,,,,,,,,,,,,,,,,,,,,,,,,,,,,,,,3074.816000000108,,form submission,,,,unhealthy,,chips.png,,,,,,,,,,,,,,,potato chip,,,,,,,,,,,,,,,,,,,,,,,,,,,,,,,,,,,,,,,,,,,,,,,,,,,,,,,,,false,,,,,,,,,323311.93500000064,323311.7400000001,320223.589,320225.40500000014,320236.924,323317.398,,,,55
rating_sequence,flow.Sequence,2_4_3_1_4,2021-01-14T19:01:14.961Z,,,,,,,,,,,,,,,,,,,,,,,,,,,,,,,,,,,,,,,,,,,,,,,,,,,,,,,,,,,,,,,,,,,,,,,,,,,,,,,,,,,,,,,,,,,,,,,,,,,,,,,,,,,,,,,,,,,3568.234000000113,,completion,,,,unhealthy,,chips.png,,,,,,,,,,,,,,,potato chip,,,,,,,,,,,,,,,,,,,,,,,,,,,,,,,,,,,,,,,,,,,,,,,,,,,,,,,,,false,,,,,,,,,323312.0150000004,323311.7400000001,319730.171,319739.1000000007,319743.506,323317.398,,,,
fixCross,canvas.Screen,2_4_3_1_5_0,2021-01-14T19:01:15.447Z,,,,,,,,,,,,,,,,,,,,,,,,,,,,,,,,,,,,,,,,,,,,,,,,,,,,,,,,,,,,,,,,,,,,,,,,,,,,,,,,,,,,,,,,,,,,,,,,,,,,,,,,,,,,,,,,,,,493.39000000001397,,timeout,,,,unhealthy,,frie.png,,,,,,,,,,,,,,,frie,,,,,,,,,,,,,,,,,,,,,,,,,,,,,,,,,,,,,,,,,,,,,,,,,,,,,,,,,false,,,,,,,,,323798.2099999999,323797.453,323304.063,323312.06999999995,323317.398,323810.788,,,,
Rating,html.Form,2_4_3_1_5_1,2021-01-14T19:01:22.788Z,,,,,,,,,,,,,,,,,,,,,,,,,,,,,,,,,,,,,,,,,,,,,,,,,,,,,,,,,,,,,,,,,,,,,,,,,,,,,,,,,,,,,,,,,,,,,,,,,,,,,,,,,,,,,,,,,,,7328.012000000628,,form submission,,,,unhealthy,,frie.png,,,,,,,,,,,,,,,frie,,,,,,,,,,,,,,,,,,,,,,,,,,,,,,,,,,,,,,,,,,,,,,,,,,,,,,,,,false,,,,,,,,,331139.0250000004,331138.8000000006,323797.453,323798.26500000036,323810.788,331145.28,,,,79
rating_sequence,flow.Sequence,2_4_3_1_5,2021-01-14T19:01:22.788Z,,,,,,,,,,,,,,,,,,,,,,,,,,,,,,,,,,,,,,,,,,,,,,,,,,,,,,,,,,,,,,,,,,,,,,,,,,,,,,,,,,,,,,,,,,,,,,,,,,,,,,,,,,,,,,,,,,,7821.402000000642,,completion,,,,unhealthy,,frie.png,,,,,,,,,,,,,,,frie,,,,,,,,,,,,,,,,,,,,,,,,,,,,,,,,,,,,,,,,,,,,,,,,,,,,,,,,,false,,,,,,,,,331139.13000000047,331138.8000000006,323304.063,323312.05500000034,323317.398,331145.28,,,,
fixCross,canvas.Screen,2_4_3_1_6_0,2021-01-14T19:01:23.275Z,,,,,,,,,,,,,,,,,,,,,,,,,,,,,,,,,,,,,,,,,,,,,,,,,,,,,,,,,,,,,,,,,,,,,,,,,,,,,,,,,,,,,,,,,,,,,,,,,,,,,,,,,,,,,,,,,,,493.41300000000047,,timeout,,,,healthy,,carrot.png,,,,,,,,,,,,,,,carrot,,,,,,,,,,,,,,,,,,,,,,,,,,,,,,,,,,,,,,,,,,,,,,,,,,,,,,,,,false,,,,,,,,,331626.39500000025,331625.358,331131.945,331139.20000000054,331145.28,331638.693,,,,
Rating,html.Form,2_4_3_1_6_1,2021-01-14T19:01:29.418Z,,,,,,,,,,,,,,,,,,,,,,,,,,,,,,,,,,,,,,,,,,,,,,,,,,,,,,,,,,,,,,,,,,,,,,,,,,,,,,,,,,,,,,,,,,,,,,,,,,,,,,,,,,,,,,,,,,,6130.167000000074,,form submission,,,,healthy,,carrot.png,,,,,,,,,,,,,,,carrot,,,,,,,,,,,,,,,,,,,,,,,,,,,,,,,,,,,,,,,,,,,,,,,,,,,,,,,,,false,,,,,,,,,337769.045,337768.8600000001,331625.358,331626.45500000054,331638.693,337772.992,,,,34
rating_sequence,flow.Sequence,2_4_3_1_6,2021-01-14T19:01:29.418Z,,,,,,,,,,,,,,,,,,,,,,,,,,,,,,,,,,,,,,,,,,,,,,,,,,,,,,,,,,,,,,,,,,,,,,,,,,,,,,,,,,,,,,,,,,,,,,,,,,,,,,,,,,,,,,,,,,,6623.5800000000745,,completion,,,,healthy,,carrot.png,,,,,,,,,,,,,,,carrot,,,,,,,,,,,,,,,,,,,,,,,,,,,,,,,,,,,,,,,,,,,,,,,,,,,,,,,,,false,,,,,,,,,337769.1250000007,337768.8600000001,331131.945,331139.1750000003,331145.28,337772.992,,,,
fixCross,canvas.Screen,2_4_3_1_7_0,2021-01-14T19:01:29.902Z,,,,,,,,,,,,,,,,,,,,,,,,,,,,,,,,,,,,,,,,,,,,,,,,,,,,,,,,,,,,,,,,,,,,,,,,,,,,,,,,,,,,,,,,,,,,,,,,,,,,,,,,,,,,,,,,,,,493.3849999999511,,timeout,,,,unhealthy,,ham.png,,,,,,,,,,,,,,,ham,,,,,,,,,,,,,,,,,,,,,,,,,,,,,,,,,,,,,,,,,,,,,,,,,,,,,,,,,false,,,,,,,,,338253.3600000006,338253.042,337759.657,337769.1800000002,337772.992,338266.377,,,,
Rating,html.Form,2_4_3_1_7_1,2021-01-14T19:01:33.322Z,,,,,,,,,,,,,,,,,,,,,,,,,,,,,,,,,,,,,,,,,,,,,,,,,,,,,,,,,,,,,,,,,,,,,,,,,,,,,,,,,,,,,,,,,,,,,,,,,,,,,,,,,,,,,,,,,,,3406.428000000189,,form submission,,,,unhealthy,,ham.png,,,,,,,,,,,,,,,ham,,,,,,,,,,,,,,,,,,,,,,,,,,,,,,,,,,,,,,,,,,,,,,,,,,,,,,,,,false,,,,,,,,,341673.03500000073,341672.80500000017,338253.042,338253.42,338266.377,341680.358,,,,56
rating_sequence,flow.Sequence,2_4_3_1_7,2021-01-14T19:01:33.322Z,,,,,,,,,,,,,,,,,,,,,,,,,,,,,,,,,,,,,,,,,,,,,,,,,,,,,,,,,,,,,,,,,,,,,,,,,,,,,,,,,,,,,,,,,,,,,,,,,,,,,,,,,,,,,,,,,,,3899.81300000014,,completion,,,,unhealthy,,ham.png,,,,,,,,,,,,,,,ham,,,,,,,,,,,,,,,,,,,,,,,,,,,,,,,,,,,,,,,,,,,,,,,,,,,,,,,,,false,,,,,,,,,341673.16500000015,341672.80500000017,337759.657,337769.1599999998,337772.992,341680.358,,,,
fixCross,canvas.Screen,2_4_3_1_8_0,2021-01-14T19:01:33.823Z,,,,,,,,,,,,,,,,,,,,,,,,,,,,,,,,,,,,,,,,,,,,,,,,,,,,,,,,,,,,,,,,,,,,,,,,,,,,,,,,,,,,,,,,,,,,,,,,,,,,,,,,,,,,,,,,,,,506.50299999996787,,timeout,,,,healthy,,celery.png,,,,,,,,,,,,,,,celery,,,,,,,,,,,,,,,,,,,,,,,,,,,,,,,,,,,,,,,,,,,,,,,,,,,,,,,,,false,,,,,,,,,342174.3999999999,342173.526,341667.023,341673.24499999994,341680.358,342186.861,,,,
Rating,html.Form,2_4_3_1_8_1,2021-01-14T19:01:39.297Z,,,,,,,,,,,,,,,,,,,,,,,,,,,,,,,,,,,,,,,,,,,,,,,,,,,,,,,,,,,,,,,,,,,,,,,,,,,,,,,,,,,,,,,,,,,,,,,,,,,,,,,,,,,,,,,,,,,5461.0090000007185,,form submission,,,,healthy,,celery.png,,,,,,,,,,,,,,,celery,,,,,,,,,,,,,,,,,,,,,,,,,,,,,,,,,,,,,,,,,,,,,,,,,,,,,,,,,false,,,,,,,,,347648.06000000046,347647.8700000007,342173.526,342174.4600000002,342186.861,347654.522,,,,23
rating_sequence,flow.Sequence,2_4_3_1_8,2021-01-14T19:01:39.297Z,,,,,,,,,,,,,,,,,,,,,,,,,,,,,,,,,,,,,,,,,,,,,,,,,,,,,,,,,,,,,,,,,,,,,,,,,,,,,,,,,,,,,,,,,,,,,,,,,,,,,,,,,,,,,,,,,,,5967.512000000686,,completion,,,,healthy,,celery.png,,,,,,,,,,,,,,,celery,,,,,,,,,,,,,,,,,,,,,,,,,,,,,,,,,,,,,,,,,,,,,,,,,,,,,,,,,false,,,,,,,,,347648.14000000025,347647.8700000007,341667.023,341673.22500000044,341680.358,347654.522,,,,
fixCross,canvas.Screen,2_4_3_1_9_0,2021-01-14T19:01:39.784Z,,,,,,,,,,,,,,,,,,,,,,,,,,,,,,,,,,,,,,,,,,,,,,,,,,,,,,,,,,,,,,,,,,,,,,,,,,,,,,,,,,,,,,,,,,,,,,,,,,,,,,,,,,,,,,,,,,,493.41399999998976,,timeout,,,,unhealthy,,nacho.png,,,,,,,,,,,,,,,nacho,,,,,,,,,,,,,,,,,,,,,,,,,,,,,,,,,,,,,,,,,,,,,,,,,,,,,,,,,false,,,,,,,,,348135.3400000007,348134.601,347641.187,347648.19500000065,347654.522,348147.936,,,,
Rating,html.Form,2_4_3_1_9_1,2021-01-14T19:01:42.921Z,,,,,,,,,,,,,,,,,,,,,,,,,,,,,,,,,,,,,,,,,,,,,,,,,,,,,,,,,,,,,,,,,,,,,,,,,,,,,,,,,,,,,,,,,,,,,,,,,,,,,,,,,,,,,,,,,,,3124.7890000007465,,form submission,,,,unhealthy,,nacho.png,,,,,,,,,,,,,,,nacho,,,,,,,,,,,,,,,,,,,,,,,,,,,,,,,,,,,,,,,,,,,,,,,,,,,,,,,,,false,,,,,,,,,351272.9050000007,351272.72500000073,348134.601,348135.39500000025,348147.936,351281.748,,,,70
rating_sequence,flow.Sequence,2_4_3_1_9,2021-01-14T19:01:42.922Z,,,,,,,,,,,,,,,,,,,,,,,,,,,,,,,,,,,,,,,,,,,,,,,,,,,,,,,,,,,,,,,,,,,,,,,,,,,,,,,,,,,,,,,,,,,,,,,,,,,,,,,,,,,,,,,,,,,3618.203000000736,,completion,,,,unhealthy,,nacho.png,,,,,,,,,,,,,,,nacho,,,,,,,,,,,,,,,,,,,,,,,,,,,,,,,,,,,,,,,,,,,,,,,,,,,,,,,,,false,,,,,,,,,351272.9800000006,351272.72500000073,347641.187,347648.18000000017,347654.522,351281.748,,,,
fixCross,canvas.Screen,2_4_3_1_10_0,2021-01-14T19:01:43.411Z,,,,,,,,,,,,,,,,,,,,,,,,,,,,,,,,,,,,,,,,,,,,,,,,,,,,,,,,,,,,,,,,,,,,,,,,,,,,,,,,,,,,,,,,,,,,,,,,,,,,,,,,,,,,,,,,,,,493.3969999999972,,timeout,,,,healthy,,walnut.png,,,,,,,,,,,,,,,walnut,,,,,,,,,,,,,,,,,,,,,,,,,,,,,,,,,,,,,,,,,,,,,,,,,,,,,,,,,false,,,,,,,,,351762.57500000065,351761.81,351268.413,351273.03500000015,351281.748,351775.145,,,,
Rating,html.Form,2_4_3_1_10_1,2021-01-14T19:01:49.764Z,,,,,,,,,,,,,,,,,,,,,,,,,,,,,,,,,,,,,,,,,,,,,,,,,,,,,,,,,,,,,,,,,,,,,,,,,,,,,,,,,,,,,,,,,,,,,,,,,,,,,,,,,,,,,,,,,,,6339.555000000051,,form submission,,,,healthy,,walnut.png,,,,,,,,,,,,,,,walnut,,,,,,,,,,,,,,,,,,,,,,,,,,,,,,,,,,,,,,,,,,,,,,,,,,,,,,,,,false,,,,,,,,,358114.9249999999,358114.70000000007,351761.81,351762.6250000003,351775.145,358122.834,,,,85
rating_sequence,flow.Sequence,2_4_3_1_10,2021-01-14T19:01:49.764Z,,,,,,,,,,,,,,,,,,,,,,,,,,,,,,,,,,,,,,,,,,,,,,,,,,,,,,,,,,,,,,,,,,,,,,,,,,,,,,,,,,,,,,,,,,,,,,,,,,,,,,,,,,,,,,,,,,,6832.952000000048,,completion,,,,healthy,,walnut.png,,,,,,,,,,,,,,,walnut,,,,,,,,,,,,,,,,,,,,,,,,,,,,,,,,,,,,,,,,,,,,,,,,,,,,,,,,,false,,,,,,,,,358115.0250000001,358114.70000000007,351268.413,351273.02000000054,351281.748,358122.834,,,,
fixCross,canvas.Screen,2_4_3_1_11_0,2021-01-14T19:01:50.252Z,,,,,,,,,,,,,,,,,,,,,,,,,,,,,,,,,,,,,,,,,,,,,,,,,,,,,,,,,,,,,,,,,,,,,,,,,,,,,,,,,,,,,,,,,,,,,,,,,,,,,,,,,,,,,,,,,,,493.40500000002794,,timeout,,,,healthy,,cucumber.png,,,,,,,,,,,,,,,cucumber,,,,,,,,,,,,,,,,,,,,,,,,,,,,,,,,,,,,,,,,,,,,,,,,,,,,,,,,,false,,,,,,,,,358603.86500000005,358602.904,358109.499,358115.09000000026,358122.834,358616.239,,,,
Rating,html.Form,2_4_3_1_11_1,2021-01-14T19:01:53.081Z,,,,,,,,,,,,,,,,,,,,,,,,,,,,,,,,,,,,,,,,,,,,,,,,,,,,,,,,,,,,,,,,,,,,,,,,,,,,,,,,,,,,,,,,,,,,,,,,,,,,,,,,,,,,,,,,,,,2815.5560000003898,,form submission,,,,healthy,,cucumber.png,,,,,,,,,,,,,,,cucumber,,,,,,,,,,,,,,,,,,,,,,,,,,,,,,,,,,,,,,,,,,,,,,,,,,,,,,,,,false,,,,,,,,,361431.98500000016,361431.7950000004,358602.904,358603.92000000045,358616.239,361443.33,,,,68
rating_sequence,flow.Sequence,2_4_3_1_11,2021-01-14T19:01:53.081Z,,,,,,,,,,,,,,,,,,,,,,,,,,,,,,,,,,,,,,,,,,,,,,,,,,,,,,,,,,,,,,,,,,,,,,,,,,,,,,,,,,,,,,,,,,,,,,,,,,,,,,,,,,,,,,,,,,,3308.9610000004177,,completion,,,,healthy,,cucumber.png,,,,,,,,,,,,,,,cucumber,,,,,,,,,,,,,,,,,,,,,,,,,,,,,,,,,,,,,,,,,,,,,,,,,,,,,,,,,false,,,,,,,,,361432.0550000002,361431.7950000004,358109.499,358115.06999999983,358122.834,361443.33,,,,
fixCross,canvas.Screen,2_4_3_1_12_0,2021-01-14T19:01:53.573Z,,,,,,,,,,,,,,,,,,,,,,,,,,,,,,,,,,,,,,,,,,,,,,,,,,,,,,,,,,,,,,,,,,,,,,,,,,,,,,,,,,,,,,,,,,,,,,,,,,,,,,,,,,,,,,,,,,,493.41300000000047,,timeout,,,,unhealthy,,ritz.png,,,,,,,,,,,,,,,cracker,,,,,,,,,,,,,,,,,,,,,,,,,,,,,,,,,,,,,,,,,,,,,,,,,,,,,,,,,false,,,,,,,,,361924.3350000006,361923.408,361429.995,361432.1150000005,361443.33,361936.743,,,,
Rating,html.Form,2_4_3_1_12_1,2021-01-14T19:01:56.766Z,,,,,,,,,,,,,,,,,,,,,,,,,,,,,,,,,,,,,,,,,,,,,,,,,,,,,,,,,,,,,,,,,,,,,,,,,,,,,,,,,,,,,,,,,,,,,,,,,,,,,,,,,,,,,,,,,,,3181.067000000621,,form submission,,,,unhealthy,,ritz.png,,,,,,,,,,,,,,,cracker,,,,,,,,,,,,,,,,,,,,,,,,,,,,,,,,,,,,,,,,,,,,,,,,,,,,,,,,,false,,,,,,,,,365118.0000000004,365117.81000000064,361923.408,361924.395,361936.743,365123.928,,,,36
rating_sequence,flow.Sequence,2_4_3_1_12,2021-01-14T19:01:56.766Z,,,,,,,,,,,,,,,,,,,,,,,,,,,,,,,,,,,,,,,,,,,,,,,,,,,,,,,,,,,,,,,,,,,,,,,,,,,,,,,,,,,,,,,,,,,,,,,,,,,,,,,,,,,,,,,,,,,3674.4800000006217,,completion,,,,unhealthy,,ritz.png,,,,,,,,,,,,,,,cracker,,,,,,,,,,,,,,,,,,,,,,,,,,,,,,,,,,,,,,,,,,,,,,,,,,,,,,,,,false,,,,,,,,,365118.0750000003,365117.81000000064,361429.995,361432.0950000001,361443.33,365123.928,,,,
fixCross,canvas.Screen,2_4_3_1_13_0,2021-01-14T19:01:57.253Z,,,,,,,,,,,,,,,,,,,,,,,,,,,,,,,,,,,,,,,,,,,,,,,,,,,,,,,,,,,,,,,,,,,,,,,,,,,,,,,,,,,,,,,,,,,,,,,,,,,,,,,,,,,,,,,,,,,493.405999999959,,timeout,,,,healthy,,cashew.png,,,,,,,,,,,,,,,cashew,,,,,,,,,,,,,,,,,,,,,,,,,,,,,,,,,,,,,,,,,,,,,,,,,,,,,,,,,false,,,,,,,,,365604.4150000007,365603.999,365110.593,365118.16499999986,365123.928,365617.334,,,,
Rating,html.Form,2_4_3_1_13_1,2021-01-14T19:01:59.600Z,,,,,,,,,,,,,,,,,,,,,,,,,,,,,,,,,,,,,,,,,,,,,,,,,,,,,,,,,,,,,,,,,,,,,,,,,,,,,,,,,,,,,,,,,,,,,,,,,,,,,,,,,,,,,,,,,,,2334.4210000000894,,form submission,,,,healthy,,cashew.png,,,,,,,,,,,,,,,cashew,,,,,,,,,,,,,,,,,,,,,,,,,,,,,,,,,,,,,,,,,,,,,,,,,,,,,,,,,false,,,,,,,,,367951.9500000006,367951.75500000006,365603.999,365604.4650000003,365617.334,367964.269,,,,76
rating_sequence,flow.Sequence,2_4_3_1_13,2021-01-14T19:01:59.600Z,,,,,,,,,,,,,,,,,,,,,,,,,,,,,,,,,,,,,,,,,,,,,,,,,,,,,,,,,,,,,,,,,,,,,,,,,,,,,,,,,,,,,,,,,,,,,,,,,,,,,,,,,,,,,,,,,,,2827.8270000000484,,completion,,,,healthy,,cashew.png,,,,,,,,,,,,,,,cashew,,,,,,,,,,,,,,,,,,,,,,,,,,,,,,,,,,,,,,,,,,,,,,,,,,,,,,,,,false,,,,,,,,,367952.0300000004,367951.75500000006,365110.593,365118.1400000005,365123.928,367964.269,,,,
fixCross,canvas.Screen,2_4_3_1_14_0,2021-01-14T19:02:00.094Z,,,,,,,,,,,,,,,,,,,,,,,,,,,,,,,,,,,,,,,,,,,,,,,,,,,,,,,,,,,,,,,,,,,,,,,,,,,,,,,,,,,,,,,,,,,,,,,,,,,,,,,,,,,,,,,,,,,493.4890000000014,,timeout,,,,healthy,,radish.png,,,,,,,,,,,,,,,radish,,,,,,,,,,,,,,,,,,,,,,,,,,,,,,,,,,,,,,,,,,,,,,,,,,,,,,,,,false,,,,,,,,,368446.1950000004,368444.423,367950.934,367952.08,367964.269,368457.758,,,,
Rating,html.Form,2_4_3_1_14_1,2021-01-14T19:02:04.822Z,,,,,,,,,,,,,,,,,,,,,,,,,,,,,,,,,,,,,,,,,,,,,,,,,,,,,,,,,,,,,,,,,,,,,,,,,,,,,,,,,,,,,,,,,,,,,,,,,,,,,,,,,,,,,,,,,,,4715.877000000153,,form submission,,,,healthy,,radish.png,,,,,,,,,,,,,,,radish,,,,,,,,,,,,,,,,,,,,,,,,,,,,,,,,,,,,,,,,,,,,,,,,,,,,,,,,,false,,,,,,,,,373173.8400000004,373173.6350000001,368444.423,368446.25499999983,368457.758,373178.512,,,,15
rating_sequence,flow.Sequence,2_4_3_1_14,2021-01-14T19:02:04.822Z,,,,,,,,,,,,,,,,,,,,,,,,,,,,,,,,,,,,,,,,,,,,,,,,,,,,,,,,,,,,,,,,,,,,,,,,,,,,,,,,,,,,,,,,,,,,,,,,,,,,,,,,,,,,,,,,,,,5209.366000000155,,completion,,,,healthy,,radish.png,,,,,,,,,,,,,,,radish,,,,,,,,,,,,,,,,,,,,,,,,,,,,,,,,,,,,,,,,,,,,,,,,,,,,,,,,,false,,,,,,,,,373173.9400000006,373173.6350000001,367950.934,367952.0650000004,367964.269,373178.512,,,,
fixCross,canvas.Screen,2_4_3_1_15_0,2021-01-14T19:02:05.309Z,,,,,,,,,,,,,,,,,,,,,,,,,,,,,,,,,,,,,,,,,,,,,,,,,,,,,,,,,,,,,,,,,,,,,,,,,,,,,,,,,,,,,,,,,,,,,,,,,,,,,,,,,,,,,,,,,,,493.40600000001723,,timeout,,,,healthy,,pickle.png,,,,,,,,,,,,,,,pickle,,,,,,,,,,,,,,,,,,,,,,,,,,,,,,,,,,,,,,,,,,,,,,,,,,,,,,,,,false,,,,,,,,,373660.4100000004,373658.583,373165.177,373174.00499999983,373178.512,373671.918,,,,
Rating,html.Form,2_4_3_1_15_1,2021-01-14T19:02:09.961Z,,,,,,,,,,,,,,,,,,,,,,,,,,,,,,,,,,,,,,,,,,,,,,,,,,,,,,,,,,,,,,,,,,,,,,,,,,,,,,,,,,,,,,,,,,,,,,,,,,,,,,,,,,,,,,,,,,,4640.7319999998435,,form submission,,,,healthy,,pickle.png,,,,,,,,,,,,,,,pickle,,,,,,,,,,,,,,,,,,,,,,,,,,,,,,,,,,,,,,,,,,,,,,,,,,,,,,,,,false,,,,,,,,,378312.8400000005,378312.64999999985,373658.583,373660.4700000007,373671.918,378325.984,,,,94
rating_sequence,flow.Sequence,2_4_3_1_15,2021-01-14T19:02:09.961Z,,,,,,,,,,,,,,,,,,,,,,,,,,,,,,,,,,,,,,,,,,,,,,,,,,,,,,,,,,,,,,,,,,,,,,,,,,,,,,,,,,,,,,,,,,,,,,,,,,,,,,,,,,,,,,,,,,,5134.137999999861,,completion,,,,healthy,,pickle.png,,,,,,,,,,,,,,,pickle,,,,,,,,,,,,,,,,,,,,,,,,,,,,,,,,,,,,,,,,,,,,,,,,,,,,,,,,,false,,,,,,,,,378312.9200000003,378312.64999999985,373165.177,373173.9900000002,373178.512,378325.984,,,,
fixCross,canvas.Screen,2_4_3_1_16_0,2021-01-14T19:02:10.455Z,,,,,,,,,,,,,,,,,,,,,,,,,,,,,,,,,,,,,,,,,,,,,,,,,,,,,,,,,,,,,,,,,,,,,,,,,,,,,,,,,,,,,,,,,,,,,,,,,,,,,,,,,,,,,,,,,,,493.3989999999758,,timeout,,,,unhealthy,,dried_meat.png,,,,,,,,,,,,,,,dried meat,,,,,,,,,,,,,,,,,,,,,,,,,,,,,,,,,,,,,,,,,,,,,,,,,,,,,,,,,false,,,,,,,,,378806.4300000005,378806.048,378312.649,378312.97,378325.984,378819.383,,,,
Rating,html.Form,2_4_3_1_16_1,2021-01-14T19:02:13.391Z,,,,,,,,,,,,,,,,,,,,,,,,,,,,,,,,,,,,,,,,,,,,,,,,,,,,,,,,,,,,,,,,,,,,,,,,,,,,,,,,,,,,,,,,,,,,,,,,,,,,,,,,,,,,,,,,,,,2923.4270000006654,,form submission,,,,unhealthy,,dried_meat.png,,,,,,,,,,,,,,,dried meat,,,,,,,,,,,,,,,,,,,,,,,,,,,,,,,,,,,,,,,,,,,,,,,,,,,,,,,,,false,,,,,,,,,381742.99000000063,381742.81000000064,378806.048,378807.08500000037,378819.383,381753.192,,,,67
rating_sequence,flow.Sequence,2_4_3_1_16,2021-01-14T19:02:13.391Z,,,,,,,,,,,,,,,,,,,,,,,,,,,,,,,,,,,,,,,,,,,,,,,,,,,,,,,,,,,,,,,,,,,,,,,,,,,,,,,,,,,,,,,,,,,,,,,,,,,,,,,,,,,,,,,,,,,3416.826000000641,,completion,,,,unhealthy,,dried_meat.png,,,,,,,,,,,,,,,dried meat,,,,,,,,,,,,,,,,,,,,,,,,,,,,,,,,,,,,,,,,,,,,,,,,,,,,,,,,,false,,,,,,,,,381743.05499999993,381742.81000000064,378312.649,378312.9500000005,378325.984,381753.192,,,,
fixCross,canvas.Screen,2_4_3_1_17_0,2021-01-14T19:02:13.883Z,,,,,,,,,,,,,,,,,,,,,,,,,,,,,,,,,,,,,,,,,,,,,,,,,,,,,,,,,,,,,,,,,,,,,,,,,,,,,,,,,,,,,,,,,,,,,,,,,,,,,,,,,,,,,,,,,,,493.3880000000354,,timeout,,,,unhealthy,,bretzel.png,,,,,,,,,,,,,,,bretzel,,,,,,,,,,,,,,,,,,,,,,,,,,,,,,,,,,,,,,,,,,,,,,,,,,,,,,,,,false,,,,,,,,,382234.51999999996,382233.245,381739.857,381743.10500000045,381753.192,382246.58,,,,
Rating,html.Form,2_4_3_1_17_1,2021-01-14T19:02:16.519Z,,,,,,,,,,,,,,,,,,,,,,,,,,,,,,,,,,,,,,,,,,,,,,,,,,,,,,,,,,,,,,,,,,,,,,,,,,,,,,,,,,,,,,,,,,,,,,,,,,,,,,,,,,,,,,,,,,,2624.464999999851,,form submission,,,,unhealthy,,bretzel.png,,,,,,,,,,,,,,,bretzel,,,,,,,,,,,,,,,,,,,,,,,,,,,,,,,,,,,,,,,,,,,,,,,,,,,,,,,,,false,,,,,,,,,384871.2450000003,384871.04499999987,382233.245,382234.58500000014,382246.58,384873.642,,,,72
rating_sequence,flow.Sequence,2_4_3_1_17,2021-01-14T19:02:16.519Z,,,,,,,,,,,,,,,,,,,,,,,,,,,,,,,,,,,,,,,,,,,,,,,,,,,,,,,,,,,,,,,,,,,,,,,,,,,,,,,,,,,,,,,,,,,,,,,,,,,,,,,,,,,,,,,,,,,3117.8529999998864,,completion,,,,unhealthy,,bretzel.png,,,,,,,,,,,,,,,bretzel,,,,,,,,,,,,,,,,,,,,,,,,,,,,,,,,,,,,,,,,,,,,,,,,,,,,,,,,,false,,,,,,,,,384871.32999999996,384871.04499999987,381739.857,381743.08999999997,381753.192,384873.642,,,,
rating_loop,flow.Loop,2_4_3_1,2021-01-14T19:02:16.520Z,,,,,,,,,,,,,,,,,,,,,,,,,,,,,,,,,,,,,,,,,,,,,,,,,,,,,,,,,,,,,,,,,,,,,,,,,,,,,,,,,,,,,,,,,,,,,,,,,,,,,,,,,,,,,,,,,,,96159.17499999987,,completion,,,,,,,,,,,,,,,,,,,,,,,,,,,,,,,,,,,,,,,,,,,,,,,,,,,,,,,,,,,,,,,,,,,,,,,,,,,,,,false,,,,,,,,,384871.40499999985,384871.04499999987,288698.535,288701.75500000006,288711.87,384873.642,,,,
data_transmission,html.Screen,2_4_3_2,2021-01-14T19:02:16.523Z,,,,,,,,,,,,,,,,,,,,,,,,,,,,,,,,,,,,,,,,,,,,,,,,,,,,,,,,,,,,,,,,,,,,,,,,,,,,,,,,,,,,,,,,,,,,,,,,,,,,,,,,,,,,,,,,,,,NaN,,no compatible backend,,,,,,,,,,,,,,,Transferring data,,,,,,,,,,,,,,,,,,,,,,,,,,,,,,,,,,,,,,,,,,,,,,,,,,,,,,,,,,,,,,,false,,,Please wait a second…,,,,,,384874.82,384874.7200000007,,384871.5200000006,,384873.642,,,,
instructions,html.Screen,2_4_3_3,2021-01-14T19:03:45.541Z,,,,,,,,,,,,,,,,,,,,,,,,,,,,,,,,,,,,,,,,,,,,,,,,,,,,,,,,,,,,,,,,,,,,,,,,,,,,,,,,,,,,,,,,,,,,,,,,,,,,,,,,,,,,,,,,,,,89018.80800000031,,done,,,,,,,,,,,,,,,,,,,,,,,,,,,,,,,,,,,,,,,,,,,,,,,,,,,,,,,,,,,,,,,,,,,,,,,,,,,,,,false,,,,,,,,,473892.5500000005,473892.4500000003,384860.307,384874.8949999999,384873.642,473900.699,,,,
Q1,html.Screen,2_4_3_4_0,2021-01-14T19:03:59.376Z,,,,,,,,,,,,,,,,,,,,,,,,,,,,,,,,,,,,,,,,,,,,,,,,,,,,,,,,,,,,,,,,,,,,,,,,,,,,,,,,,,,,,,,,,,,,,,,,,,,,,,,,,,,,,,,false,input_Q1==3,,,13825.755999999936,,response,,,,,,,,,,,,,,,,,,,,,,,,,Q1_i4,Q1_i2,Q1_i1,Q1_i3,4,2,1,3,false,false,false,correct,,,,,,,,,,,,,,,,,,,,,,,,,,,,,,,,,,,,,,,,,click #Q1_i3,false,,,,,,,,,487727.7300000005,487726.45499999996,473887.364,473892.6200000005,473900.699,487729.768,,,,
Q1_correct,html.Screen,2_4_3_4_1,2021-01-14T19:04:00.525Z,,,,,,,,,,,,,,,,,,,,,,,,,,,,,,,,,,,,,,,,,,,,,,,,,,,,,,,,,,,,,,,,,,,,,,,,,,,,,,,,,,,,,,,,,,,,,,,,,,,,,,,,,,,,,,,,,,,1146.8120000000927,,response,,,,,,,,,,,,,,,,,,,,,,,,,,,,,,,,,,,,,,,,,,,,,,,,,,,,,,,,,,,,,,,,,,,,,,,,,,,,,keypress,false,,,,,,,,,488876.91500000074,488876.5800000001,487716.433,487727.8300000007,487729.768,488889.905,,,,
Q2,html.Screen,2_4_3_4_2,2021-01-14T19:04:08.896Z,,,,,,,,,,,,,,,,,,,,,,,,,,,,,,,,,,,,,,,,,,,,,,,,,,,,,,,,,,,,,,,,,,,,,,,,,,,,,,,,,,,,,,,,,,,,,,,,,,,,,,,,,,,,,,,,,,,8356.52500000014,,response,,,,,,,,,,,,,,,,,,,,,,,,,,,,,,,,,,,,,Q2_i3,Q2_i2,Q2_i1,Same amount,Option 2,Option 1,same,opt2,correct,,,,,,,,,,,,,,,,,,,,,,,,,,,,,,,,click #Q2_i1,false,,,,,,,,,497246.8800000006,497246.43000000017,488876.57,488876.98499999987,488889.905,497251.213,,,,
Q2_correct,html.Screen,2_4_3_4_3,2021-01-14T19:04:10.812Z,,,,,,,,,,,,,,,,,,,,,,,,,,,,,,,,,,,,,,,,,,,,,,,,,,,,,,,,,,,,,,,,,,,,,,,,,,,,,,,,,,,,,,,,,,,,,,,,,,,,,,,,,,,,,,,,,,,1911.6220000000903,,response,,,,,,,,,,,,,,,,,,,,,,,,,,,,,,,,,,,,,,,,,,,,,,,,,,,,,,,,,,,,,,,,,,,,,,,,,,,,,keypress,false,,,,,,,,,499163.1450000004,499162.8350000001,497237.878,497247.03000000044,497251.213,499171.499,,,,
Q4,html.Screen,2_4_3_4_4,2021-01-14T19:04:22.015Z,,,,,,,,,,,,,,,,,,,,,,,,,,,,,,,,,,,,,,,,,,,,,,,,,,,,,,,,,,,,,,,,,,,,,,,,,,,,,,,,,,,,,,,,,,,,,,,,,,,,,,,,,,,,,,,,,,,11193.97100000066,,response,,,,,,,,,,,,,,,,,,,,,,,,,,,,,,,,,,,,,,,,,,,,,,Q4_i3,Q4_i1,Q4_i2,Q4_i4,Press the arrow key that corresponds with the snack option with more food items,Press the arrow key that corresponds with the snack option I prefer,Indicate the number of food items in each snack option,Press the space key,morefood,correct,indicate,pressspace,,,,,,,,,,,,,,,,,,,,click #Q4_i1,false,,,,,,,,,510365.855,510365.47000000067,499158.164,499163.19500000007,499171.499,510373.298,,,,
Q4_correct,html.Screen,2_4_3_4_5,2021-01-14T19:04:23.800Z,,,,,,,,,,,,,,,,,,,,,,,,,,,,,,,,,,,,,,,,,,,,,,,,,,,,,,,,,,,,,,,,,,,,,,,,,,,,,,,,,,,,,,,,,,,,,,,,,,,,,,,,,,,,,,,,,,,1777.3670000000857,,response,,,,,,,,,,,,,,,,,,,,,,,,,,,,,,,,,,,,,,,,,,,,,,,,,,,,,,,,,,,,,,,,,,,,,,,,,,,,,keypress,false,,,,,,,,,512150.97500000044,512150.6650000001,510359.963,510365.9550000002,510373.298,512160.19,,,,
Q5,html.Screen,2_4_3_4_6,2021-01-14T19:04:38.338Z,,,,,,,,,,,,,,,,,,,,,,,,,,,,,,,,,,,,,,,,,,,,,,,,,,,,,,,,,,,,,,,,,,,,,,,,,,,,,,,,,,,,,,,,,,,,,,,,,,,,,,,,,,,,,,,,,,,14528.290000000678,,response,,,,,,,,,,,,,,,,,,,,,,,,,,,,,,,,,,,,,,,,,,,,,,,,,,,,,,,,,,Q5_i2,Q5_i4,Q5_i1,Q5_i3,There are more pieces of chocolate in snack Option 2,Snack Option 1 has been chosen,Snack Option 2 has been chosen,There are more slices of kiwi in snack Option 1,morechoc2,chose1,correct,morekiwi1,,,,,,,,click #Q5_i1,false,,,,,,,,,526688.905,526688.4800000007,512146.855,512151.02500000014,512160.19,526695.848,,,,
Q5_correct,html.Screen,2_4_3_4_7,2021-01-14T19:04:39.848Z,,,,,,,,,,,,,,,,,,,,,,,,,,,,,,,,,,,,,,,,,,,,,,,,,,,,,,,,,,,,,,,,,,,,,,,,,,,,,,,,,,,,,,,,,,,,,,,,,,,,,,,,,,,,,,,,,,,1502.7720000001136,,response,,,,,,,,,,,,,,,,,,,,,,,,,,,,,,,,,,,,,,,,,,,,,,,,,,,,,,,,,,,,,,,,,,,,,,,,,,,,,keypress,false,,,,,,,,,528198.8850000007,528198.6200000001,526682.513,526689.01,526695.848,528202.684,,,,
practice_sequence,flow.Sequence,2_4_3_4,2021-01-14T19:04:39.848Z,,,,,,,,,,,,,,,,,,,,,,,,,,,,,,,,,,,,,,,,,,,,,,,,,,,,,,,,,,,,,,,,,,,,,,,,,,,,,,,,,,,,,,,,,,,,,,,,,,,,,,,,,,,,,,,,,,,54297.92100000009,,completion,,,,,,,,,,,,,,,,,,,,,,,,,,,,,,,,,,,,,,,,,,,,,,,,,,,,,,,,,,,,,,,,,,,,,,,,,,,,,,false,,,,,,,,,528198.9800000001,528198.6200000001,473887.364,473892.60000000015,473900.699,528202.684,,,,
final_instru,html.Screen,2_4_3_5,2021-01-14T19:05:06.494Z,,,,,,,,,,,,,,,,,,,,,,,,,,,,,,,,,,,,,,,,,,,,,,,,,,,,,,,,,,,,,,,,,,,,,,,,,,,,,,,,,,,,,,,,,,,,,,,,,,,,,,,,,,,,,,,,,,,26642.171000000322,,done,,,,,,,,,,,,,,,,,,,,,,,,,,,,,,,,,,,,,,,,,,,,,,,,,,,,,,,,,,,,,,,,,,,,,,,,,,,,,,false,,,,,,,,,554844.9500000007,554844.8550000003,528189.349,528199.0150000001,528202.684,554846.579,,,,
blank_screen,canvas.Screen,2_4_3_6_0,2021-01-14T19:05:08.483Z,,,,,,,,,,,,,,,,,,,,,,,,,,,,,,,,,,,,,,,,,,,,,,,,,,,,,,,,,,,,,,,,,,,,,,,,,,,,,,,,,,,,,,,,,,,,,,,,,,,,,,,,,,,,,,,,,,,2000.6049999999814,,timeout,,,,,,,,,,,,,,,,,,,,,,,,,,,,,,,,,,,,,,,,,,,,,,,,,,,,,,,,,,,,,,,,,,,,,,,,,,,,,,false,,,,,,,,,556834.2950000006,556833.849,554833.244,554845.0350000003,554846.579,556847.184,,,,
fixCross,canvas.Screen,2_4_3_6_1_0_0_0_0_0_0,2021-01-14T19:05:08.776Z,,,blank.png,"[""frie.png""]",blank.png,blank.png,blank.png,blank.png,blank.png,blank.png,blank.png,blank.png,blank.png,blank.png,blank.png,,,,,,,,,,,,,,,,,,,,,,,,,,,,,"[""frie.png""]","[""pickle.png""]",PB17.png,,,,,,,,,,,0,6,"[""pickle.png""]","[""pickle.png""]","[""pickle.png""]","[""pickle.png""]","[""pickle.png""]","[""pickle.png""]",blank.png,PB18.png,PB18.png,"[""pickle.png""]","[""pickle.png""]","[""pickle.png""]","[""pickle.png""]","[""pickle.png""]","[""pickle.png""]","[""pickle.png""]","[""pickle.png""]","[""pickle.png""]","[""pickle.png""]","[""pickle.png""]","[""pickle.png""]",1,"[""frie.png""]",blank.png,blank.png,blank.png,6,"[""pickle.png""]","[""pickle.png""]","[""pickle.png""]","[""pickle.png""]","[""pickle.png""]","[""pickle.png""]",PB17.png,,,,,,,,,,,1,,,,,,,,,,,,426.77700000000186,,timeout,,,,,,,,,,,,,3,,,,,,,,,,,,,,,,,,,,,,,,,,,,,,,,,,,,,,,,,,,,,,,,,,,,,,,,,"[""pickle.png""]","[""frie.png""]",,,,1,,,false,,1,,,,,,,557127.5800000003,557127.276,556833.849,556847.855,556847.184,557273.961,1,,,
timeout,canvas.Screen,2_4_3_6_1_0_0_0_0_0_1,2021-01-14T19:05:09.417Z,,,blank.png,"[""frie.png""]",blank.png,blank.png,blank.png,blank.png,blank.png,blank.png,blank.png,blank.png,blank.png,blank.png,blank.png,,,,,,,,,,,,,,,,,,,,,,,,,,,,,"[""frie.png""]","[""pickle.png""]",PB17.png,,,,,,,,,,,0,6,"[""pickle.png""]","[""pickle.png""]","[""pickle.png""]","[""pickle.png""]","[""pickle.png""]","[""pickle.png""]",blank.png,PB18.png,PB18.png,"[""pickle.png""]","[""pickle.png""]","[""pickle.png""]","[""pickle.png""]","[""pickle.png""]","[""pickle.png""]","[""pickle.png""]","[""pickle.png""]","[""pickle.png""]","[""pickle.png""]","[""pickle.png""]","[""pickle.png""]",1,"[""frie.png""]",blank.png,blank.png,blank.png,6,"[""pickle.png""]","[""pickle.png""]","[""pickle.png""]","[""pickle.png""]","[""pickle.png""]","[""pickle.png""]",PB17.png,,,,,,,,,,,1,,,,,,,,,,,,653.2870000000112,,timeout,,,,,,,,,,,,,3,,,,,,,,,,,,,,,,,,,,,,,,,,,,,,,,,,,,,,,,,,,,,,,,,,,,,,,,,"[""pickle.png""]","[""frie.png""]",,,,1,,,false,,1,,,,,,,557767.8500000002,557767.228,557127.276,557307.1300000001,557273.961,557927.248,,,,
choice,canvas.Screen,2_4_3_6_1_0_0_0_0_0_2,2021-01-14T19:05:12.015Z,,,blank.png,"[""frie.png""]",blank.png,blank.png,blank.png,blank.png,blank.png,blank.png,blank.png,blank.png,blank.png,blank.png,blank.png,,,,,,,,,,,,,,,,,,,,,,,,,,,,,"[""frie.png""]","[""pickle.png""]",PB17.png,,,,,,,,,,,0,6,"[""pickle.png""]","[""pickle.png""]","[""pickle.png""]","[""pickle.png""]","[""pickle.png""]","[""pickle.png""]",blank.png,PB18.png,PB18.png,"[""pickle.png""]","[""pickle.png""]","[""pickle.png""]","[""pickle.png""]","[""pickle.png""]","[""pickle.png""]","[""pickle.png""]","[""pickle.png""]","[""pickle.png""]","[""pickle.png""]","[""pickle.png""]","[""pickle.png""]",1,"[""frie.png""]",blank.png,blank.png,blank.png,6,"[""pickle.png""]","[""pickle.png""]","[""pickle.png""]","[""pickle.png""]","[""pickle.png""]","[""pickle.png""]",PB17.png,,,,,,,,,,,1,,,,,,,,,,,,2438.3919999999925,,response,,,,,,,,,,,,,3,,,,,,,,,,,,,,,,,,,,,,,,,,,,,,,,,,,,,,,,,,,,,,,,,,,,,,,,,"[""pickle.png""]","[""frie.png""]",,,,1,right,keydown(ArrowRight),false,,1,,,,,,,560366.1150000007,560365.64,557767.228,557929.9950000005,557927.248,560514.408,,1,,
square,canvas.Screen,2_4_3_6_1_0_0_0_0_0_3,2021-01-14T19:05:13.151Z,,,blank.png,"[""frie.png""]",blank.png,blank.png,blank.png,blank.png,blank.png,blank.png,blank.png,blank.png,blank.png,blank.png,blank.png,,,,,,,,,,,,,,,,,,,,,,,,,,,,,"[""frie.png""]","[""pickle.png""]",PB17.png,,,,,,,,,,,0,6,"[""pickle.png""]","[""pickle.png""]","[""pickle.png""]","[""pickle.png""]","[""pickle.png""]","[""pickle.png""]",blank.png,PB18.png,PB18.png,"[""pickle.png""]","[""pickle.png""]","[""pickle.png""]","[""pickle.png""]","[""pickle.png""]","[""pickle.png""]","[""pickle.png""]","[""pickle.png""]","[""pickle.png""]","[""pickle.png""]","[""pickle.png""]","[""pickle.png""]",1,"[""frie.png""]",blank.png,blank.png,blank.png,6,"[""pickle.png""]","[""pickle.png""]","[""pickle.png""]","[""pickle.png""]","[""pickle.png""]","[""pickle.png""]",PB17.png,,,,,,,,,,,1,,#808080,#33ff3f,,,,,,,,,1000.0719999999274,,timeout,,,,,,,,,,,,,3,,,,,,,,,,,,,,,,,,,,,,,,,,,,,,,,,,,,,,,,,,,,,,,,,,,,,,,,,"[""pickle.png""]","[""frie.png""]",,,,1,,,false,,1,,,,,white,black,561501.8300000002,561501.145,560501.073,560501.1300000006,560514.408,561514.48,,,,
ITI_late,canvas.Screen,2_4_3_6_1_0_0_0_0_0_4,2021-01-14T19:05:13.644Z,,,blank.png,"[""frie.png""]",blank.png,blank.png,blank.png,blank.png,blank.png,blank.png,blank.png,blank.png,blank.png,blank.png,blank.png,,,,,,,,,,,,,,,,,,,,,,,,,,,,,"[""frie.png""]","[""pickle.png""]",PB17.png,,,,,,,,,,,0,6,"[""pickle.png""]","[""pickle.png""]","[""pickle.png""]","[""pickle.png""]","[""pickle.png""]","[""pickle.png""]",blank.png,PB18.png,PB18.png,"[""pickle.png""]","[""pickle.png""]","[""pickle.png""]","[""pickle.png""]","[""pickle.png""]","[""pickle.png""]","[""pickle.png""]","[""pickle.png""]","[""pickle.png""]","[""pickle.png""]","[""pickle.png""]","[""pickle.png""]",1,"[""frie.png""]",blank.png,blank.png,blank.png,6,"[""pickle.png""]","[""pickle.png""]","[""pickle.png""]","[""pickle.png""]","[""pickle.png""]","[""pickle.png""]",PB17.png,,,,,,,,,,,1,,,,,,,,,,,,493.42500000004657,,timeout,,,,,,,,,,,,white,3,,,,,,,,,,,,,,,,,,,,,,,,,,,,,,,,,,,,,,,,,,,,,,,,,,,,,,,,,"[""pickle.png""]","[""frie.png""]",,,,1,,,false,,1,,,,,,,561995.2050000002,561994.57,561501.145,561502.8150000008,561514.48,562007.905,,,,
choice_sequence,flow.Sequence,2_4_3_6_1_0_0_0_0_0,2021-01-14T19:05:13.644Z,,,blank.png,"[""frie.png""]",blank.png,blank.png,blank.png,blank.png,blank.png,blank.png,blank.png,blank.png,blank.png,blank.png,blank.png,,,,,,,,,,,,,,,,,,,,,,,,,,,,,"[""frie.png""]","[""pickle.png""]",PB17.png,,,,,,,,,,,0,6,"[""pickle.png""]","[""pickle.png""]","[""pickle.png""]","[""pickle.png""]","[""pickle.png""]","[""pickle.png""]",blank.png,PB18.png,PB18.png,"[""pickle.png""]","[""pickle.png""]","[""pickle.png""]","[""pickle.png""]","[""pickle.png""]","[""pickle.png""]","[""pickle.png""]","[""pickle.png""]","[""pickle.png""]","[""pickle.png""]","[""pickle.png""]","[""pickle.png""]",1,"[""frie.png""]",blank.png,blank.png,blank.png,6,"[""pickle.png""]","[""pickle.png""]","[""pickle.png""]","[""pickle.png""]","[""pickle.png""]","[""pickle.png""]",PB17.png,,,,,,,,,,,1,,,,,,,,,,,,5147.38599999994,,completion,,,,,,,,,,,,,3,,,,,,,,,,,,,,,,,,,,,,,,,,,,,,,,,,,,,,,,,,,,,,,,,,,,,,,,,"[""pickle.png""]","[""frie.png""]",,,,1,,,false,,1,,,,,,,561995.4400000006,561994.57,556833.849,556846.9500000001,556847.184,562007.905,,,,
fixCross,canvas.Screen,2_4_3_6_1_0_0_0_0_1_0,2021-01-14T19:05:14.391Z,,,blank.png,"[""frie.png""]",blank.png,blank.png,blank.png,blank.png,blank.png,blank.png,blank.png,blank.png,blank.png,blank.png,blank.png,,,,,,,,,,,,,,,,,,,,,,,,,,,,,"[""frie.png""]","[""pickle.png""]",PB01.png,,,,,,,,,,,0,6,"[""pickle.png""]","[""pickle.png""]","[""pickle.png""]","[""pickle.png""]","[""pickle.png""]","[""pickle.png""]",blank.png,PB18.png,PB18.png,blank.png,blank.png,blank.png,blank.png,blank.png,blank.png,"[""pickle.png""]","[""pickle.png""]","[""pickle.png""]","[""pickle.png""]","[""pickle.png""]","[""pickle.png""]",1,"[""frie.png""]",blank.png,blank.png,blank.png,0,blank.png,blank.png,blank.png,blank.png,blank.png,blank.png,PB01.png,,,,,,,,,,,1,,,,,,,,,,,,853.5709999999963,,timeout,,,,,,,,,,,,,3,,,,,,,,,,,,,,,,,,,,,,,,,,,,,,,,,,,,,,,,,,,,,,,,,,,,,,,,,"[""pickle.png""]","[""frie.png""]",,,,1,,,false,,1,,,,,,,562742.0849999998,562741.461,561994.57,561998.1050000006,562007.905,562861.476,2,,,
timeout,canvas.Screen,2_4_3_6_1_0_0_0_0_1_1,2021-01-14T19:05:14.991Z,,,blank.png,"[""frie.png""]",blank.png,blank.png,blank.png,blank.png,blank.png,blank.png,blank.png,blank.png,blank.png,blank.png,blank.png,,,,,,,,,,,,,,,,,,,,,,,,,,,,,"[""frie.png""]","[""pickle.png""]",PB01.png,,,,,,,,,,,0,6,"[""pickle.png""]","[""pickle.png""]","[""pickle.png""]","[""pickle.png""]","[""pickle.png""]","[""pickle.png""]",blank.png,PB18.png,PB18.png,blank.png,blank.png,blank.png,blank.png,blank.png,blank.png,"[""pickle.png""]","[""pickle.png""]","[""pickle.png""]","[""pickle.png""]","[""pickle.png""]","[""pickle.png""]",1,"[""frie.png""]",blank.png,blank.png,blank.png,0,blank.png,blank.png,blank.png,blank.png,blank.png,blank.png,PB01.png,,,,,,,,,,,1,,,,,,,,,,,,600.1469999999972,,timeout,,,,,,,,,,,,,3,,,,,,,,,,,,,,,,,,,,,,,,,,,,,,,,,,,,,,,,,,,,,,,,,,,,,,,,,"[""pickle.png""]","[""frie.png""]",,,,1,,,false,,1,,,,,,,563342.5900000002,563341.608,562741.461,562863.625,562861.476,563461.623,,,,
choice,canvas.Screen,2_4_3_6_1_0_0_0_0_1_2,2021-01-14T19:05:15.655Z,,,blank.png,"[""frie.png""]",blank.png,blank.png,blank.png,blank.png,blank.png,blank.png,blank.png,blank.png,blank.png,blank.png,blank.png,,,,,,,,,,,,,,,,,,,,,,,,,,,,,"[""frie.png""]","[""pickle.png""]",PB01.png,,,,,,,,,,,0,6,"[""pickle.png""]","[""pickle.png""]","[""pickle.png""]","[""pickle.png""]","[""pickle.png""]","[""pickle.png""]",blank.png,PB18.png,PB18.png,blank.png,blank.png,blank.png,blank.png,blank.png,blank.png,"[""pickle.png""]","[""pickle.png""]","[""pickle.png""]","[""pickle.png""]","[""pickle.png""]","[""pickle.png""]",1,"[""frie.png""]",blank.png,blank.png,blank.png,0,blank.png,blank.png,blank.png,blank.png,blank.png,blank.png,PB01.png,,,,,,,,,,,1,,,,,,,,,,,,543.977000000421,,response,,,,,,,,,,,,,3,,,,,,,,,,,,,,,,,,,,,,,,,,,,,,,,,,,,,,,,,,,,,,,,,,,,,,,,,"[""pickle.png""]","[""frie.png""]",,,,1,right,keydown(ArrowRight),false,,1,,,,,,,564006.0650000005,564005.6000000004,563341.608,563465.1199999999,563461.623,564128.255,,2,,
square,canvas.Screen,2_4_3_6_1_0_0_0_0_1_3,2021-01-14T19:05:16.765Z,,,blank.png,"[""frie.png""]",blank.png,blank.png,blank.png,blank.png,blank.png,blank.png,blank.png,blank.png,blank.png,blank.png,blank.png,,,,,,,,,,,,,,,,,,,,,,,,,,,,,"[""frie.png""]","[""pickle.png""]",PB01.png,,,,,,,,,,,0,6,"[""pickle.png""]","[""pickle.png""]","[""pickle.png""]","[""pickle.png""]","[""pickle.png""]","[""pickle.png""]",blank.png,PB18.png,PB18.png,blank.png,blank.png,blank.png,blank.png,blank.png,blank.png,"[""pickle.png""]","[""pickle.png""]","[""pickle.png""]","[""pickle.png""]","[""pickle.png""]","[""pickle.png""]",1,"[""frie.png""]",blank.png,blank.png,blank.png,0,blank.png,blank.png,blank.png,blank.png,blank.png,blank.png,PB01.png,,,,,,,,,,,1,,#808080,#33ff3f,,,,,,,,,1000.189000000013,,timeout,,,,,,,,,,,,,3,,,,,,,,,,,,,,,,,,,,,,,,,,,,,,,,,,,,,,,,,,,,,,,,,,,,,,,,,"[""pickle.png""]","[""frie.png""]",,,,1,,,false,,1,,,,,white,black,565115.965,565115.109,564114.92,564118.1550000001,564128.255,565128.444,,,,
ITI_late,canvas.Screen,2_4_3_6_1_0_0_0_0_1_4,2021-01-14T19:05:17.259Z,,,blank.png,"[""frie.png""]",blank.png,blank.png,blank.png,blank.png,blank.png,blank.png,blank.png,blank.png,blank.png,blank.png,blank.png,,,,,,,,,,,,,,,,,,,,,,,,,,,,,"[""frie.png""]","[""pickle.png""]",PB01.png,,,,,,,,,,,0,6,"[""pickle.png""]","[""pickle.png""]","[""pickle.png""]","[""pickle.png""]","[""pickle.png""]","[""pickle.png""]",blank.png,PB18.png,PB18.png,blank.png,blank.png,blank.png,blank.png,blank.png,blank.png,"[""pickle.png""]","[""pickle.png""]","[""pickle.png""]","[""pickle.png""]","[""pickle.png""]","[""pickle.png""]",1,"[""frie.png""]",blank.png,blank.png,blank.png,0,blank.png,blank.png,blank.png,blank.png,blank.png,blank.png,PB01.png,,,,,,,,,,,1,,,,,,,,,,,,493.5030000000261,,timeout,,,,,,,,,,,,white,3,,,,,,,,,,,,,,,,,,,,,,,,,,,,,,,,,,,,,,,,,,,,,,,,,,,,,,,,,"[""pickle.png""]","[""frie.png""]",,,,1,,,false,,1,,,,,,,565610.0400000005,565608.612,565115.109,565116.8200000002,565128.444,565621.947,,,,
choice_sequence,flow.Sequence,2_4_3_6_1_0_0_0_0_1,2021-01-14T19:05:17.259Z,,,blank.png,"[""frie.png""]",blank.png,blank.png,blank.png,blank.png,blank.png,blank.png,blank.png,blank.png,blank.png,blank.png,blank.png,,,,,,,,,,,,,,,,,,,,,,,,,,,,,"[""frie.png""]","[""pickle.png""]",PB01.png,,,,,,,,,,,0,6,"[""pickle.png""]","[""pickle.png""]","[""pickle.png""]","[""pickle.png""]","[""pickle.png""]","[""pickle.png""]",blank.png,PB18.png,PB18.png,blank.png,blank.png,blank.png,blank.png,blank.png,blank.png,"[""pickle.png""]","[""pickle.png""]","[""pickle.png""]","[""pickle.png""]","[""pickle.png""]","[""pickle.png""]",1,"[""frie.png""]",blank.png,blank.png,blank.png,0,blank.png,blank.png,blank.png,blank.png,blank.png,blank.png,PB01.png,,,,,,,,,,,1,,,,,,,,,,,,3600.7069999999367,,completion,,,,,,,,,,,,,3,,,,,,,,,,,,,,,,,,,,,,,,,,,,,,,,,,,,,,,,,,,,,,,,,,,,,,,,,"[""pickle.png""]","[""frie.png""]",,,,1,,,false,,1,,,,,,,565610.2550000005,565608.612,561994.57,561997.6450000004,562007.905,565621.947,,,,
fixCross,canvas.Screen,2_4_3_6_1_0_0_0_0_2_0,2021-01-14T19:05:17.551Z,,,blank.png,blank.png,blank.png,blank.png,blank.png,blank.png,blank.png,"[""frie.png""]",blank.png,blank.png,blank.png,blank.png,blank.png,,,,,,,,,,,,,,,,,,,,,,,,,,,,,"[""frie.png""]","[""pickle.png""]",PB18.png,,,,,,,,,,,0,6,"[""pickle.png""]","[""pickle.png""]","[""pickle.png""]","[""pickle.png""]","[""pickle.png""]","[""pickle.png""]",blank.png,PB18.png,PB16.png,"[""pickle.png""]","[""pickle.png""]","[""pickle.png""]","[""pickle.png""]","[""pickle.png""]","[""pickle.png""]","[""pickle.png""]","[""pickle.png""]","[""pickle.png""]","[""pickle.png""]","[""pickle.png""]",blank.png,1,"[""frie.png""]",blank.png,blank.png,blank.png,5,"[""pickle.png""]","[""pickle.png""]","[""pickle.png""]","[""pickle.png""]","[""pickle.png""]",blank.png,PB16.png,,,,,,,,,,,1,,,,,,,,,,,,426.7129999999888,,timeout,,,,,,,,,,,,,4,,,,,,,,,,,,,,,,,,,,,,,,,,,,,,,,,,,,,,,,,,,,,,,,,,,,,,,,,"[""pickle.png""]","[""frie.png""]",,,,1,,,false,,1,,,,,,,565902.2500000001,565901.975,565608.612,565612.685,565621.947,566048.66,3,,,
timeout,canvas.Screen,2_4_3_6_1_0_0_0_0_2_1,2021-01-14T19:05:18.180Z,,,blank.png,blank.png,blank.png,blank.png,blank.png,blank.png,blank.png,"[""frie.png""]",blank.png,blank.png,blank.png,blank.png,blank.png,,,,,,,,,,,,,,,,,,,,,,,,,,,,,"[""frie.png""]","[""pickle.png""]",PB18.png,,,,,,,,,,,0,6,"[""pickle.png""]","[""pickle.png""]","[""pickle.png""]","[""pickle.png""]","[""pickle.png""]","[""pickle.png""]",blank.png,PB18.png,PB16.png,"[""pickle.png""]","[""pickle.png""]","[""pickle.png""]","[""pickle.png""]","[""pickle.png""]","[""pickle.png""]","[""pickle.png""]","[""pickle.png""]","[""pickle.png""]","[""pickle.png""]","[""pickle.png""]",blank.png,1,"[""frie.png""]",blank.png,blank.png,blank.png,5,"[""pickle.png""]","[""pickle.png""]","[""pickle.png""]","[""pickle.png""]","[""pickle.png""]",blank.png,PB16.png,,,,,,,,,,,1,,,,,,,,,,,,613.6539999999804,,timeout,,,,,,,,,,,,,4,,,,,,,,,,,,,,,,,,,,,,,,,,,,,,,,,,,,,,,,,,,,,,,,,,,,,,,,,"[""pickle.png""]","[""frie.png""]",,,,1,,,false,,1,,,,,,,566531.1650000003,566528.964,565901.975,566050.7850000004,566048.66,566662.314,,,,
choice,canvas.Screen,2_4_3_6_1_0_0_0_0_2_2,2021-01-14T19:05:19.811Z,,,blank.png,blank.png,blank.png,blank.png,blank.png,blank.png,blank.png,"[""frie.png""]",blank.png,blank.png,blank.png,blank.png,blank.png,,,,,,,,,,,,,,,,,,,,,,,,,,,,,"[""frie.png""]","[""pickle.png""]",PB18.png,,,,,,,,,,,0,6,"[""pickle.png""]","[""pickle.png""]","[""pickle.png""]","[""pickle.png""]","[""pickle.png""]","[""pickle.png""]",blank.png,PB18.png,PB16.png,"[""pickle.png""]","[""pickle.png""]","[""pickle.png""]","[""pickle.png""]","[""pickle.png""]","[""pickle.png""]","[""pickle.png""]","[""pickle.png""]","[""pickle.png""]","[""pickle.png""]","[""pickle.png""]",blank.png,1,"[""frie.png""]",blank.png,blank.png,blank.png,5,"[""pickle.png""]","[""pickle.png""]","[""pickle.png""]","[""pickle.png""]","[""pickle.png""]",blank.png,PB16.png,,,,,,,,,,,1,,,,,,,,,,,,1499.286000000313,,response,,,,,,,,,,,,,4,,,,,,,,,,,,,,,,,,,,,,,,,,,,,,,,,,,,,,,,,,,,,,,,,,,,,,,,,"[""pickle.png""]","[""frie.png""]",,,,1,left,keydown(ArrowLeft),false,,1,,,,,,,568162.2700000007,568161.6000000003,566528.964,566665.8000000006,566662.314,568302.355,,3,,
square,canvas.Screen,2_4_3_6_1_0_0_0_0_2_3,2021-01-14T19:05:20.940Z,,,blank.png,blank.png,blank.png,blank.png,blank.png,blank.png,blank.png,"[""frie.png""]",blank.png,blank.png,blank.png,blank.png,blank.png,,,,,,,,,,,,,,,,,,,,,,,,,,,,,"[""frie.png""]","[""pickle.png""]",PB18.png,,,,,,,,,,,0,6,"[""pickle.png""]","[""pickle.png""]","[""pickle.png""]","[""pickle.png""]","[""pickle.png""]","[""pickle.png""]",blank.png,PB18.png,PB16.png,"[""pickle.png""]","[""pickle.png""]","[""pickle.png""]","[""pickle.png""]","[""pickle.png""]","[""pickle.png""]","[""pickle.png""]","[""pickle.png""]","[""pickle.png""]","[""pickle.png""]","[""pickle.png""]",blank.png,1,"[""frie.png""]",blank.png,blank.png,blank.png,5,"[""pickle.png""]","[""pickle.png""]","[""pickle.png""]","[""pickle.png""]","[""pickle.png""]",blank.png,PB16.png,,,,,,,,,,,1,,#33ff3f,#808080,,,,,,,,,1000.1460000000661,,timeout,,,,,,,,,,,,,4,,,,,,,,,,,,,,,,,,,,,,,,,,,,,,,,,,,,,,,,,,,,,,,,,,,,,,,,,"[""pickle.png""]","[""frie.png""]",,,,1,,,false,,1,,,,,black,white,569290.8600000001,569289.166,568289.02,568297.6950000002,568302.355,569302.501,,,,
ITI_late,canvas.Screen,2_4_3_6_1_0_0_0_0_2_4,2021-01-14T19:05:21.685Z,,,blank.png,blank.png,blank.png,blank.png,blank.png,blank.png,blank.png,"[""frie.png""]",blank.png,blank.png,blank.png,blank.png,blank.png,,,,,,,,,,,,,,,,,,,,,,,,,,,,,"[""frie.png""]","[""pickle.png""]",PB18.png,,,,,,,,,,,0,6,"[""pickle.png""]","[""pickle.png""]","[""pickle.png""]","[""pickle.png""]","[""pickle.png""]","[""pickle.png""]",blank.png,PB18.png,PB16.png,"[""pickle.png""]","[""pickle.png""]","[""pickle.png""]","[""pickle.png""]","[""pickle.png""]","[""pickle.png""]","[""pickle.png""]","[""pickle.png""]","[""pickle.png""]","[""pickle.png""]","[""pickle.png""]",blank.png,1,"[""frie.png""]",blank.png,blank.png,blank.png,5,"[""pickle.png""]","[""pickle.png""]","[""pickle.png""]","[""pickle.png""]","[""pickle.png""]",blank.png,PB16.png,,,,,,,,,,,1,,,,,,,,,,,,746.6449999999022,,timeout,,,,,,,,,,,,white,4,,,,,,,,,,,,,,,,,,,,,,,,,,,,,,,,,,,,,,,,,,,,,,,,,,,,,,,,,"[""pickle.png""]","[""frie.png""]",,,,1,,,false,,1,,,,,,,570036.4749999999,570035.811,569289.166,569291.6949999998,569302.501,570049.146,,,,
choice_sequence,flow.Sequence,2_4_3_6_1_0_0_0_0_2,2021-01-14T19:05:21.685Z,,,blank.png,blank.png,blank.png,blank.png,blank.png,blank.png,blank.png,"[""frie.png""]",blank.png,blank.png,blank.png,blank.png,blank.png,,,,,,,,,,,,,,,,,,,,,,,,,,,,,"[""frie.png""]","[""pickle.png""]",PB18.png,,,,,,,,,,,0,6,"[""pickle.png""]","[""pickle.png""]","[""pickle.png""]","[""pickle.png""]","[""pickle.png""]","[""pickle.png""]",blank.png,PB18.png,PB16.png,"[""pickle.png""]","[""pickle.png""]","[""pickle.png""]","[""pickle.png""]","[""pickle.png""]","[""pickle.png""]","[""pickle.png""]","[""pickle.png""]","[""pickle.png""]","[""pickle.png""]","[""pickle.png""]",blank.png,1,"[""frie.png""]",blank.png,blank.png,blank.png,5,"[""pickle.png""]","[""pickle.png""]","[""pickle.png""]","[""pickle.png""]","[""pickle.png""]",blank.png,PB16.png,,,,,,,,,,,1,,,,,,,,,,,,4413.863999999943,,completion,,,,,,,,,,,,,4,,,,,,,,,,,,,,,,,,,,,,,,,,,,,,,,,,,,,,,,,,,,,,,,,,,,,,,,,"[""pickle.png""]","[""frie.png""]",,,,1,,,false,,1,,,,,,,570036.6950000006,570035.811,565608.612,565612.2249999999,565621.947,570049.146,,,,
fixCross,canvas.Screen,2_4_3_6_1_0_0_0_0_3_0,2021-01-14T19:05:22.285Z,,,blank.png,"[""frie.png""]",blank.png,blank.png,blank.png,blank.png,blank.png,blank.png,blank.png,blank.png,blank.png,blank.png,blank.png,,,,,,,,,,,,,,,,,,,,,,,,,,,,,"[""frie.png""]","[""pickle.png""]",PB14.png,,,,,,,,,,,0,6,"[""pickle.png""]","[""pickle.png""]","[""pickle.png""]","[""pickle.png""]","[""pickle.png""]","[""pickle.png""]",blank.png,PB18.png,PB18.png,"[""pickle.png""]","[""pickle.png""]","[""pickle.png""]",blank.png,blank.png,blank.png,"[""pickle.png""]","[""pickle.png""]","[""pickle.png""]","[""pickle.png""]","[""pickle.png""]","[""pickle.png""]",1,"[""frie.png""]",blank.png,blank.png,blank.png,3,"[""pickle.png""]","[""pickle.png""]","[""pickle.png""]",blank.png,blank.png,blank.png,PB14.png,,,,,,,,,,,1,,,,,,,,,,,,720.2400000001071,,timeout,,,,,,,,,,,,,3,,,,,,,,,,,,,,,,,,,,,,,,,,,,,,,,,,,,,,,,,,,,,,,,,,,,,,,,,"[""pickle.png""]","[""frie.png""]",,,,1,,,false,,1,,,,,,,570636.6000000007,570636.036,570035.811,570038.955,570049.146,570769.386,4,,,
timeout,canvas.Screen,2_4_3_6_1_0_0_0_0_3_1,2021-01-14T19:05:22.900Z,,,blank.png,"[""frie.png""]",blank.png,blank.png,blank.png,blank.png,blank.png,blank.png,blank.png,blank.png,blank.png,blank.png,blank.png,,,,,,,,,,,,,,,,,,,,,,,,,,,,,"[""frie.png""]","[""pickle.png""]",PB14.png,,,,,,,,,,,0,6,"[""pickle.png""]","[""pickle.png""]","[""pickle.png""]","[""pickle.png""]","[""pickle.png""]","[""pickle.png""]",blank.png,PB18.png,PB18.png,"[""pickle.png""]","[""pickle.png""]","[""pickle.png""]",blank.png,blank.png,blank.png,"[""pickle.png""]","[""pickle.png""]","[""pickle.png""]","[""pickle.png""]","[""pickle.png""]","[""pickle.png""]",1,"[""frie.png""]",blank.png,blank.png,blank.png,3,"[""pickle.png""]","[""pickle.png""]","[""pickle.png""]",blank.png,blank.png,blank.png,PB14.png,,,,,,,,,,,1,,,,,,,,,,,,613.4510000000009,,timeout,,,,,,,,,,,,,3,,,,,,,,,,,,,,,,,,,,,,,,,,,,,,,,,,,,,,,,,,,,,,,,,,,,,,,,,"[""pickle.png""]","[""frie.png""]",,,,1,,,false,,1,,,,,,,571250.8900000002,571249.487,570636.036,570771.1950000003,570769.386,571382.837,,,,
choice,canvas.Screen,2_4_3_6_1_0_0_0_0_3_2,2021-01-14T19:05:23.494Z,,,blank.png,"[""frie.png""]",blank.png,blank.png,blank.png,blank.png,blank.png,blank.png,blank.png,blank.png,blank.png,blank.png,blank.png,,,,,,,,,,,,,,,,,,,,,,,,,,,,,"[""frie.png""]","[""pickle.png""]",PB14.png,,,,,,,,,,,0,6,"[""pickle.png""]","[""pickle.png""]","[""pickle.png""]","[""pickle.png""]","[""pickle.png""]","[""pickle.png""]",blank.png,PB18.png,PB18.png,"[""pickle.png""]","[""pickle.png""]","[""pickle.png""]",blank.png,blank.png,blank.png,"[""pickle.png""]","[""pickle.png""]","[""pickle.png""]","[""pickle.png""]","[""pickle.png""]","[""pickle.png""]",1,"[""frie.png""]",blank.png,blank.png,blank.png,3,"[""pickle.png""]","[""pickle.png""]","[""pickle.png""]",blank.png,blank.png,blank.png,PB14.png,,,,,,,,,,,1,,,,,,,,,,,,461.7630000002682,,response,,,,,,,,,,,,,3,,,,,,,,,,,,,,,,,,,,,,,,,,,,,,,,,,,,,,,,,,,,,,,,,,,,,,,,,"[""pickle.png""]","[""frie.png""]",,,,1,left,keydown(ArrowLeft),false,,1,,,,,,,571845.0350000003,571844.6000000003,571249.487,571382.4850000001,571382.837,571982.867,,4,,
square,canvas.Screen,2_4_3_6_1_0_0_0_0_3_3,2021-01-14T19:05:24.619Z,,,blank.png,"[""frie.png""]",blank.png,blank.png,blank.png,blank.png,blank.png,blank.png,blank.png,blank.png,blank.png,blank.png,blank.png,,,,,,,,,,,,,,,,,,,,,,,,,,,,,"[""frie.png""]","[""pickle.png""]",PB14.png,,,,,,,,,,,0,6,"[""pickle.png""]","[""pickle.png""]","[""pickle.png""]","[""pickle.png""]","[""pickle.png""]","[""pickle.png""]",blank.png,PB18.png,PB18.png,"[""pickle.png""]","[""pickle.png""]","[""pickle.png""]",blank.png,blank.png,blank.png,"[""pickle.png""]","[""pickle.png""]","[""pickle.png""]","[""pickle.png""]","[""pickle.png""]","[""pickle.png""]",1,"[""frie.png""]",blank.png,blank.png,blank.png,3,"[""pickle.png""]","[""pickle.png""]","[""pickle.png""]",blank.png,blank.png,blank.png,PB14.png,,,,,,,,,,,1,,#33ff3f,#808080,,,,,,,,,1000.0999999999767,,timeout,,,,,,,,,,,,,3,,,,,,,,,,,,,,,,,,,,,,,,,,,,,,,,,,,,,,,,,,,,,,,,,,,,,,,,,"[""pickle.png""]","[""frie.png""]",,,,1,,,false,,1,,,,,black,white,572970.1150000001,572969.632,571969.532,571969.3900000002,571982.867,572982.967,,,,
ITI_late,canvas.Screen,2_4_3_6_1_0_0_0_0_3_4,2021-01-14T19:05:24.873Z,,,blank.png,"[""frie.png""]",blank.png,blank.png,blank.png,blank.png,blank.png,blank.png,blank.png,blank.png,blank.png,blank.png,blank.png,,,,,,,,,,,,,,,,,,,,,,,,,,,,,"[""frie.png""]","[""pickle.png""]",PB14.png,,,,,,,,,,,0,6,"[""pickle.png""]","[""pickle.png""]","[""pickle.png""]","[""pickle.png""]","[""pickle.png""]","[""pickle.png""]",blank.png,PB18.png,PB18.png,"[""pickle.png""]","[""pickle.png""]","[""pickle.png""]",blank.png,blank.png,blank.png,"[""pickle.png""]","[""pickle.png""]","[""pickle.png""]","[""pickle.png""]","[""pickle.png""]","[""pickle.png""]",1,"[""frie.png""]",blank.png,blank.png,blank.png,3,"[""pickle.png""]","[""pickle.png""]","[""pickle.png""]",blank.png,blank.png,blank.png,PB14.png,,,,,,,,,,,1,,,,,,,,,,,,253.3870000001043,,timeout,,,,,,,,,,,,white,3,,,,,,,,,,,,,,,,,,,,,,,,,,,,,,,,,,,,,,,,,,,,,,,,,,,,,,,,,"[""pickle.png""]","[""frie.png""]",,,,1,,,false,,1,,,,,,,573224.7050000005,573223.019,572969.632,572970.9600000005,572982.967,573236.354,,,,
choice_sequence,flow.Sequence,2_4_3_6_1_0_0_0_0_3,2021-01-14T19:05:24.874Z,,,blank.png,"[""frie.png""]",blank.png,blank.png,blank.png,blank.png,blank.png,blank.png,blank.png,blank.png,blank.png,blank.png,blank.png,,,,,,,,,,,,,,,,,,,,,,,,,,,,,"[""frie.png""]","[""pickle.png""]",PB14.png,,,,,,,,,,,0,6,"[""pickle.png""]","[""pickle.png""]","[""pickle.png""]","[""pickle.png""]","[""pickle.png""]","[""pickle.png""]",blank.png,PB18.png,PB18.png,"[""pickle.png""]","[""pickle.png""]","[""pickle.png""]",blank.png,blank.png,blank.png,"[""pickle.png""]","[""pickle.png""]","[""pickle.png""]","[""pickle.png""]","[""pickle.png""]","[""pickle.png""]",1,"[""frie.png""]",blank.png,blank.png,blank.png,3,"[""pickle.png""]","[""pickle.png""]","[""pickle.png""]",blank.png,blank.png,blank.png,PB14.png,,,,,,,,,,,1,,,,,,,,,,,,3173.8730000000214,,completion,,,,,,,,,,,,,3,,,,,,,,,,,,,,,,,,,,,,,,,,,,,,,,,,,,,,,,,,,,,,,,,,,,,,,,,"[""pickle.png""]","[""frie.png""]",,,,1,,,false,,1,,,,,,,573224.9300000003,573223.019,570035.811,570038.555,570049.146,573236.354,,,,
fixCross,canvas.Screen,2_4_3_6_1_0_0_0_0_4_0,2021-01-14T19:05:25.619Z,,,blank.png,blank.png,blank.png,blank.png,blank.png,blank.png,blank.png,"[""frie.png""]",blank.png,blank.png,blank.png,blank.png,blank.png,,,,,,,,,,,,,,,,,,,,,,,,,,,,,"[""frie.png""]","[""pickle.png""]",PB18.png,,,,,,,,,,,0,6,"[""pickle.png""]","[""pickle.png""]","[""pickle.png""]","[""pickle.png""]","[""pickle.png""]","[""pickle.png""]",blank.png,PB18.png,PB12.png,"[""pickle.png""]","[""pickle.png""]","[""pickle.png""]","[""pickle.png""]","[""pickle.png""]","[""pickle.png""]","[""pickle.png""]","[""pickle.png""]",blank.png,blank.png,blank.png,blank.png,1,"[""frie.png""]",blank.png,blank.png,blank.png,2,"[""pickle.png""]","[""pickle.png""]",blank.png,blank.png,blank.png,blank.png,PB12.png,,,,,,,,,,,1,,,,,,,,,,,,1173.594999999972,,timeout,,,,,,,,,,,,,4,,,,,,,,,,,,,,,,,,,,,,,,,,,,,,,,,,,,,,,,,,,,,,,,,,,,,,,,,"[""pickle.png""]","[""frie.png""]",,,,1,,,false,,1,,,,,,,573970.4550000005,573969.894,573223.019,573227.2750000001,573236.354,574409.949,5,,,
timeout,canvas.Screen,2_4_3_6_1_0_0_0_0_4_1,2021-01-14T19:05:26.553Z,,,blank.png,blank.png,blank.png,blank.png,blank.png,blank.png,blank.png,"[""frie.png""]",blank.png,blank.png,blank.png,blank.png,blank.png,,,,,,,,,,,,,,,,,,,,,,,,,,,,,"[""frie.png""]","[""pickle.png""]",PB18.png,,,,,,,,,,,0,6,"[""pickle.png""]","[""pickle.png""]","[""pickle.png""]","[""pickle.png""]","[""pickle.png""]","[""pickle.png""]",blank.png,PB18.png,PB12.png,"[""pickle.png""]","[""pickle.png""]","[""pickle.png""]","[""pickle.png""]","[""pickle.png""]","[""pickle.png""]","[""pickle.png""]","[""pickle.png""]",blank.png,blank.png,blank.png,blank.png,1,"[""frie.png""]",blank.png,blank.png,blank.png,2,"[""pickle.png""]","[""pickle.png""]",blank.png,blank.png,blank.png,blank.png,PB12.png,,,,,,,,,,,1,,,,,,,,,,,,626.6389999999665,,timeout,,,,,,,,,,,,,4,,,,,,,,,,,,,,,,,,,,,,,,,,,,,,,,,,,,,,,,,,,,,,,,,,,,,,,,,"[""pickle.png""]","[""frie.png""]",,,,1,,,false,,1,,,,,,,574904.0700000005,574903.238,573969.894,574411.9900000005,574409.949,575036.588,,,,
choice,canvas.Screen,2_4_3_6_1_0_0_0_0_4_2,2021-01-14T19:05:27.949Z,,,blank.png,blank.png,blank.png,blank.png,blank.png,blank.png,blank.png,"[""frie.png""]",blank.png,blank.png,blank.png,blank.png,blank.png,,,,,,,,,,,,,,,,,,,,,,,,,,,,,"[""frie.png""]","[""pickle.png""]",PB18.png,,,,,,,,,,,0,6,"[""pickle.png""]","[""pickle.png""]","[""pickle.png""]","[""pickle.png""]","[""pickle.png""]","[""pickle.png""]",blank.png,PB18.png,PB12.png,"[""pickle.png""]","[""pickle.png""]","[""pickle.png""]","[""pickle.png""]","[""pickle.png""]","[""pickle.png""]","[""pickle.png""]","[""pickle.png""]",blank.png,blank.png,blank.png,blank.png,1,"[""frie.png""]",blank.png,blank.png,blank.png,2,"[""pickle.png""]","[""pickle.png""]",blank.png,blank.png,blank.png,blank.png,PB12.png,,,,,,,,,,,1,,,,,,,,,,,,1263.0170000002254,,response,,,,,,,,,,,,,4,,,,,,,,,,,,,,,,,,,,,,,,,,,,,,,,,,,,,,,,,,,,,,,,,,,,,,,,,"[""pickle.png""]","[""frie.png""]",,,,1,left,keydown(ArrowLeft),false,,1,,,,,,,576300.0550000006,576299.6050000002,574903.238,575030.9200000002,575036.588,576423.52,,5,,
square,canvas.Screen,2_4_3_6_1_0_0_0_0_4_3,2021-01-14T19:05:29.060Z,,,blank.png,blank.png,blank.png,blank.png,blank.png,blank.png,blank.png,"[""frie.png""]",blank.png,blank.png,blank.png,blank.png,blank.png,,,,,,,,,,,,,,,,,,,,,,,,,,,,,"[""frie.png""]","[""pickle.png""]",PB18.png,,,,,,,,,,,0,6,"[""pickle.png""]","[""pickle.png""]","[""pickle.png""]","[""pickle.png""]","[""pickle.png""]","[""pickle.png""]",blank.png,PB18.png,PB12.png,"[""pickle.png""]","[""pickle.png""]","[""pickle.png""]","[""pickle.png""]","[""pickle.png""]","[""pickle.png""]","[""pickle.png""]","[""pickle.png""]",blank.png,blank.png,blank.png,blank.png,1,"[""frie.png""]",blank.png,blank.png,blank.png,2,"[""pickle.png""]","[""pickle.png""]",blank.png,blank.png,blank.png,blank.png,PB12.png,,,,,,,,,,,1,,#33ff3f,#808080,,,,,,,,,1000.3170000000391,,timeout,,,,,,,,,,,,,4,,,,,,,,,,,,,,,,,,,,,,,,,,,,,,,,,,,,,,,,,,,,,,,,,,,,,,,,,"[""pickle.png""]","[""frie.png""]",,,,1,,,false,,1,,,,,black,white,577411.5550000006,577410.502,576410.185,576420.1600000006,576423.52,577423.837,,,,
ITI_late,canvas.Screen,2_4_3_6_1_0_0_0_0_4_4,2021-01-14T19:05:29.314Z,,,blank.png,blank.png,blank.png,blank.png,blank.png,blank.png,blank.png,"[""frie.png""]",blank.png,blank.png,blank.png,blank.png,blank.png,,,,,,,,,,,,,,,,,,,,,,,,,,,,,"[""frie.png""]","[""pickle.png""]",PB18.png,,,,,,,,,,,0,6,"[""pickle.png""]","[""pickle.png""]","[""pickle.png""]","[""pickle.png""]","[""pickle.png""]","[""pickle.png""]",blank.png,PB18.png,PB12.png,"[""pickle.png""]","[""pickle.png""]","[""pickle.png""]","[""pickle.png""]","[""pickle.png""]","[""pickle.png""]","[""pickle.png""]","[""pickle.png""]",blank.png,blank.png,blank.png,blank.png,1,"[""frie.png""]",blank.png,blank.png,blank.png,2,"[""pickle.png""]","[""pickle.png""]",blank.png,blank.png,blank.png,blank.png,PB12.png,,,,,,,,,,,1,,,,,,,,,,,,253.31599999999162,,timeout,,,,,,,,,,,,white,4,,,,,,,,,,,,,,,,,,,,,,,,,,,,,,,,,,,,,,,,,,,,,,,,,,,,,,,,,"[""pickle.png""]","[""frie.png""]",,,,1,,,false,,1,,,,,,,577664.8150000001,577663.818,577410.502,577412.5750000003,577423.837,577677.153,,,,
choice_sequence,flow.Sequence,2_4_3_6_1_0_0_0_0_4,2021-01-14T19:05:29.314Z,,,blank.png,blank.png,blank.png,blank.png,blank.png,blank.png,blank.png,"[""frie.png""]",blank.png,blank.png,blank.png,blank.png,blank.png,,,,,,,,,,,,,,,,,,,,,,,,,,,,,"[""frie.png""]","[""pickle.png""]",PB18.png,,,,,,,,,,,0,6,"[""pickle.png""]","[""pickle.png""]","[""pickle.png""]","[""pickle.png""]","[""pickle.png""]","[""pickle.png""]",blank.png,PB18.png,PB12.png,"[""pickle.png""]","[""pickle.png""]","[""pickle.png""]","[""pickle.png""]","[""pickle.png""]","[""pickle.png""]","[""pickle.png""]","[""pickle.png""]",blank.png,blank.png,blank.png,blank.png,1,"[""frie.png""]",blank.png,blank.png,blank.png,2,"[""pickle.png""]","[""pickle.png""]",blank.png,blank.png,blank.png,blank.png,PB12.png,,,,,,,,,,,1,,,,,,,,,,,,4427.46399999992,,completion,,,,,,,,,,,,,4,,,,,,,,,,,,,,,,,,,,,,,,,,,,,,,,,,,,,,,,,,,,,,,,,,,,,,,,,"[""pickle.png""]","[""frie.png""]",,,,1,,,false,,1,,,,,,,577665.035,577663.818,573223.019,573226.8650000006,573236.354,577677.153,,,,
fixCross,canvas.Screen,2_4_3_6_1_0_0_0_0_5_0,2021-01-14T19:05:29.767Z,,,blank.png,blank.png,blank.png,blank.png,blank.png,blank.png,blank.png,"[""frie.png""]",blank.png,blank.png,blank.png,blank.png,blank.png,,,,,,,,,,,,,,,,,,,,,,,,,,,,,"[""frie.png""]","[""pickle.png""]",PB18.png,,,,,,,,,,,0,6,"[""pickle.png""]","[""pickle.png""]","[""pickle.png""]","[""pickle.png""]","[""pickle.png""]","[""pickle.png""]",blank.png,PB18.png,PB07.png,"[""pickle.png""]","[""pickle.png""]","[""pickle.png""]","[""pickle.png""]","[""pickle.png""]","[""pickle.png""]","[""pickle.png""]",blank.png,blank.png,blank.png,blank.png,blank.png,1,"[""frie.png""]",blank.png,blank.png,blank.png,1,"[""pickle.png""]",blank.png,blank.png,blank.png,blank.png,blank.png,PB07.png,,,,,,,,,,,1,,,,,,,,,,,,560.0879999999888,,timeout,,,,,,,,,,,,,4,,,,,,,,,,,,,,,,,,,,,,,,,,,,,,,,,,,,,,,,,,,,,,,,,,,,,,,,,"[""pickle.png""]","[""frie.png""]",,,,1,,,false,,1,,,,,,,578117.8399999999,578117.226,577663.818,577667.6700000007,577677.153,578237.241,6,,,
timeout,canvas.Screen,2_4_3_6_1_0_0_0_0_5_1,2021-01-14T19:05:30.380Z,,,blank.png,blank.png,blank.png,blank.png,blank.png,blank.png,blank.png,"[""frie.png""]",blank.png,blank.png,blank.png,blank.png,blank.png,,,,,,,,,,,,,,,,,,,,,,,,,,,,,"[""frie.png""]","[""pickle.png""]",PB18.png,,,,,,,,,,,0,6,"[""pickle.png""]","[""pickle.png""]","[""pickle.png""]","[""pickle.png""]","[""pickle.png""]","[""pickle.png""]",blank.png,PB18.png,PB07.png,"[""pickle.png""]","[""pickle.png""]","[""pickle.png""]","[""pickle.png""]","[""pickle.png""]","[""pickle.png""]","[""pickle.png""]",blank.png,blank.png,blank.png,blank.png,blank.png,1,"[""frie.png""]",blank.png,blank.png,blank.png,1,"[""pickle.png""]",blank.png,blank.png,blank.png,blank.png,blank.png,PB07.png,,,,,,,,,,,1,,,,,,,,,,,,613.3209999999963,,timeout,,,,,,,,,,,,,4,,,,,,,,,,,,,,,,,,,,,,,,,,,,,,,,,,,,,,,,,,,,,,,,,,,,,,,,,"[""pickle.png""]","[""frie.png""]",,,,1,,,false,,1,,,,,,,578731.71,578730.547,578117.226,578242.225,578237.241,578850.562,,,,
choice,canvas.Screen,2_4_3_6_1_0_0_0_0_5_2,2021-01-14T19:05:32.111Z,,,blank.png,blank.png,blank.png,blank.png,blank.png,blank.png,blank.png,"[""frie.png""]",blank.png,blank.png,blank.png,blank.png,blank.png,,,,,,,,,,,,,,,,,,,,,,,,,,,,,"[""frie.png""]","[""pickle.png""]",PB18.png,,,,,,,,,,,0,6,"[""pickle.png""]","[""pickle.png""]","[""pickle.png""]","[""pickle.png""]","[""pickle.png""]","[""pickle.png""]",blank.png,PB18.png,PB07.png,"[""pickle.png""]","[""pickle.png""]","[""pickle.png""]","[""pickle.png""]","[""pickle.png""]","[""pickle.png""]","[""pickle.png""]",blank.png,blank.png,blank.png,blank.png,blank.png,1,"[""frie.png""]",blank.png,blank.png,blank.png,1,"[""pickle.png""]",blank.png,blank.png,blank.png,blank.png,blank.png,PB07.png,,,,,,,,,,,1,,,,,,,,,,,,1611.053000000189,,response,,,,,,,,,,,,,4,,,,,,,,,,,,,,,,,,,,,,,,,,,,,,,,,,,,,,,,,,,,,,,,,,,,,,,,,"[""pickle.png""]","[""frie.png""]",,,,1,left,keydown(ArrowLeft),false,,1,,,,,,,580462.305,580461.6150000002,578730.547,578851.275,578850.562,580584.225,,6,,
square,canvas.Screen,2_4_3_6_1_0_0_0_0_5_3,2021-01-14T19:05:33.220Z,,,blank.png,blank.png,blank.png,blank.png,blank.png,blank.png,blank.png,"[""frie.png""]",blank.png,blank.png,blank.png,blank.png,blank.png,,,,,,,,,,,,,,,,,,,,,,,,,,,,,"[""frie.png""]","[""pickle.png""]",PB18.png,,,,,,,,,,,0,6,"[""pickle.png""]","[""pickle.png""]","[""pickle.png""]","[""pickle.png""]","[""pickle.png""]","[""pickle.png""]",blank.png,PB18.png,PB07.png,"[""pickle.png""]","[""pickle.png""]","[""pickle.png""]","[""pickle.png""]","[""pickle.png""]","[""pickle.png""]","[""pickle.png""]",blank.png,blank.png,blank.png,blank.png,blank.png,1,"[""frie.png""]",blank.png,blank.png,blank.png,1,"[""pickle.png""]",blank.png,blank.png,blank.png,blank.png,blank.png,PB07.png,,,,,,,,,,,1,,#33ff3f,#808080,,,,,,,,,1000.01800000004,,timeout,,,,,,,,,,,,,4,,,,,,,,,,,,,,,,,,,,,,,,,,,,,,,,,,,,,,,,,,,,,,,,,,,,,,,,,"[""pickle.png""]","[""frie.png""]",,,,1,,,false,,1,,,,,black,white,581571.6900000006,581570.908,580570.89,580576.6450000001,580584.225,581584.243,,,,
ITI_late,canvas.Screen,2_4_3_6_1_0_0_0_0_5_4,2021-01-14T19:05:33.474Z,,,blank.png,blank.png,blank.png,blank.png,blank.png,blank.png,blank.png,"[""frie.png""]",blank.png,blank.png,blank.png,blank.png,blank.png,,,,,,,,,,,,,,,,,,,,,,,,,,,,,"[""frie.png""]","[""pickle.png""]",PB18.png,,,,,,,,,,,0,6,"[""pickle.png""]","[""pickle.png""]","[""pickle.png""]","[""pickle.png""]","[""pickle.png""]","[""pickle.png""]",blank.png,PB18.png,PB07.png,"[""pickle.png""]","[""pickle.png""]","[""pickle.png""]","[""pickle.png""]","[""pickle.png""]","[""pickle.png""]","[""pickle.png""]",blank.png,blank.png,blank.png,blank.png,blank.png,1,"[""frie.png""]",blank.png,blank.png,blank.png,1,"[""pickle.png""]",blank.png,blank.png,blank.png,blank.png,blank.png,PB07.png,,,,,,,,,,,1,,,,,,,,,,,,253.5679999999702,,timeout,,,,,,,,,,,,white,4,,,,,,,,,,,,,,,,,,,,,,,,,,,,,,,,,,,,,,,,,,,,,,,,,,,,,,,,,"[""pickle.png""]","[""frie.png""]",,,,1,,,false,,1,,,,,,,581824.9550000001,581824.476,581570.908,581572.5350000003,581584.243,581837.811,,,,
choice_sequence,flow.Sequence,2_4_3_6_1_0_0_0_0_5,2021-01-14T19:05:33.474Z,,,blank.png,blank.png,blank.png,blank.png,blank.png,blank.png,blank.png,"[""frie.png""]",blank.png,blank.png,blank.png,blank.png,blank.png,,,,,,,,,,,,,,,,,,,,,,,,,,,,,"[""frie.png""]","[""pickle.png""]",PB18.png,,,,,,,,,,,0,6,"[""pickle.png""]","[""pickle.png""]","[""pickle.png""]","[""pickle.png""]","[""pickle.png""]","[""pickle.png""]",blank.png,PB18.png,PB07.png,"[""pickle.png""]","[""pickle.png""]","[""pickle.png""]","[""pickle.png""]","[""pickle.png""]","[""pickle.png""]","[""pickle.png""]",blank.png,blank.png,blank.png,blank.png,blank.png,1,"[""frie.png""]",blank.png,blank.png,blank.png,1,"[""pickle.png""]",blank.png,blank.png,blank.png,blank.png,blank.png,PB07.png,,,,,,,,,,,1,,,,,,,,,,,,4147.322999999975,,completion,,,,,,,,,,,,,4,,,,,,,,,,,,,,,,,,,,,,,,,,,,,,,,,,,,,,,,,,,,,,,,,,,,,,,,,"[""pickle.png""]","[""frie.png""]",,,,1,,,false,,1,,,,,,,581825.1749999999,581824.476,577663.818,577667.2349999999,577677.153,581837.811,,,,
fixCross,canvas.Screen,2_4_3_6_1_0_0_0_0_6_0,2021-01-14T19:05:34.074Z,,,blank.png,"[""frie.png""]",blank.png,blank.png,blank.png,blank.png,blank.png,blank.png,blank.png,blank.png,blank.png,blank.png,blank.png,,,,,,,,,,,,,,,,,,,,,,,,,,,,,"[""frie.png""]","[""pickle.png""]",PB15.png,,,,,,,,,,,0,6,"[""pickle.png""]","[""pickle.png""]","[""pickle.png""]","[""pickle.png""]","[""pickle.png""]","[""pickle.png""]",blank.png,PB18.png,PB18.png,"[""pickle.png""]","[""pickle.png""]","[""pickle.png""]","[""pickle.png""]",blank.png,blank.png,"[""pickle.png""]","[""pickle.png""]","[""pickle.png""]","[""pickle.png""]","[""pickle.png""]","[""pickle.png""]",1,"[""frie.png""]",blank.png,blank.png,blank.png,4,"[""pickle.png""]","[""pickle.png""]","[""pickle.png""]","[""pickle.png""]",blank.png,blank.png,PB15.png,,,,,,,,,,,1,,,,,,,,,,,,719.9760000000242,,timeout,,,,,,,,,,,,,3,,,,,,,,,,,,,,,,,,,,,,,,,,,,,,,,,,,,,,,,,,,,,,,,,,,,,,,,,"[""pickle.png""]","[""frie.png""]",,,,1,,,false,,1,,,,,,,582425.1000000003,582424.437,581824.476,581827.3300000001,581837.811,582557.787,7,,,
timeout,canvas.Screen,2_4_3_6_1_0_0_0_0_6_1,2021-01-14T19:05:34.688Z,,,blank.png,"[""frie.png""]",blank.png,blank.png,blank.png,blank.png,blank.png,blank.png,blank.png,blank.png,blank.png,blank.png,blank.png,,,,,,,,,,,,,,,,,,,,,,,,,,,,,"[""frie.png""]","[""pickle.png""]",PB15.png,,,,,,,,,,,0,6,"[""pickle.png""]","[""pickle.png""]","[""pickle.png""]","[""pickle.png""]","[""pickle.png""]","[""pickle.png""]",blank.png,PB18.png,PB18.png,"[""pickle.png""]","[""pickle.png""]","[""pickle.png""]","[""pickle.png""]",blank.png,blank.png,"[""pickle.png""]","[""pickle.png""]","[""pickle.png""]","[""pickle.png""]","[""pickle.png""]","[""pickle.png""]",1,"[""frie.png""]",blank.png,blank.png,blank.png,4,"[""pickle.png""]","[""pickle.png""]","[""pickle.png""]","[""pickle.png""]",blank.png,blank.png,PB15.png,,,,,,,,,,,1,,,,,,,,,,,,613.5529999999562,,timeout,,,,,,,,,,,,,3,,,,,,,,,,,,,,,,,,,,,,,,,,,,,,,,,,,,,,,,,,,,,,,,,,,,,,,,,"[""pickle.png""]","[""frie.png""]",,,,1,,,false,,1,,,,,,,583038.9700000006,583037.99,582424.437,582559.7450000005,582557.787,583171.34,,,,
choice,canvas.Screen,2_4_3_6_1_0_0_0_0_6_2,2021-01-14T19:05:37.933Z,,,blank.png,"[""frie.png""]",blank.png,blank.png,blank.png,blank.png,blank.png,blank.png,blank.png,blank.png,blank.png,blank.png,blank.png,,,,,,,,,,,,,,,,,,,,,,,,,,,,,"[""frie.png""]","[""pickle.png""]",PB15.png,,,,,,,,,,,0,6,"[""pickle.png""]","[""pickle.png""]","[""pickle.png""]","[""pickle.png""]","[""pickle.png""]","[""pickle.png""]",blank.png,PB18.png,PB18.png,"[""pickle.png""]","[""pickle.png""]","[""pickle.png""]","[""pickle.png""]",blank.png,blank.png,"[""pickle.png""]","[""pickle.png""]","[""pickle.png""]","[""pickle.png""]","[""pickle.png""]","[""pickle.png""]",1,"[""frie.png""]",blank.png,blank.png,blank.png,4,"[""pickle.png""]","[""pickle.png""]","[""pickle.png""]","[""pickle.png""]",blank.png,blank.png,PB15.png,,,,,,,,,,,1,,,,,,,,,,,,3112.2850000000326,,response,,,,,,,,,,,,,3,,,,,,,,,,,,,,,,,,,,,,,,,,,,,,,,,,,,,,,,,,,,,,,,,,,,,,,,,"[""pickle.png""]","[""frie.png""]",,,,1,left,keydown(ArrowLeft),false,,1,,,,,,,586284.0599999999,586283.625,583037.99,583168.7300000003,583171.34,586411.766,,7,,
square,canvas.Screen,2_4_3_6_1_0_0_0_0_6_3,2021-01-14T19:05:39.049Z,,,blank.png,"[""frie.png""]",blank.png,blank.png,blank.png,blank.png,blank.png,blank.png,blank.png,blank.png,blank.png,blank.png,blank.png,,,,,,,,,,,,,,,,,,,,,,,,,,,,,"[""frie.png""]","[""pickle.png""]",PB15.png,,,,,,,,,,,0,6,"[""pickle.png""]","[""pickle.png""]","[""pickle.png""]","[""pickle.png""]","[""pickle.png""]","[""pickle.png""]",blank.png,PB18.png,PB18.png,"[""pickle.png""]","[""pickle.png""]","[""pickle.png""]","[""pickle.png""]",blank.png,blank.png,"[""pickle.png""]","[""pickle.png""]","[""pickle.png""]","[""pickle.png""]","[""pickle.png""]","[""pickle.png""]",1,"[""frie.png""]",blank.png,blank.png,blank.png,4,"[""pickle.png""]","[""pickle.png""]","[""pickle.png""]","[""pickle.png""]",blank.png,blank.png,PB15.png,,,,,,,,,,,1,,#33ff3f,#808080,,,,,,,,,1000.2270000000717,,timeout,,,,,,,,,,,,,3,,,,,,,,,,,,,,,,,,,,,,,,,,,,,,,,,,,,,,,,,,,,,,,,,,,,,,,,,"[""pickle.png""]","[""frie.png""]",,,,1,,,false,,1,,,,,black,white,587399.8650000003,587398.658,586398.431,586410.5700000001,586411.766,587411.993,,,,
ITI_late,canvas.Screen,2_4_3_6_1_0_0_0_0_6_4,2021-01-14T19:05:39.302Z,,,blank.png,"[""frie.png""]",blank.png,blank.png,blank.png,blank.png,blank.png,blank.png,blank.png,blank.png,blank.png,blank.png,blank.png,,,,,,,,,,,,,,,,,,,,,,,,,,,,,"[""frie.png""]","[""pickle.png""]",PB15.png,,,,,,,,,,,0,6,"[""pickle.png""]","[""pickle.png""]","[""pickle.png""]","[""pickle.png""]","[""pickle.png""]","[""pickle.png""]",blank.png,PB18.png,PB18.png,"[""pickle.png""]","[""pickle.png""]","[""pickle.png""]","[""pickle.png""]",blank.png,blank.png,"[""pickle.png""]","[""pickle.png""]","[""pickle.png""]","[""pickle.png""]","[""pickle.png""]","[""pickle.png""]",1,"[""frie.png""]",blank.png,blank.png,blank.png,4,"[""pickle.png""]","[""pickle.png""]","[""pickle.png""]","[""pickle.png""]",blank.png,blank.png,PB15.png,,,,,,,,,,,1,,,,,,,,,,,,253.2619999999879,,timeout,,,,,,,,,,,,white,3,,,,,,,,,,,,,,,,,,,,,,,,,,,,,,,,,,,,,,,,,,,,,,,,,,,,,,,,,"[""pickle.png""]","[""frie.png""]",,,,1,,,false,,1,,,,,,,587653.0000000002,587651.92,587398.658,587400.7050000001,587411.993,587665.255,,,,
choice_sequence,flow.Sequence,2_4_3_6_1_0_0_0_0_6,2021-01-14T19:05:39.302Z,,,blank.png,"[""frie.png""]",blank.png,blank.png,blank.png,blank.png,blank.png,blank.png,blank.png,blank.png,blank.png,blank.png,blank.png,,,,,,,,,,,,,,,,,,,,,,,,,,,,,"[""frie.png""]","[""pickle.png""]",PB15.png,,,,,,,,,,,0,6,"[""pickle.png""]","[""pickle.png""]","[""pickle.png""]","[""pickle.png""]","[""pickle.png""]","[""pickle.png""]",blank.png,PB18.png,PB18.png,"[""pickle.png""]","[""pickle.png""]","[""pickle.png""]","[""pickle.png""]",blank.png,blank.png,"[""pickle.png""]","[""pickle.png""]","[""pickle.png""]","[""pickle.png""]","[""pickle.png""]","[""pickle.png""]",1,"[""frie.png""]",blank.png,blank.png,blank.png,4,"[""pickle.png""]","[""pickle.png""]","[""pickle.png""]","[""pickle.png""]",blank.png,blank.png,PB15.png,,,,,,,,,,,1,,,,,,,,,,,,5814.109000000055,,completion,,,,,,,,,,,,,3,,,,,,,,,,,,,,,,,,,,,,,,,,,,,,,,,,,,,,,,,,,,,,,,,,,,,,,,,"[""pickle.png""]","[""frie.png""]",,,,1,,,false,,1,,,,,,,587653.2350000007,587651.92,581824.476,581826.94,581837.811,587665.255,,,,
choice_loop,flow.Loop,2_4_3_6_1_0_0_0_0,2021-01-14T19:05:39.302Z,,,,,,,,,,,,,,,,,,,,,,,,,,,,,,,,,,,,,,,,,,,,"[""frie.png""]","[""pickle.png""]",,,,,,,,,,,,,,,,,,,,,,,,,,,,,,,,,,,,,,,,,,,,,,,,,,,,,,,,,,,,,,,,,,,,,,30804.736000000034,,completion,,,,,,,,,,,,,,,,,,,,,,,,,,,,,,,,,,,,,,,,,,,,,,,,,,,,,,,,,,,,,,,,,,,,,,"[""pickle.png""]","[""frie.png""]",,,,1,,,false,,,,,,,,,587653.3900000004,587651.92,556833.849,556845.2550000001,556847.184,587665.255,,,,
choice_frame,html.Frame,2_4_3_6_1_0_0_0,2021-01-14T19:05:39.303Z,,,,,,,,,,,,,,,,,,,,,,,,,,,,,,,,,,,,,,,,,,,,,,,,,,,,,,,,,,,,,,,,,,,,,,,,,,,,,,,,,,,,,,,,,,,,,,,,,,,,,,,,,,,,,,,,,,,30807.00100000028,,,,,,,,,,,,,,,,,,,,,,,,,,,,,,,,,,,,,,,,,,,,,,,,,,,,,,,,,,,,,,,,,,,,,,,,,,,,,1,,,false,,,,,,,,,587654.2650000001,587654.1850000003,556833.849,556834.4100000004,556847.184,587678.59,,,,
sublock_1,flow.Sequence,2_4_3_6_1_0_0,2021-01-14T19:05:39.303Z,,,,,,,,,,,,,,,,,,,,,,,,,,,,,,,,,,,,,,,,,,,,,,,,,,,,,,,,,,,,,,,,,,,,,,,,,,,,,,,,,,,,,,,,,,,,,,,,,,,,,,,,,,,,,,,,,,,30807.00100000028,,completion,,,,,,,,,,,,,,,,,,,,,,,,,,,,,,,,,,,,,,,,,,,,,,,,,,,,,,,,,,,,,,,,,,,,,,,,,,,1,,,false,,,,,,,,,587654.3250000004,587654.1850000003,556833.849,556834.39,556847.184,587678.59,,,,
fixCross,canvas.Screen,2_4_3_6_1_0_1_0_0_0_0,2021-01-14T19:05:39.715Z,,,blank.png,blank.png,blank.png,blank.png,blank.png,blank.png,blank.png,"[""frie.png""]",blank.png,blank.png,blank.png,blank.png,blank.png,,,,,,,,,,,,,,,,,,,,,,,,,,,,,"[""frie.png""]","[""pickle.png""]",PB18.png,,,,,,,,,,,0,6,"[""pickle.png""]","[""pickle.png""]","[""pickle.png""]","[""pickle.png""]","[""pickle.png""]","[""pickle.png""]",blank.png,PB18.png,PB16.png,"[""pickle.png""]","[""pickle.png""]","[""pickle.png""]","[""pickle.png""]","[""pickle.png""]","[""pickle.png""]","[""pickle.png""]","[""pickle.png""]","[""pickle.png""]","[""pickle.png""]","[""pickle.png""]",blank.png,1,"[""frie.png""]",blank.png,blank.png,blank.png,5,"[""pickle.png""]","[""pickle.png""]","[""pickle.png""]","[""pickle.png""]","[""pickle.png""]",blank.png,PB16.png,,,,,,,,,,,1,,,,,,,,,,,,520.2310000000289,,timeout,,,,,,,,,,,,,4,,,,,,,,,,,,,,,,,,,,,,,,,,,,,,,,,,,,,,,,,,,,,,,,,,,,,,,,,"[""pickle.png""]","[""frie.png""]",,,,3,,,false,,1,,,,,,,588066.0750000007,588065.471,587665.255,587668.1550000003,587678.59,588198.821,8,,,
timeout,canvas.Screen,2_4_3_6_1_0_1_0_0_0_1,2021-01-14T19:05:40.328Z,,,blank.png,blank.png,blank.png,blank.png,blank.png,blank.png,blank.png,"[""frie.png""]",blank.png,blank.png,blank.png,blank.png,blank.png,,,,,,,,,,,,,,,,,,,,,,,,,,,,,"[""frie.png""]","[""pickle.png""]",PB18.png,,,,,,,,,,,0,6,"[""pickle.png""]","[""pickle.png""]","[""pickle.png""]","[""pickle.png""]","[""pickle.png""]","[""pickle.png""]",blank.png,PB18.png,PB16.png,"[""pickle.png""]","[""pickle.png""]","[""pickle.png""]","[""pickle.png""]","[""pickle.png""]","[""pickle.png""]","[""pickle.png""]","[""pickle.png""]","[""pickle.png""]","[""pickle.png""]","[""pickle.png""]",blank.png,1,"[""frie.png""]",blank.png,blank.png,blank.png,5,"[""pickle.png""]","[""pickle.png""]","[""pickle.png""]","[""pickle.png""]","[""pickle.png""]",blank.png,PB16.png,,,,,,,,,,,1,,,,,,,,,,,,613.3869999999879,,timeout,,,,,,,,,,,,,4,,,,,,,,,,,,,,,,,,,,,,,,,,,,,,,,,,,,,,,,,,,,,,,,,,,,,,,,,"[""pickle.png""]","[""frie.png""]",,,,3,,,false,,1,,,,,,,588679.29,588678.858,588065.471,588196.6000000002,588198.821,588812.208,,,,
choice,canvas.Screen,2_4_3_6_1_0_1_0_0_0_2,2021-01-14T19:05:41.760Z,,,blank.png,blank.png,blank.png,blank.png,blank.png,blank.png,blank.png,"[""frie.png""]",blank.png,blank.png,blank.png,blank.png,blank.png,,,,,,,,,,,,,,,,,,,,,,,,,,,,,"[""frie.png""]","[""pickle.png""]",PB18.png,,,,,,,,,,,0,6,"[""pickle.png""]","[""pickle.png""]","[""pickle.png""]","[""pickle.png""]","[""pickle.png""]","[""pickle.png""]",blank.png,PB18.png,PB16.png,"[""pickle.png""]","[""pickle.png""]","[""pickle.png""]","[""pickle.png""]","[""pickle.png""]","[""pickle.png""]","[""pickle.png""]","[""pickle.png""]","[""pickle.png""]","[""pickle.png""]","[""pickle.png""]",blank.png,1,"[""frie.png""]",blank.png,blank.png,blank.png,5,"[""pickle.png""]","[""pickle.png""]","[""pickle.png""]","[""pickle.png""]","[""pickle.png""]",blank.png,PB16.png,,,,,,,,,,,1,,,,,,,,,,,,1298.4170000002487,,response,,,,,,,,,,,,,4,,,,,,,,,,,,,,,,,,,,,,,,,,,,,,,,,,,,,,,,,,,,,,,,,,,,,,,,,"[""pickle.png""]","[""frie.png""]",,,,3,left,keydown(ArrowLeft),false,,1,,,,,,,590111.07,590110.6250000002,588678.858,588813.6450000001,588812.208,590252.311,,8,,
square,canvas.Screen,2_4_3_6_1_0_1_0_0_0_3,2021-01-14T19:05:42.888Z,,,blank.png,blank.png,blank.png,blank.png,blank.png,blank.png,blank.png,"[""frie.png""]",blank.png,blank.png,blank.png,blank.png,blank.png,,,,,,,,,,,,,,,,,,,,,,,,,,,,,"[""frie.png""]","[""pickle.png""]",PB18.png,,,,,,,,,,,0,6,"[""pickle.png""]","[""pickle.png""]","[""pickle.png""]","[""pickle.png""]","[""pickle.png""]","[""pickle.png""]",blank.png,PB18.png,PB16.png,"[""pickle.png""]","[""pickle.png""]","[""pickle.png""]","[""pickle.png""]","[""pickle.png""]","[""pickle.png""]","[""pickle.png""]","[""pickle.png""]","[""pickle.png""]","[""pickle.png""]","[""pickle.png""]",blank.png,1,"[""frie.png""]",blank.png,blank.png,blank.png,5,"[""pickle.png""]","[""pickle.png""]","[""pickle.png""]","[""pickle.png""]","[""pickle.png""]",blank.png,PB16.png,,,,,,,,,,,1,,#33ff3f,#808080,,,,,,,,,1000.1639999999898,,timeout,,,,,,,,,,,,,4,,,,,,,,,,,,,,,,,,,,,,,,,,,,,,,,,,,,,,,,,,,,,,,,,,,,,,,,,"[""pickle.png""]","[""frie.png""]",,,,3,,,false,,1,,,,,black,white,591239.5550000002,591239.14,590238.976,590242.3250000002,590252.311,591252.475,,,,
ITI_late,canvas.Screen,2_4_3_6_1_0_1_0_0_0_4,2021-01-14T19:05:43.384Z,,,blank.png,blank.png,blank.png,blank.png,blank.png,blank.png,blank.png,"[""frie.png""]",blank.png,blank.png,blank.png,blank.png,blank.png,,,,,,,,,,,,,,,,,,,,,,,,,,,,,"[""frie.png""]","[""pickle.png""]",PB18.png,,,,,,,,,,,0,6,"[""pickle.png""]","[""pickle.png""]","[""pickle.png""]","[""pickle.png""]","[""pickle.png""]","[""pickle.png""]",blank.png,PB18.png,PB16.png,"[""pickle.png""]","[""pickle.png""]","[""pickle.png""]","[""pickle.png""]","[""pickle.png""]","[""pickle.png""]","[""pickle.png""]","[""pickle.png""]","[""pickle.png""]","[""pickle.png""]","[""pickle.png""]",blank.png,1,"[""frie.png""]",blank.png,blank.png,blank.png,5,"[""pickle.png""]","[""pickle.png""]","[""pickle.png""]","[""pickle.png""]","[""pickle.png""]",blank.png,PB16.png,,,,,,,,,,,1,,,,,,,,,,,,493.5590000000084,,timeout,,,,,,,,,,,,white,4,,,,,,,,,,,,,,,,,,,,,,,,,,,,,,,,,,,,,,,,,,,,,,,,,,,,,,,,,"[""pickle.png""]","[""frie.png""]",,,,3,,,false,,1,,,,,,,591734.77,591732.699,591239.14,591240.4050000005,591252.475,591746.034,,,,
choice_sequence,flow.Sequence,2_4_3_6_1_0_1_0_0_0,2021-01-14T19:05:43.384Z,,,blank.png,blank.png,blank.png,blank.png,blank.png,blank.png,blank.png,"[""frie.png""]",blank.png,blank.png,blank.png,blank.png,blank.png,,,,,,,,,,,,,,,,,,,,,,,,,,,,,"[""frie.png""]","[""pickle.png""]",PB18.png,,,,,,,,,,,0,6,"[""pickle.png""]","[""pickle.png""]","[""pickle.png""]","[""pickle.png""]","[""pickle.png""]","[""pickle.png""]",blank.png,PB18.png,PB16.png,"[""pickle.png""]","[""pickle.png""]","[""pickle.png""]","[""pickle.png""]","[""pickle.png""]","[""pickle.png""]","[""pickle.png""]","[""pickle.png""]","[""pickle.png""]","[""pickle.png""]","[""pickle.png""]",blank.png,1,"[""frie.png""]",blank.png,blank.png,blank.png,5,"[""pickle.png""]","[""pickle.png""]","[""pickle.png""]","[""pickle.png""]","[""pickle.png""]",blank.png,PB16.png,,,,,,,,,,,1,,,,,,,,,,,,4054.109000000055,,completion,,,,,,,,,,,,,4,,,,,,,,,,,,,,,,,,,,,,,,,,,,,,,,,,,,,,,,,,,,,,,,,,,,,,,,,"[""pickle.png""]","[""frie.png""]",,,,3,,,false,,1,,,,,,,591734.9950000007,591732.699,587665.255,587667.7600000002,587678.59,591746.034,,,,
fixCross,canvas.Screen,2_4_3_6_1_0_1_0_0_1_0,2021-01-14T19:05:43.876Z,,,blank.png,blank.png,blank.png,blank.png,blank.png,blank.png,blank.png,"[""frie.png""]",blank.png,blank.png,blank.png,blank.png,blank.png,,,,,,,,,,,,,,,,,,,,,,,,,,,,,"[""frie.png""]","[""pickle.png""]",PB18.png,,,,,,,,,,,0,6,"[""pickle.png""]","[""pickle.png""]","[""pickle.png""]","[""pickle.png""]","[""pickle.png""]","[""pickle.png""]",blank.png,PB18.png,PB07.png,"[""pickle.png""]","[""pickle.png""]","[""pickle.png""]","[""pickle.png""]","[""pickle.png""]","[""pickle.png""]","[""pickle.png""]",blank.png,blank.png,blank.png,blank.png,blank.png,1,"[""frie.png""]",blank.png,blank.png,blank.png,1,"[""pickle.png""]",blank.png,blank.png,blank.png,blank.png,blank.png,PB07.png,,,,,,,,,,,1,,,,,,,,,,,,613.439000000013,,timeout,,,,,,,,,,,,,4,,,,,,,,,,,,,,,,,,,,,,,,,,,,,,,,,,,,,,,,,,,,,,,,,,,,,,,,,"[""pickle.png""]","[""frie.png""]",,,,3,,,false,,1,,,,,,,592226.9999999999,592226.123,591732.699,591737.3500000003,591746.034,592359.473,9,,,
timeout,canvas.Screen,2_4_3_6_1_0_1_0_0_1_1,2021-01-14T19:05:44.503Z,,,blank.png,blank.png,blank.png,blank.png,blank.png,blank.png,blank.png,"[""frie.png""]",blank.png,blank.png,blank.png,blank.png,blank.png,,,,,,,,,,,,,,,,,,,,,,,,,,,,,"[""frie.png""]","[""pickle.png""]",PB18.png,,,,,,,,,,,0,6,"[""pickle.png""]","[""pickle.png""]","[""pickle.png""]","[""pickle.png""]","[""pickle.png""]","[""pickle.png""]",blank.png,PB18.png,PB07.png,"[""pickle.png""]","[""pickle.png""]","[""pickle.png""]","[""pickle.png""]","[""pickle.png""]","[""pickle.png""]","[""pickle.png""]",blank.png,blank.png,blank.png,blank.png,blank.png,1,"[""frie.png""]",blank.png,blank.png,blank.png,1,"[""pickle.png""]",blank.png,blank.png,blank.png,blank.png,blank.png,PB07.png,,,,,,,,,,,1,,,,,,,,,,,,613.2900000000373,,timeout,,,,,,,,,,,,,4,,,,,,,,,,,,,,,,,,,,,,,,,,,,,,,,,,,,,,,,,,,,,,,,,,,,,,,,,"[""pickle.png""]","[""frie.png""]",,,,3,,,false,,1,,,,,,,592853.7999999998,592852.748,592226.123,592342.4300000006,592359.473,592972.763,,,,
choice,canvas.Screen,2_4_3_6_1_0_1_0_0_1_2,2021-01-14T19:05:44.853Z,,,blank.png,blank.png,blank.png,blank.png,blank.png,blank.png,blank.png,"[""frie.png""]",blank.png,blank.png,blank.png,blank.png,blank.png,,,,,,,,,,,,,,,,,,,,,,,,,,,,,"[""frie.png""]","[""pickle.png""]",PB18.png,,,,,,,,,,,0,6,"[""pickle.png""]","[""pickle.png""]","[""pickle.png""]","[""pickle.png""]","[""pickle.png""]","[""pickle.png""]",blank.png,PB18.png,PB07.png,"[""pickle.png""]","[""pickle.png""]","[""pickle.png""]","[""pickle.png""]","[""pickle.png""]","[""pickle.png""]","[""pickle.png""]",blank.png,blank.png,blank.png,blank.png,blank.png,1,"[""frie.png""]",blank.png,blank.png,blank.png,1,"[""pickle.png""]",blank.png,blank.png,blank.png,blank.png,blank.png,PB07.png,,,,,,,,,,,1,,,,,,,,,,,,230.8470000004163,,response,,,,,,,,,,,,,4,,,,,,,,,,,,,,,,,,,,,,,,,,,,,,,,,,,,,,,,,,,,,,,,,,,,,,,,,"[""pickle.png""]","[""frie.png""]",,,,3,left,keydown(ArrowLeft),false,,1,,,,,,,593204.385,593203.6100000005,592852.748,592976.7550000006,592972.763,593332.955,,9,,
square,canvas.Screen,2_4_3_6_1_0_1_0_0_1_3,2021-01-14T19:05:45.969Z,,,blank.png,blank.png,blank.png,blank.png,blank.png,blank.png,blank.png,"[""frie.png""]",blank.png,blank.png,blank.png,blank.png,blank.png,,,,,,,,,,,,,,,,,,,,,,,,,,,,,"[""frie.png""]","[""pickle.png""]",PB18.png,,,,,,,,,,,0,6,"[""pickle.png""]","[""pickle.png""]","[""pickle.png""]","[""pickle.png""]","[""pickle.png""]","[""pickle.png""]",blank.png,PB18.png,PB07.png,"[""pickle.png""]","[""pickle.png""]","[""pickle.png""]","[""pickle.png""]","[""pickle.png""]","[""pickle.png""]","[""pickle.png""]",blank.png,blank.png,blank.png,blank.png,blank.png,1,"[""frie.png""]",blank.png,blank.png,blank.png,1,"[""pickle.png""]",blank.png,blank.png,blank.png,blank.png,blank.png,PB07.png,,,,,,,,,,,1,,#33ff3f,#808080,,,,,,,,,1000.1610000000801,,timeout,,,,,,,,,,,,,4,,,,,,,,,,,,,,,,,,,,,,,,,,,,,,,,,,,,,,,,,,,,,,,,,,,,,,,,,"[""pickle.png""]","[""frie.png""]",,,,3,,,false,,1,,,,,black,white,594320.3050000002,594319.781,593319.62,593321.8150000003,593332.955,594333.116,,,,
ITI_late,canvas.Screen,2_4_3_6_1_0_1_0_0_1_4,2021-01-14T19:05:46.462Z,,,blank.png,blank.png,blank.png,blank.png,blank.png,blank.png,blank.png,"[""frie.png""]",blank.png,blank.png,blank.png,blank.png,blank.png,,,,,,,,,,,,,,,,,,,,,,,,,,,,,"[""frie.png""]","[""pickle.png""]",PB18.png,,,,,,,,,,,0,6,"[""pickle.png""]","[""pickle.png""]","[""pickle.png""]","[""pickle.png""]","[""pickle.png""]","[""pickle.png""]",blank.png,PB18.png,PB07.png,"[""pickle.png""]","[""pickle.png""]","[""pickle.png""]","[""pickle.png""]","[""pickle.png""]","[""pickle.png""]","[""pickle.png""]",blank.png,blank.png,blank.png,blank.png,blank.png,1,"[""frie.png""]",blank.png,blank.png,blank.png,1,"[""pickle.png""]",blank.png,blank.png,blank.png,blank.png,blank.png,PB07.png,,,,,,,,,,,1,,,,,,,,,,,,493.38199999998324,,timeout,,,,,,,,,,,,white,4,,,,,,,,,,,,,,,,,,,,,,,,,,,,,,,,,,,,,,,,,,,,,,,,,,,,,,,,,"[""pickle.png""]","[""frie.png""]",,,,3,,,false,,1,,,,,,,594813.5449999999,594813.163,594319.781,594321.2650000005,594333.116,594826.498,,,,
choice_sequence,flow.Sequence,2_4_3_6_1_0_1_0_0_1,2021-01-14T19:05:46.463Z,,,blank.png,blank.png,blank.png,blank.png,blank.png,blank.png,blank.png,"[""frie.png""]",blank.png,blank.png,blank.png,blank.png,blank.png,,,,,,,,,,,,,,,,,,,,,,,,,,,,,"[""frie.png""]","[""pickle.png""]",PB18.png,,,,,,,,,,,0,6,"[""pickle.png""]","[""pickle.png""]","[""pickle.png""]","[""pickle.png""]","[""pickle.png""]","[""pickle.png""]",blank.png,PB18.png,PB07.png,"[""pickle.png""]","[""pickle.png""]","[""pickle.png""]","[""pickle.png""]","[""pickle.png""]","[""pickle.png""]","[""pickle.png""]",blank.png,blank.png,blank.png,blank.png,blank.png,1,"[""frie.png""]",blank.png,blank.png,blank.png,1,"[""pickle.png""]",blank.png,blank.png,blank.png,blank.png,blank.png,PB07.png,,,,,,,,,,,1,,,,,,,,,,,,3067.128999999957,,completion,,,,,,,,,,,,,4,,,,,,,,,,,,,,,,,,,,,,,,,,,,,,,,,,,,,,,,,,,,,,,,,,,,,,,,,"[""pickle.png""]","[""frie.png""]",,,,3,,,false,,1,,,,,,,594813.8400000007,594813.163,591732.699,591736.9050000006,591746.034,594826.498,,,,
fixCross,canvas.Screen,2_4_3_6_1_0_1_0_0_2_0,2021-01-14T19:05:46.770Z,,,blank.png,blank.png,blank.png,blank.png,blank.png,blank.png,blank.png,"[""frie.png""]",blank.png,blank.png,blank.png,blank.png,blank.png,,,,,,,,,,,,,,,,,,,,,,,,,,,,,"[""frie.png""]","[""pickle.png""]",PB18.png,,,,,,,,,,,0,6,"[""pickle.png""]","[""pickle.png""]","[""pickle.png""]","[""pickle.png""]","[""pickle.png""]","[""pickle.png""]",blank.png,PB18.png,PB14.png,"[""pickle.png""]","[""pickle.png""]","[""pickle.png""]","[""pickle.png""]","[""pickle.png""]","[""pickle.png""]","[""pickle.png""]","[""pickle.png""]","[""pickle.png""]",blank.png,blank.png,blank.png,1,"[""frie.png""]",blank.png,blank.png,blank.png,3,"[""pickle.png""]","[""pickle.png""]","[""pickle.png""]",blank.png,blank.png,blank.png,PB14.png,,,,,,,,,,,1,,,,,,,,,,,,426.6219999999739,,timeout,,,,,,,,,,,,,4,,,,,,,,,,,,,,,,,,,,,,,,,,,,,,,,,,,,,,,,,,,,,,,,,,,,,,,,,"[""pickle.png""]","[""frie.png""]",,,,3,,,false,,1,,,,,,,595120.7549999999,595119.77,594813.163,594816.6350000001,594826.498,595253.12,10,,,
timeout,canvas.Screen,2_4_3_6_1_0_1_0_0_2_1,2021-01-14T19:05:47.383Z,,,blank.png,blank.png,blank.png,blank.png,blank.png,blank.png,blank.png,"[""frie.png""]",blank.png,blank.png,blank.png,blank.png,blank.png,,,,,,,,,,,,,,,,,,,,,,,,,,,,,"[""frie.png""]","[""pickle.png""]",PB18.png,,,,,,,,,,,0,6,"[""pickle.png""]","[""pickle.png""]","[""pickle.png""]","[""pickle.png""]","[""pickle.png""]","[""pickle.png""]",blank.png,PB18.png,PB14.png,"[""pickle.png""]","[""pickle.png""]","[""pickle.png""]","[""pickle.png""]","[""pickle.png""]","[""pickle.png""]","[""pickle.png""]","[""pickle.png""]","[""pickle.png""]",blank.png,blank.png,blank.png,1,"[""frie.png""]",blank.png,blank.png,blank.png,3,"[""pickle.png""]","[""pickle.png""]","[""pickle.png""]",blank.png,blank.png,blank.png,PB14.png,,,,,,,,,,,1,,,,,,,,,,,,613.5380000000587,,timeout,,,,,,,,,,,,,4,,,,,,,,,,,,,,,,,,,,,,,,,,,,,,,,,,,,,,,,,,,,,,,,,,,,,,,,,"[""pickle.png""]","[""frie.png""]",,,,3,,,false,,1,,,,,,,595733.8150000005,595733.308,595119.77,595249.2000000002,595253.12,595866.658,,,,
choice,canvas.Screen,2_4_3_6_1_0_1_0_0_2_2,2021-01-14T19:05:48.309Z,,,blank.png,blank.png,blank.png,blank.png,blank.png,blank.png,blank.png,"[""frie.png""]",blank.png,blank.png,blank.png,blank.png,blank.png,,,,,,,,,,,,,,,,,,,,,,,,,,,,,"[""frie.png""]","[""pickle.png""]",PB18.png,,,,,,,,,,,0,6,"[""pickle.png""]","[""pickle.png""]","[""pickle.png""]","[""pickle.png""]","[""pickle.png""]","[""pickle.png""]",blank.png,PB18.png,PB14.png,"[""pickle.png""]","[""pickle.png""]","[""pickle.png""]","[""pickle.png""]","[""pickle.png""]","[""pickle.png""]","[""pickle.png""]","[""pickle.png""]","[""pickle.png""]",blank.png,blank.png,blank.png,1,"[""frie.png""]",blank.png,blank.png,blank.png,3,"[""pickle.png""]","[""pickle.png""]","[""pickle.png""]",blank.png,blank.png,blank.png,PB14.png,,,,,,,,,,,1,,,,,,,,,,,,792.9570000004023,,response,,,,,,,,,,,,,4,,,,,,,,,,,,,,,,,,,,,,,,,,,,,,,,,,,,,,,,,,,,,,,,,,,,,,,,,"[""pickle.png""]","[""frie.png""]",,,,3,left,keydown(ArrowLeft),false,,1,,,,,,,596660.1799999998,596659.6150000005,595733.308,595862.1849999999,595866.658,596786.658,,10,,
square,canvas.Screen,2_4_3_6_1_0_1_0_0_2_3,2021-01-14T19:05:49.425Z,,,blank.png,blank.png,blank.png,blank.png,blank.png,blank.png,blank.png,"[""frie.png""]",blank.png,blank.png,blank.png,blank.png,blank.png,,,,,,,,,,,,,,,,,,,,,,,,,,,,,"[""frie.png""]","[""pickle.png""]",PB18.png,,,,,,,,,,,0,6,"[""pickle.png""]","[""pickle.png""]","[""pickle.png""]","[""pickle.png""]","[""pickle.png""]","[""pickle.png""]",blank.png,PB18.png,PB14.png,"[""pickle.png""]","[""pickle.png""]","[""pickle.png""]","[""pickle.png""]","[""pickle.png""]","[""pickle.png""]","[""pickle.png""]","[""pickle.png""]","[""pickle.png""]",blank.png,blank.png,blank.png,1,"[""frie.png""]",blank.png,blank.png,blank.png,3,"[""pickle.png""]","[""pickle.png""]","[""pickle.png""]",blank.png,blank.png,blank.png,PB14.png,,,,,,,,,,,1,,#33ff3f,#808080,,,,,,,,,1000.3149999999441,,timeout,,,,,,,,,,,,,4,,,,,,,,,,,,,,,,,,,,,,,,,,,,,,,,,,,,,,,,,,,,,,,,,,,,,,,,,"[""pickle.png""]","[""frie.png""]",,,,3,,,false,,1,,,,,black,white,597775.8000000004,597773.638,596773.323,596784.7150000007,596786.658,597786.973,,,,
ITI_late,canvas.Screen,2_4_3_6_1_0_1_0_0_2_4,2021-01-14T19:05:50.424Z,,,blank.png,blank.png,blank.png,blank.png,blank.png,blank.png,blank.png,"[""frie.png""]",blank.png,blank.png,blank.png,blank.png,blank.png,,,,,,,,,,,,,,,,,,,,,,,,,,,,,"[""frie.png""]","[""pickle.png""]",PB18.png,,,,,,,,,,,0,6,"[""pickle.png""]","[""pickle.png""]","[""pickle.png""]","[""pickle.png""]","[""pickle.png""]","[""pickle.png""]",blank.png,PB18.png,PB14.png,"[""pickle.png""]","[""pickle.png""]","[""pickle.png""]","[""pickle.png""]","[""pickle.png""]","[""pickle.png""]","[""pickle.png""]","[""pickle.png""]","[""pickle.png""]",blank.png,blank.png,blank.png,1,"[""frie.png""]",blank.png,blank.png,blank.png,3,"[""pickle.png""]","[""pickle.png""]","[""pickle.png""]",blank.png,blank.png,blank.png,PB14.png,,,,,,,,,,,1,,,,,,,,,,,,1000.0200000000186,,timeout,,,,,,,,,,,,white,4,,,,,,,,,,,,,,,,,,,,,,,,,,,,,,,,,,,,,,,,,,,,,,,,,,,,,,,,,"[""pickle.png""]","[""frie.png""]",,,,3,,,false,,1,,,,,,,598774.8799999999,598773.658,597773.638,597776.7400000002,597786.973,598786.993,,,,
