sender,sender_type,sender_id,timestamp,meta,,Blank,DownLeft1,DownLeft2,DownLeft3,DownLeft4,DownLeft5,DownLeft6,DownRight1,DownRight2,DownRight3,DownRight4,DownRight5,DownRight6,FoodHabits_Fru_item1,FoodHabits_Fru_item2,FoodHabits_Fru_item3,FoodHabits_Fru_item4,FoodHabits_Fru_item5,FoodHabits_Fru_item6,FoodHabits_Fru_item7,FoodHabits_Meat_item1,FoodHabits_Meat_item2,FoodHabits_Meat_item3,FoodHabits_Meat_item4,FoodHabits_Meat_item5,FoodHabits_Meat_item6,FoodHabits_Meat_item7,FoodHabits_Swe_item1,FoodHabits_Swe_item2,FoodHabits_Swe_item3,FoodHabits_Swe_item4,FoodHabits_Swe_item5,FoodHabits_Swe_item6,FoodHabits_Swe_item7,FoodHabits_Veg_item1,FoodHabits_Veg_item2,FoodHabits_Veg_item3,FoodHabits_Veg_item4,FoodHabits_Veg_item5,FoodHabits_Veg_item6,FoodHabits_Veg_item7,ImgA,ImgB,LeftBar,PSS_item01,PSS_item02,PSS_item03,PSS_item04,PSS_item05,PSS_item06,PSS_item07,PSS_item08,PSS_item09,PSS_item10,RefA,RefB,RefB1,RefB2,RefB3,RefB4,RefB5,RefB6,RefB7,Ref_PB,RightBar,UpLeft1,UpLeft2,UpLeft3,UpLeft4,UpLeft5,UpLeft6,UpRight1,UpRight2,UpRight3,UpRight4,UpRight5,UpRight6,VarA,VarA1,VarA2,VarA3,VarA4,VarB,VarB1,VarB2,VarB3,VarB4,VarB5,VarB6,Var_PB,attCheck_fileA,attCheck_fileB,attCheck_fileC,attCheck_fileD,attCheck_options,attCheck_valueA,attCheck_valueB,attCheck_valueC,attCheck_valueD,attention_check,block,browser_name,choseL,choseR,consent_form1,consent_form2,consentconfirmation_form1,consentconfirmation_form2,correct,correctResponse,diet,disorder,duration,edu,ended_on,enjoy,full_version,gender,group,hunger,img,imgTask,input_age,input_meal,input_occ,input_remark,lateRespFeed,list,major_version,message,mixQ_item1,mixQ_item2,mixQ_item3,mixQ_item4,mixQ_item5,name,navigator_appName,navigator_userAgent,os,pracQ1_IDa,pracQ1_IDb,pracQ1_IDc,pracQ1_IDd,pracQ1_optionA,pracQ1_optionB,pracQ1_optionC,pracQ1_optionD,pracQ1_valueA,pracQ1_valueB,pracQ1_valueC,pracQ1_valueD,pracQ2_IDa,pracQ2_IDb,pracQ2_IDc,pracQ2_optionA,pracQ2_optionB,pracQ2_optionC,pracQ2_valueA,pracQ2_valueB,pracQ2_valueC,pracQ4_IDa,pracQ4_IDb,pracQ4_IDc,pracQ4_IDd,pracQ4_optionA,pracQ4_optionB,pracQ4_optionC,pracQ4_optionD,pracQ4_valueA,pracQ4_valueB,pracQ4_valueC,pracQ4_valueD,pracQ5_IDa,pracQ5_IDb,pracQ5_IDc,pracQ5_IDd,pracQ5_optionA,pracQ5_optionB,pracQ5_optionC,pracQ5_optionD,pracQ5_valueA,pracQ5_valueB,pracQ5_valueC,pracQ5_valueD,prefHealty,prefUnhealthy,prolific_ID,psessionID,pstudyID,rep,response,response_action,skip,snack,sublock,subtitle,task_difficulty,task_engagement,task_focus,textL,textR,time_commit,time_end,time_render,time_run,time_show,time_switch,trial_count,trial_countO,url,valence
Title,html.Page,0,2021-01-14T18:53:38.761Z,"{""labjs_version"":""20.1.1"",""labjs_build"":{""flavor"":""production"",""commit"":""c48ac4ada3769e8d34489594ab03097d5f256ac7""},""location"":""https://run.pavlovia.org/E3lab/rebund/html/?PROLIFIC_PID={{%PROLIFIC_PID%}}&STUDY_ID={{%STUDY_ID%}}&SESSION_ID={{%SESSION_ID%}}"",""userAgent"":""Mozilla/5.0 (Windows NT 10.0; Win64; x64) AppleWebKit/537.36 (KHTML, like Gecko) Chrome/87.0.4280.141 Safari/537.36 Edg/87.0.664.75"",""platform"":""Win32"",""language"":""pt-PT"",""locale"":""pt-PT"",""timeZone"":""Europe/Lisbon"",""timezoneOffset"":0,""screen_width"":1366,""screen_height"":768,""scroll_width"":1366,""scroll_height"":609,""window_innerWidth"":1366,""window_innerHeight"":657,""devicePixelRatio"":1}",,,,,,,,,,,,,,,,,,,,,,,,,,,,,,,,,,,,,,,,,,,,,,,,,,,,,,,,,,,,,,,,,,,,,,,,,,,,,,,,,,,,,,,,,,,,,,,,,,,,,,,,,,,,,,,,,,2216.5830000009896,,form submission,,,,,,,,,,,,,,,,,,,,,,,,,,,,,,,,,,,,,,,,,,,,,,,,,,,,,,,,,,,,,,,,,,,,,,,,,,,,,,,,,,,,,,,5832.229999999981,5830.7500000009895,3514.256,3513.374999998632,3614.167,5863.077,,,"{""PROLIFIC_PID"":""{{%PROLIFIC_PID%}}"",""STUDY_ID"":""{{%STUDY_ID%}}"",""SESSION_ID"":""{{%SESSION_ID%}}""}",
get_systemInfo,canvas.Screen,1,2021-01-14T18:53:38.813Z,,,,,,,,,,,,,,,,,,,,,,,,,,,,,,,,,,,,,,,,,,,,,,,,,,,,,,,,,,,,,,,,,,,,,,,,,,,,,,,,,,,,,,,,,,,,,,,,,,,,,,,,Chrome,,,,,,,,,,,6980.131,,timeout,,87.0.4280.141,,,,,,,,,,,,87,,,,,,,,Netscape,"Mozilla/5.0 (Windows NT 10.0; Win64; x64) AppleWebKit/537.36 (KHTML, like Gecko) Chrome/87.0.4280.141 Safari/537.36 Edg/87.0.664.75",Windows,,,,,,,,,,,,,,,,,,,,,,,,,,,,,,,,,,,,,,,,,,,,,,,,{{%PROLIFIC_PID%}},,{{%STUDY_ID%}},,,,,,,,,,,,,5884.649999999965,5882.959999999002,5813.129,5835.535000001983,5863.077,12843.208,,,,
ConsentForm,html.Form,2_0,2021-01-14T18:54:15.741Z,,,,,,,,,,,,,,,,,,,,,,,,,,,,,,,,,,,,,,,,,,,,,,,,,,,,,,,,,,,,,,,,,,,,,,,,,,,,,,,,,,,,,,,,,,,,,,,,,,,,,,,,,,,true,true,,,,,,,29968.32199999904,,form submission,,,,,,,,,,,,,,,,,,,,,,,,,,,,,,,,,,,,,,,,,,,,,,,,,,,,,,,,,,,,,,,,,,,,,,,,,,,,,,,,,,,,,,,42813.05499999871,42811.52999999904,5882.959999999002,12919.839999998658,12843.208,42828.347,,,,
PepTalk,html.Page,2_1,2021-01-14T18:54:45.704Z,,,,,,,,,,,,,,,,,,,,,,,,,,,,,,,,,,,,,,,,,,,,,,,,,,,,,,,,,,,,,,,,,,,,,,,,,,,,,,,,,,,,,,,,,,,,,,,,,,,,,,,,,,,,,,,,,,,29946.158000001225,,form submission,,,,,,,,,,,,,,,,,,,,,,,,,,,,,,,,,,,,,,,,,,,,,,,,,,,,,,,,,,,,,,,,,,,,,,,,,,,,,,,,,,,,,,,72775.20500000173,72774.50500000123,42795.029,42813.81500000134,42828.347,72797.016,,,,
Demographics,html.Form,2_2,2021-01-14T18:55:01.456Z,,,,,,,,,,,,,,,,,,,,,,,,,,,,,,,,,,,,,,,,,,,,,,,,,,,,,,,,,,,,,,,,,,,,,,,,,,,,,,,,,,,,,,,,,,,,,,,,,,,,,,,,,,,,,,,,,,,15729.783999999636,3,form submission,,,2,,,,,28,,Hotel front desk,,,,,,,,,,,,,,,,,,,,,,,,,,,,,,,,,,,,,,,,,,,,,,,,,,,,,,,,,,,,,,,,,,,,,,,,,,,,,88527.44499999972,88526.79999999964,72780.378,72775.65999999933,72797.016,88539.336,,,,
InclusionCrit,html.Form,2_3,2021-01-14T18:55:09.633Z,,,,,,,,,,,,,,,,,,,,,,,,,,,,,,,,,,,,,,,,,,,,,,,,,,,,,,,,,,,,,,,,,,,,,,,,,,,,,,,,,,,,,,,,,,,,,,,,,,,,,,,,,,,,,,,,,1,1,8164.909000000815,,form submission,1,,,,,,,,,,,,,,,,,,,,,,,,,,,,,,,,,,,,,,,,,,,,,,,,,,,,,,,,,,,,,,,,,,,,,,,,,,,,,,,,,,,,,,96704.90000000063,96704.24500000081,88522.73,88528.62000000096,88539.336,96721.325,,,,
Selection,html.Page,2_4_0,2021-01-14T18:55:15.979Z,,,,,,,,,,,,,,,,,,,,,,,,,,,,,,,,,,,,,,,,,,,,,,,,,,,,,,,,,,,,,,,,,,,,,,,,,,,,,,,,,,,,,,,,,,,,,,,,,,,,,,,,,,,,,,,,,,,6328.074999999881,,form submission,,,,,,,,,,,,,,,,,,,,,,,,,,,,,,,,,,,,,,,,,,,,,,,,,,,,,,,,,,,,,,,,,,,,,,,,,,,,,,,0,,,,,,,,103050.33000000185,103049.39999999988,96685.392,96705.53500000096,96721.325,103048.862,,,,
Load,html.Page,2_4_1,2021-01-14T18:55:15.992Z,,,,,,,,,,,,,,,,,,,,,,,,,,,,,,,,,,,,,,,,,,,,,,,,,,,,,,,,,,,,,,,,,,,,,,,,,,,,,,,,,,,,,,,,,,,,,,,,,,,,,,,,,,,,,,,,,,,5747.15400000001,,timeout,,,,,,,,,,,,,,,,,,,,,,,,,,,,,,,,,,,,,,,,,,,,,,,,,,,,,,,,,,,,,,,,,,,,,,,,,,,,,,,,,,,,,,,103063.6799999993,103062.0650000019,103032.254,103051.06499999965,103048.862,108796.016,,,,
ratings_instructions,html.Screen,2_4_2_0,2021-01-14T18:55:42.105Z,,,,,,,,,,,,,,,,,,,,,,,,,,,,,,,,,,,,,,,,,,,,,,,,,,,,,,,,,,,,,,,,,,,,,,,,,,,,,,,,,,,,,,,,,,,,,,,,,,,,,,,,,,,,,,,,,,,20373.444000000978,,response,,,,,,,,,,,,,,,,,,,,,,,,,,,,,,,,,,,,,,,,,,,,,,,,,,,,,,,,,,,,,,,,,,,,,,,,,,,,continue,keypress(Space),false,,,,,,,,,129176.43500000122,129169.46000000098,103062.0650000019,108953.07500000126,108796.016,129186.058,0,0,,
fixCross,canvas.Screen,2_4_2_1_0_0,2021-01-14T18:55:42.599Z,,,,,,,,,,,,,,,,,,,,,,,,,,,,,,,,,,,,,,,,,,,,,,,,,,,,,,,,,,,,,,,,,,,,,,,,,,,,,,,,,,,,,,,,,,,,,,,,,,,,,,,,,,,,,,,,,,,499.7859999999928,,timeout,,,,unhealthy,,chocolate_truffle.png,,,,,,,,,,,,,,,chocolate truffle,,,,,,,,,,,,,,,,,,,,,,,,,,,,,,,,,,,,,,,,,,,,,,,,,,,,,,,,,false,,,,,,,,,129670.73000000164,129669.171,129169.574,129177.29500000132,129186.058,129685.844,,,,
Rating,html.Form,2_4_2_1_0_1,2021-01-14T18:55:49.976Z,,,,,,,,,,,,,,,,,,,,,,,,,,,,,,,,,,,,,,,,,,,,,,,,,,,,,,,,,,,,,,,,,,,,,,,,,,,,,,,,,,,,,,,,,,,,,,,,,,,,,,,,,,,,,,,,,,,7361.125999999422,,form submission,,,,unhealthy,,chocolate_truffle.png,,,,,,,,,,,,,,,chocolate truffle,,,,,,,,,,,,,,,,,,,,,,,,,,,,,,,,,,,,,,,,,,,,,,,,,,,,,,,,,false,,,,,,,,,137047.6149999995,137046.96999999942,129669.171,129671.18000000119,129685.844,137048.929,,,,95
rating_sequence,flow.Sequence,2_4_2_1_0,2021-01-14T18:55:49.982Z,,,,,,,,,,,,,,,,,,,,,,,,,,,,,,,,,,,,,,,,,,,,,,,,,,,,,,,,,,,,,,,,,,,,,,,,,,,,,,,,,,,,,,,,,,,,,,,,,,,,,,,,,,,,,,,,,,,7860.911999999415,,completion,,,,unhealthy,,chocolate_truffle.png,,,,,,,,,,,,,,,chocolate truffle,,,,,,,,,,,,,,,,,,,,,,,,,,,,,,,,,,,,,,,,,,,,,,,,,,,,,,,,,false,,,,,,,,,137053.5600000003,137046.96999999942,129169.574,129177.17500000072,129186.058,137048.929,,,,
fixCross,canvas.Screen,2_4_2_1_1_0,2021-01-14T18:55:50.462Z,,,,,,,,,,,,,,,,,,,,,,,,,,,,,,,,,,,,,,,,,,,,,,,,,,,,,,,,,,,,,,,,,,,,,,,,,,,,,,,,,,,,,,,,,,,,,,,,,,,,,,,,,,,,,,,,,,,499.77999999999884,,timeout,,,,healthy,,blueberry.png,,,,,,,,,,,,,,,blueberry,,,,,,,,,,,,,,,,,,,,,,,,,,,,,,,,,,,,,,,,,,,,,,,,,,,,,,,,,false,,,,,,,,,137533.57999999935,137532.148,137032.326,137053.99500000203,137048.929,137548.709,,,,
Rating,html.Form,2_4_2_1_1_1,2021-01-14T18:55:59.606Z,,,,,,,,,,,,,,,,,,,,,,,,,,,,,,,,,,,,,,,,,,,,,,,,,,,,,,,,,,,,,,,,,,,,,,,,,,,,,,,,,,,,,,,,,,,,,,,,,,,,,,,,,,,,,,,,,,,9128.075999999652,,form submission,,,,healthy,,blueberry.png,,,,,,,,,,,,,,,blueberry,,,,,,,,,,,,,,,,,,,,,,,,,,,,,,,,,,,,,,,,,,,,,,,,,,,,,,,,,false,,,,,,,,,146677.3350000003,146676.78499999965,137532.148,137533.86500000124,137548.709,146677.543,,,,25
rating_sequence,flow.Sequence,2_4_2_1_1,2021-01-14T18:55:59.607Z,,,,,,,,,,,,,,,,,,,,,,,,,,,,,,,,,,,,,,,,,,,,,,,,,,,,,,,,,,,,,,,,,,,,,,,,,,,,,,,,,,,,,,,,,,,,,,,,,,,,,,,,,,,,,,,,,,,9627.85599999965,,completion,,,,healthy,,blueberry.png,,,,,,,,,,,,,,,blueberry,,,,,,,,,,,,,,,,,,,,,,,,,,,,,,,,,,,,,,,,,,,,,,,,,,,,,,,,,false,,,,,,,,,146678.47500000062,146676.78499999965,137032.326,137053.89999999898,137048.929,146677.543,,,,
fixCross,canvas.Screen,2_4_2_1_2_0,2021-01-14T18:56:00.090Z,,,,,,,,,,,,,,,,,,,,,,,,,,,,,,,,,,,,,,,,,,,,,,,,,,,,,,,,,,,,,,,,,,,,,,,,,,,,,,,,,,,,,,,,,,,,,,,,,,,,,,,,,,,,,,,,,,,499.7609999999986,,timeout,,,,unhealthy,,gummybear.png,,,,,,,,,,,,,,,gummybear,,,,,,,,,,,,,,,,,,,,,,,,,,,,,,,,,,,,,,,,,,,,,,,,,,,,,,,,,false,,,,,,,,,147161.755000001,147160.654,146660.894,146678.86999999973,146677.543,147177.304,,,,
Rating,html.Form,2_4_2_1_2_1,2021-01-14T18:56:06.256Z,,,,,,,,,,,,,,,,,,,,,,,,,,,,,,,,,,,,,,,,,,,,,,,,,,,,,,,,,,,,,,,,,,,,,,,,,,,,,,,,,,,,,,,,,,,,,,,,,,,,,,,,,,,,,,,,,,,6149.960999999894,,form submission,,,,unhealthy,,gummybear.png,,,,,,,,,,,,,,,gummybear,,,,,,,,,,,,,,,,,,,,,,,,,,,,,,,,,,,,,,,,,,,,,,,,,,,,,,,,,false,,,,,,,,,153327.74000000063,153327.2649999999,147160.654,147162.0550000007,147177.304,153340.933,,,,42
rating_sequence,flow.Sequence,2_4_2_1_2,2021-01-14T18:56:06.257Z,,,,,,,,,,,,,,,,,,,,,,,,,,,,,,,,,,,,,,,,,,,,,,,,,,,,,,,,,,,,,,,,,,,,,,,,,,,,,,,,,,,,,,,,,,,,,,,,,,,,,,,,,,,,,,,,,,,6649.721999999892,,completion,,,,unhealthy,,gummybear.png,,,,,,,,,,,,,,,gummybear,,,,,,,,,,,,,,,,,,,,,,,,,,,,,,,,,,,,,,,,,,,,,,,,,,,,,,,,,false,,,,,,,,,153328.164999999,153327.2649999999,146660.894,146678.76500000057,146677.543,153340.933,,,,
fixCross,canvas.Screen,2_4_2_1_3_0,2021-01-14T18:56:06.754Z,,,,,,,,,,,,,,,,,,,,,,,,,,,,,,,,,,,,,,,,,,,,,,,,,,,,,,,,,,,,,,,,,,,,,,,,,,,,,,,,,,,,,,,,,,,,,,,,,,,,,,,,,,,,,,,,,,,499.78100000001723,,timeout,,,,unhealthy,,candy.png,,,,,,,,,,,,,,,candy,,,,,,,,,,,,,,,,,,,,,,,,,,,,,,,,,,,,,,,,,,,,,,,,,,,,,,,,,false,,,,,,,,,153825.74999999997,153824.159,153324.347,153328.4649999987,153340.933,153840.714,,,,
Rating,html.Form,2_4_2_1_3_1,2021-01-14T18:56:12.492Z,,,,,,,,,,,,,,,,,,,,,,,,,,,,,,,,,,,,,,,,,,,,,,,,,,,,,,,,,,,,,,,,,,,,,,,,,,,,,,,,,,,,,,,,,,,,,,,,,,,,,,,,,,,,,,,,,,,5721.900999998907,,form submission,,,,unhealthy,,candy.png,,,,,,,,,,,,,,,candy,,,,,,,,,,,,,,,,,,,,,,,,,,,,,,,,,,,,,,,,,,,,,,,,,,,,,,,,,false,,,,,,,,,159563.33499999892,159562.6149999989,153824.159,153826.21500000096,153840.714,159588.068,,,,20
rating_sequence,flow.Sequence,2_4_2_1_3,2021-01-14T18:56:12.492Z,,,,,,,,,,,,,,,,,,,,,,,,,,,,,,,,,,,,,,,,,,,,,,,,,,,,,,,,,,,,,,,,,,,,,,,,,,,,,,,,,,,,,,,,,,,,,,,,,,,,,,,,,,,,,,,,,,,6221.681999998924,,completion,,,,unhealthy,,candy.png,,,,,,,,,,,,,,,candy,,,,,,,,,,,,,,,,,,,,,,,,,,,,,,,,,,,,,,,,,,,,,,,,,,,,,,,,,false,,,,,,,,,159563.9200000005,159562.6149999989,153324.347,153328.3850000007,153340.933,159588.068,,,,
fixCross,canvas.Screen,2_4_2_1_4_0,2021-01-14T18:56:13.001Z,,,,,,,,,,,,,,,,,,,,,,,,,,,,,,,,,,,,,,,,,,,,,,,,,,,,,,,,,,,,,,,,,,,,,,,,,,,,,,,,,,,,,,,,,,,,,,,,,,,,,,,,,,,,,,,,,,,499.55799999999,,timeout,,,,unhealthy,,liqorice.png,,,,,,,,,,,,,,,liquorice,,,,,,,,,,,,,,,,,,,,,,,,,,,,,,,,,,,,,,,,,,,,,,,,,,,,,,,,,false,,,,,,,,,160072.68000000113,160071.021,159554.751,159564.33499999912,159588.068,160087.626,,,,
Rating,html.Form,2_4_2_1_4_1,2021-01-14T18:56:16.122Z,,,,,,,,,,,,,,,,,,,,,,,,,,,,,,,,,,,,,,,,,,,,,,,,,,,,,,,,,,,,,,,,,,,,,,,,,,,,,,,,,,,,,,,,,,,,,,,,,,,,,,,,,,,,,,,,,,,3105.0790000013076,,form submission,,,,unhealthy,,liqorice.png,,,,,,,,,,,,,,,liquorice,,,,,,,,,,,,,,,,,,,,,,,,,,,,,,,,,,,,,,,,,,,,,,,,,,,,,,,,,false,,,,,,,,,163193.21499999933,163192.7050000013,160071.021,160072.99000000057,160087.626,163202.744,,,,0
rating_sequence,flow.Sequence,2_4_2_1_4,2021-01-14T18:56:16.122Z,,,,,,,,,,,,,,,,,,,,,,,,,,,,,,,,,,,,,,,,,,,,,,,,,,,,,,,,,,,,,,,,,,,,,,,,,,,,,,,,,,,,,,,,,,,,,,,,,,,,,,,,,,,,,,,,,,,3604.6370000012976,,completion,,,,unhealthy,,liqorice.png,,,,,,,,,,,,,,,liquorice,,,,,,,,,,,,,,,,,,,,,,,,,,,,,,,,,,,,,,,,,,,,,,,,,,,,,,,,,false,,,,,,,,,163193.6800000003,163192.7050000013,159554.751,159564.19000000096,159588.068,163202.744,,,,
fixCross,canvas.Screen,2_4_2_1_5_0,2021-01-14T18:56:16.616Z,,,,,,,,,,,,,,,,,,,,,,,,,,,,,,,,,,,,,,,,,,,,,,,,,,,,,,,,,,,,,,,,,,,,,,,,,,,,,,,,,,,,,,,,,,,,,,,,,,,,,,,,,,,,,,,,,,,499.7809999999881,,timeout,,,,healthy,,grape.png,,,,,,,,,,,,,,,grape,,,,,,,,,,,,,,,,,,,,,,,,,,,,,,,,,,,,,,,,,,,,,,,,,,,,,,,,,false,,,,,,,,,163687.4800000005,163685.939,163186.158,163194.019999999,163202.744,163702.525,,,,
Rating,html.Form,2_4_2_1_5_1,2021-01-14T18:56:20.296Z,,,,,,,,,,,,,,,,,,,,,,,,,,,,,,,,,,,,,,,,,,,,,,,,,,,,,,,,,,,,,,,,,,,,,,,,,,,,,,,,,,,,,,,,,,,,,,,,,,,,,,,,,,,,,,,,,,,3664.300000000978,,form submission,,,,healthy,,grape.png,,,,,,,,,,,,,,,grape,,,,,,,,,,,,,,,,,,,,,,,,,,,,,,,,,,,,,,,,,,,,,,,,,,,,,,,,,false,,,,,,,,,167367.37500000163,167366.82500000097,163685.939,163687.79500000164,163702.525,167367.447,,,,4
rating_sequence,flow.Sequence,2_4_2_1_5,2021-01-14T18:56:20.297Z,,,,,,,,,,,,,,,,,,,,,,,,,,,,,,,,,,,,,,,,,,,,,,,,,,,,,,,,,,,,,,,,,,,,,,,,,,,,,,,,,,,,,,,,,,,,,,,,,,,,,,,,,,,,,,,,,,,4164.081000000966,,completion,,,,healthy,,grape.png,,,,,,,,,,,,,,,grape,,,,,,,,,,,,,,,,,,,,,,,,,,,,,,,,,,,,,,,,,,,,,,,,,,,,,,,,,false,,,,,,,,,167368.5800000021,167366.82500000097,163186.158,163193.93000000127,163202.744,167367.447,,,,
fixCross,canvas.Screen,2_4_2_1_6_0,2021-01-14T18:56:20.780Z,,,,,,,,,,,,,,,,,,,,,,,,,,,,,,,,,,,,,,,,,,,,,,,,,,,,,,,,,,,,,,,,,,,,,,,,,,,,,,,,,,,,,,,,,,,,,,,,,,,,,,,,,,,,,,,,,,,499.71200000002864,,timeout,,,,healthy,,coconut.png,,,,,,,,,,,,,,,coconut,,,,,,,,,,,,,,,,,,,,,,,,,,,,,,,,,,,,,,,,,,,,,,,,,,,,,,,,,false,,,,,,,,,167851.65000000052,167850.492,167350.816,167368.98500000098,167367.447,167867.159,,,,
Rating,html.Form,2_4_2_1_6_1,2021-01-14T18:56:24.738Z,,,,,,,,,,,,,,,,,,,,,,,,,,,,,,,,,,,,,,,,,,,,,,,,,,,,,,,,,,,,,,,,,,,,,,,,,,,,,,,,,,,,,,,,,,,,,,,,,,,,,,,,,,,,,,,,,,,3941.3910000015458,,form submission,,,,healthy,,coconut.png,,,,,,,,,,,,,,,coconut,,,,,,,,,,,,,,,,,,,,,,,,,,,,,,,,,,,,,,,,,,,,,,,,,,,,,,,,,false,,,,,,,,,171809.09500000053,171808.55000000156,167850.492,167852.07000000082,167867.159,171815.267,,,,10
rating_sequence,flow.Sequence,2_4_2_1_6,2021-01-14T18:56:24.738Z,,,,,,,,,,,,,,,,,,,,,,,,,,,,,,,,,,,,,,,,,,,,,,,,,,,,,,,,,,,,,,,,,,,,,,,,,,,,,,,,,,,,,,,,,,,,,,,,,,,,,,,,,,,,,,,,,,,4441.103000001574,,completion,,,,healthy,,coconut.png,,,,,,,,,,,,,,,coconut,,,,,,,,,,,,,,,,,,,,,,,,,,,,,,,,,,,,,,,,,,,,,,,,,,,,,,,,,false,,,,,,,,,171809.89000000045,171808.55000000156,167350.816,167368.88499999986,167367.447,171815.267,,,,
fixCross,canvas.Screen,2_4_2_1_7_0,2021-01-14T18:56:25.228Z,,,,,,,,,,,,,,,,,,,,,,,,,,,,,,,,,,,,,,,,,,,,,,,,,,,,,,,,,,,,,,,,,,,,,,,,,,,,,,,,,,,,,,,,,,,,,,,,,,,,,,,,,,,,,,,,,,,499.8300000000163,,timeout,,,,unhealthy,,praline.png,,,,,,,,,,,,,,,praline,,,,,,,,,,,,,,,,,,,,,,,,,,,,,,,,,,,,,,,,,,,,,,,,,,,,,,,,,false,,,,,,,,,172299.794999999,172298.369,171798.641,171810.2949999993,171815.267,172315.097,,,,
Rating,html.Form,2_4_2_1_7_1,2021-01-14T18:56:30.286Z,,,,,,,,,,,,,,,,,,,,,,,,,,,,,,,,,,,,,,,,,,,,,,,,,,,,,,,,,,,,,,,,,,,,,,,,,,,,,,,,,,,,,,,,,,,,,,,,,,,,,,,,,,,,,,,,,,,5041.693000001629,,form submission,,,,unhealthy,,praline.png,,,,,,,,,,,,,,,praline,,,,,,,,,,,,,,,,,,,,,,,,,,,,,,,,,,,,,,,,,,,,,,,,,,,,,,,,,false,,,,,,,,,177357.42500000197,177356.79000000164,172298.369,172300.39000000033,172315.097,177362.524,,,,64
rating_sequence,flow.Sequence,2_4_2_1_7,2021-01-14T18:56:30.287Z,,,,,,,,,,,,,,,,,,,,,,,,,,,,,,,,,,,,,,,,,,,,,,,,,,,,,,,,,,,,,,,,,,,,,,,,,,,,,,,,,,,,,,,,,,,,,,,,,,,,,,,,,,,,,,,,,,,5541.523000001645,,completion,,,,unhealthy,,praline.png,,,,,,,,,,,,,,,praline,,,,,,,,,,,,,,,,,,,,,,,,,,,,,,,,,,,,,,,,,,,,,,,,,,,,,,,,,false,,,,,,,,,177358.0750000001,177356.79000000164,171798.641,171810.1999999999,171815.267,177362.524,,,,
fixCross,canvas.Screen,2_4_2_1_8_0,2021-01-14T18:56:30.775Z,,,,,,,,,,,,,,,,,,,,,,,,,,,,,,,,,,,,,,,,,,,,,,,,,,,,,,,,,,,,,,,,,,,,,,,,,,,,,,,,,,,,,,,,,,,,,,,,,,,,,,,,,,,,,,,,,,,499.73499999998603,,timeout,,,,healthy,,strawberry.png,,,,,,,,,,,,,,,strawberry,,,,,,,,,,,,,,,,,,,,,,,,,,,,,,,,,,,,,,,,,,,,,,,,,,,,,,,,,false,,,,,,,,,177846.80500000104,177845.671,177345.885,177358.4950000004,177362.524,177862.259,,,,
Rating,html.Form,2_4_2_1_8_1,2021-01-14T18:56:34.048Z,,,,,,,,,,,,,,,,,,,,,,,,,,,,,,,,,,,,,,,,,,,,,,,,,,,,,,,,,,,,,,,,,,,,,,,,,,,,,,,,,,,,,,,,,,,,,,,,,,,,,,,,,,,,,,,,,,,3256.4209999995946,,form submission,,,,healthy,,strawberry.png,,,,,,,,,,,,,,,strawberry,,,,,,,,,,,,,,,,,,,,,,,,,,,,,,,,,,,,,,,,,,,,,,,,,,,,,,,,,false,,,,,,,,,181119.14500000057,181118.6799999996,177845.671,177847.1150000005,177862.259,181128.279,,,,89
rating_sequence,flow.Sequence,2_4_2_1_8,2021-01-14T18:56:34.048Z,,,,,,,,,,,,,,,,,,,,,,,,,,,,,,,,,,,,,,,,,,,,,,,,,,,,,,,,,,,,,,,,,,,,,,,,,,,,,,,,,,,,,,,,,,,,,,,,,,,,,,,,,,,,,,,,,,,3756.1559999995807,,completion,,,,healthy,,strawberry.png,,,,,,,,,,,,,,,strawberry,,,,,,,,,,,,,,,,,,,,,,,,,,,,,,,,,,,,,,,,,,,,,,,,,,,,,,,,,false,,,,,,,,,181119.61000000156,181118.6799999996,177345.885,177358.37000000174,177362.524,181128.279,,,,
fixCross,canvas.Screen,2_4_2_1_9_0,2021-01-14T18:56:34.540Z,,,,,,,,,,,,,,,,,,,,,,,,,,,,,,,,,,,,,,,,,,,,,,,,,,,,,,,,,,,,,,,,,,,,,,,,,,,,,,,,,,,,,,,,,,,,,,,,,,,,,,,,,,,,,,,,,,,498.8040000000037,,timeout,,,,healthy,,raspberry.png,,,,,,,,,,,,,,,raspberry,,,,,,,,,,,,,,,,,,,,,,,,,,,,,,,,,,,,,,,,,,,,,,,,,,,,,,,,,false,,,,,,,,,181611.89000000013,181610.509,181110.757,181119.95500000194,181128.279,181627.083,,,,
Rating,html.Form,2_4_2_1_9_1,2021-01-14T18:56:39.448Z,,,,,,,,,,,,,,,,,,,,,,,,,,,,,,,,,,,,,,,,,,,,,,,,,,,,,,,,,,,,,,,,,,,,,,,,,,,,,,,,,,,,,,,,,,,,,,,,,,,,,,,,,,,,,,,,,,,4891.816999999108,,form submission,,,,healthy,,raspberry.png,,,,,,,,,,,,,,,raspberry,,,,,,,,,,,,,,,,,,,,,,,,,,,,,,,,,,,,,,,,,,,,,,,,,,,,,,,,,false,,,,,,,,,186519.40000000104,186518.89999999912,181610.509,181612.19500000152,181627.083,186524.73,,,,61
rating_sequence,flow.Sequence,2_4_2_1_9,2021-01-14T18:56:39.448Z,,,,,,,,,,,,,,,,,,,,,,,,,,,,,,,,,,,,,,,,,,,,,,,,,,,,,,,,,,,,,,,,,,,,,,,,,,,,,,,,,,,,,,,,,,,,,,,,,,,,,,,,,,,,,,,,,,,5390.6209999991115,,completion,,,,healthy,,raspberry.png,,,,,,,,,,,,,,,raspberry,,,,,,,,,,,,,,,,,,,,,,,,,,,,,,,,,,,,,,,,,,,,,,,,,,,,,,,,,false,,,,,,,,,186519.87999999983,186518.89999999912,181110.757,181119.84999999913,181128.279,186524.73,,,,
fixCross,canvas.Screen,2_4_2_1_10_0,2021-01-14T18:56:39.938Z,,,,,,,,,,,,,,,,,,,,,,,,,,,,,,,,,,,,,,,,,,,,,,,,,,,,,,,,,,,,,,,,,,,,,,,,,,,,,,,,,,,,,,,,,,,,,,,,,,,,,,,,,,,,,,,,,,,499.70100000000093,,timeout,,,,unhealthy,,maltesers.png,,,,,,,,,,,,,,,malteser,,,,,,,,,,,,,,,,,,,,,,,,,,,,,,,,,,,,,,,,,,,,,,,,,,,,,,,,,false,,,,,,,,,187009.04000000082,187007.846,186508.064,186520.26000000114,186524.73,187024.431,,,,
Rating,html.Form,2_4_2_1_10_1,2021-01-14T18:56:44.279Z,,,,,,,,,,,,,,,,,,,,,,,,,,,,,,,,,,,,,,,,,,,,,,,,,,,,,,,,,,,,,,,,,,,,,,,,,,,,,,,,,,,,,,,,,,,,,,,,,,,,,,,,,,,,,,,,,,,4326.104000001389,,form submission,,,,unhealthy,,maltesers.png,,,,,,,,,,,,,,,malteser,,,,,,,,,,,,,,,,,,,,,,,,,,,,,,,,,,,,,,,,,,,,,,,,,,,,,,,,,false,,,,,,,,,191351.0150000002,191350.5350000014,187007.846,187009.35500000196,187024.431,191355.706,,,,86
rating_sequence,flow.Sequence,2_4_2_1_10,2021-01-14T18:56:44.280Z,,,,,,,,,,,,,,,,,,,,,,,,,,,,,,,,,,,,,,,,,,,,,,,,,,,,,,,,,,,,,,,,,,,,,,,,,,,,,,,,,,,,,,,,,,,,,,,,,,,,,,,,,,,,,,,,,,,4825.80500000139,,completion,,,,unhealthy,,maltesers.png,,,,,,,,,,,,,,,malteser,,,,,,,,,,,,,,,,,,,,,,,,,,,,,,,,,,,,,,,,,,,,,,,,,,,,,,,,,false,,,,,,,,,191351.49000000092,191350.5350000014,186508.064,186520.16000000003,186524.73,191355.706,,,,
fixCross,canvas.Screen,2_4_2_1_11_0,2021-01-14T18:56:44.758Z,,,,,,,,,,,,,,,,,,,,,,,,,,,,,,,,,,,,,,,,,,,,,,,,,,,,,,,,,,,,,,,,,,,,,,,,,,,,,,,,,,,,,,,,,,,,,,,,,,,,,,,,,,,,,,,,,,,483.09500000000116,,timeout,,,,healthy,,pear.png,,,,,,,,,,,,,,,pear,,,,,,,,,,,,,,,,,,,,,,,,,,,,,,,,,,,,,,,,,,,,,,,,,,,,,,,,,false,,,,,,,,,191829.95999999912,191822.145,191339.015,191351.8150000018,191355.706,191838.801,,,,
Rating,html.Form,2_4_2_1_11_1,2021-01-14T18:56:48.688Z,,,,,,,,,,,,,,,,,,,,,,,,,,,,,,,,,,,,,,,,,,,,,,,,,,,,,,,,,,,,,,,,,,,,,,,,,,,,,,,,,,,,,,,,,,,,,,,,,,,,,,,,,,,,,,,,,,,3919.8789999989967,,form submission,,,,healthy,,pear.png,,,,,,,,,,,,,,,pear,,,,,,,,,,,,,,,,,,,,,,,,,,,,,,,,,,,,,,,,,,,,,,,,,,,,,,,,,false,,,,,,,,,195759.2199999999,195758.679999999,191822.145,191830.64000000013,191838.801,195770.146,,,,79
rating_sequence,flow.Sequence,2_4_2_1_11,2021-01-14T18:56:48.688Z,,,,,,,,,,,,,,,,,,,,,,,,,,,,,,,,,,,,,,,,,,,,,,,,,,,,,,,,,,,,,,,,,,,,,,,,,,,,,,,,,,,,,,,,,,,,,,,,,,,,,,,,,,,,,,,,,,,4402.973999998998,,completion,,,,healthy,,pear.png,,,,,,,,,,,,,,,pear,,,,,,,,,,,,,,,,,,,,,,,,,,,,,,,,,,,,,,,,,,,,,,,,,,,,,,,,,false,,,,,,,,,195759.78000000032,195758.679999999,191339.015,191351.72500000044,191355.706,195770.146,,,,
fixCross,canvas.Screen,2_4_2_1_12_0,2021-01-14T18:56:49.183Z,,,,,,,,,,,,,,,,,,,,,,,,,,,,,,,,,,,,,,,,,,,,,,,,,,,,,,,,,,,,,,,,,,,,,,,,,,,,,,,,,,,,,,,,,,,,,,,,,,,,,,,,,,,,,,,,,,,499.82399999999325,,timeout,,,,healthy,,apple.png,,,,,,,,,,,,,,,apple,,,,,,,,,,,,,,,,,,,,,,,,,,,,,,,,,,,,,,,,,,,,,,,,,,,,,,,,,false,,,,,,,,,196254.81000000218,196253.337,195753.541,195760.2250000018,195770.146,196269.97,,,,
Rating,html.Form,2_4_2_1_12_1,2021-01-14T18:56:52.802Z,,,,,,,,,,,,,,,,,,,,,,,,,,,,,,,,,,,,,,,,,,,,,,,,,,,,,,,,,,,,,,,,,,,,,,,,,,,,,,,,,,,,,,,,,,,,,,,,,,,,,,,,,,,,,,,,,,,3602.67000000141,,form submission,,,,healthy,,apple.png,,,,,,,,,,,,,,,apple,,,,,,,,,,,,,,,,,,,,,,,,,,,,,,,,,,,,,,,,,,,,,,,,,,,,,,,,,false,,,,,,,,,199873.094999999,199872.6400000014,196253.337,196255.14000000112,196269.97,199884.851,,,,95
rating_sequence,flow.Sequence,2_4_2_1_12,2021-01-14T18:56:52.802Z,,,,,,,,,,,,,,,,,,,,,,,,,,,,,,,,,,,,,,,,,,,,,,,,,,,,,,,,,,,,,,,,,,,,,,,,,,,,,,,,,,,,,,,,,,,,,,,,,,,,,,,,,,,,,,,,,,,4102.494000001403,,completion,,,,healthy,,apple.png,,,,,,,,,,,,,,,apple,,,,,,,,,,,,,,,,,,,,,,,,,,,,,,,,,,,,,,,,,,,,,,,,,,,,,,,,,false,,,,,,,,,199873.57500000144,199872.6400000014,195753.541,195760.11500000095,195770.146,199884.851,,,,
fixCross,canvas.Screen,2_4_2_1_13_0,2021-01-14T18:56:53.299Z,,,,,,,,,,,,,,,,,,,,,,,,,,,,,,,,,,,,,,,,,,,,,,,,,,,,,,,,,,,,,,,,,,,,,,,,,,,,,,,,,,,,,,,,,,,,,,,,,,,,,,,,,,,,,,,,,,,499.7289999999921,,timeout,,,,unhealthy,,chocolate.png,,,,,,,,,,,,,,,chocolate,,,,,,,,,,,,,,,,,,,,,,,,,,,,,,,,,,,,,,,,,,,,,,,,,,,,,,,,,false,,,,,,,,,200370.07000000085,200367.964,199868.253,199873.91000000207,199884.851,200384.58,,,,
Rating,html.Form,2_4_2_1_13_1,2021-01-14T18:56:57.726Z,,,,,,,,,,,,,,,,,,,,,,,,,,,,,,,,,,,,,,,,,,,,,,,,,,,,,,,,,,,,,,,,,,,,,,,,,,,,,,,,,,,,,,,,,,,,,,,,,,,,,,,,,,,,,,,,,,,4412.160000001604,,form submission,,,,unhealthy,,chocolate.png,,,,,,,,,,,,,,,chocolate,,,,,,,,,,,,,,,,,,,,,,,,,,,,,,,,,,,,,,,,,,,,,,,,,,,,,,,,,false,,,,,,,,,204797.20499999894,204796.7400000016,200367.964,200370.385000002,200384.58,204799.13,,,,65
rating_sequence,flow.Sequence,2_4_2_1_13,2021-01-14T18:56:57.726Z,,,,,,,,,,,,,,,,,,,,,,,,,,,,,,,,,,,,,,,,,,,,,,,,,,,,,,,,,,,,,,,,,,,,,,,,,,,,,,,,,,,,,,,,,,,,,,,,,,,,,,,,,,,,,,,,,,,4911.889000001596,,completion,,,,unhealthy,,chocolate.png,,,,,,,,,,,,,,,chocolate,,,,,,,,,,,,,,,,,,,,,,,,,,,,,,,,,,,,,,,,,,,,,,,,,,,,,,,,,false,,,,,,,,,204797.66000000018,204796.7400000016,199868.253,199873.8200000007,199884.851,204799.13,,,,
fixCross,canvas.Screen,2_4_2_1_14_0,2021-01-14T18:56:58.212Z,,,,,,,,,,,,,,,,,,,,,,,,,,,,,,,,,,,,,,,,,,,,,,,,,,,,,,,,,,,,,,,,,,,,,,,,,,,,,,,,,,,,,,,,,,,,,,,,,,,,,,,,,,,,,,,,,,,499.75599999999395,,timeout,,,,unhealthy,,m&m.png,,,,,,,,,,,,,,,m&m,,,,,,,,,,,,,,,,,,,,,,,,,,,,,,,,,,,,,,,,,,,,,,,,,,,,,,,,,false,,,,,,,,,205283.69999999995,205282.226,204782.464,204797.9950000008,204799.13,205298.886,,,,
Rating,html.Form,2_4_2_1_14_1,2021-01-14T18:57:02.072Z,,,,,,,,,,,,,,,,,,,,,,,,,,,,,,,,,,,,,,,,,,,,,,,,,,,,,,,,,,,,,,,,,,,,,,,,,,,,,,,,,,,,,,,,,,,,,,,,,,,,,,,,,,,,,,,,,,,3843.9089999997523,,form submission,,,,unhealthy,,m&m.png,,,,,,,,,,,,,,,m&m,,,,,,,,,,,,,,,,,,,,,,,,,,,,,,,,,,,,,,,,,,,,,,,,,,,,,,,,,false,,,,,,,,,209143.27500000218,209142.79499999975,205282.226,205284.06000000177,205298.886,209146.955,,,,78
rating_sequence,flow.Sequence,2_4_2_1_14,2021-01-14T18:57:02.072Z,,,,,,,,,,,,,,,,,,,,,,,,,,,,,,,,,,,,,,,,,,,,,,,,,,,,,,,,,,,,,,,,,,,,,,,,,,,,,,,,,,,,,,,,,,,,,,,,,,,,,,,,,,,,,,,,,,,4343.664999999746,,completion,,,,unhealthy,,m&m.png,,,,,,,,,,,,,,,m&m,,,,,,,,,,,,,,,,,,,,,,,,,,,,,,,,,,,,,,,,,,,,,,,,,,,,,,,,,false,,,,,,,,,209143.73500000147,209142.79499999975,204782.464,204797.9000000014,204799.13,209146.955,,,,
fixCross,canvas.Screen,2_4_2_1_15_0,2021-01-14T18:57:02.560Z,,,,,,,,,,,,,,,,,,,,,,,,,,,,,,,,,,,,,,,,,,,,,,,,,,,,,,,,,,,,,,,,,,,,,,,,,,,,,,,,,,,,,,,,,,,,,,,,,,,,,,,,,,,,,,,,,,,500.29200000001583,,timeout,,,,unhealthy,,marshmallow.png,,,,,,,,,,,,,,,marshmallow,,,,,,,,,,,,,,,,,,,,,,,,,,,,,,,,,,,,,,,,,,,,,,,,,,,,,,,,,false,,,,,,,,,209631.91000000006,209630.085,209130.359,209144.08000000185,209146.955,209647.247,,,,
Rating,html.Form,2_4_2_1_15_1,2021-01-14T18:57:05.577Z,,,,,,,,,,,,,,,,,,,,,,,,,,,,,,,,,,,,,,,,,,,,,,,,,,,,,,,,,,,,,,,,,,,,,,,,,,,,,,,,,,,,,,,,,,,,,,,,,,,,,,,,,,,,,,,,,,,3000.42800000016,,form submission,,,,unhealthy,,marshmallow.png,,,,,,,,,,,,,,,marshmallow,,,,,,,,,,,,,,,,,,,,,,,,,,,,,,,,,,,,,,,,,,,,,,,,,,,,,,,,,false,,,,,,,,,212648.4100000016,212647.67500000016,209630.085,209632.71000000168,209647.247,212661.893,,,,29
rating_sequence,flow.Sequence,2_4_2_1_15,2021-01-14T18:57:05.578Z,,,,,,,,,,,,,,,,,,,,,,,,,,,,,,,,,,,,,,,,,,,,,,,,,,,,,,,,,,,,,,,,,,,,,,,,,,,,,,,,,,,,,,,,,,,,,,,,,,,,,,,,,,,,,,,,,,,3500.720000000176,,completion,,,,unhealthy,,marshmallow.png,,,,,,,,,,,,,,,marshmallow,,,,,,,,,,,,,,,,,,,,,,,,,,,,,,,,,,,,,,,,,,,,,,,,,,,,,,,,,false,,,,,,,,,212649.01499999905,212647.67500000016,209130.359,209143.9849999988,209146.955,212661.893,,,,
fixCross,canvas.Screen,2_4_2_1_16_0,2021-01-14T18:57:06.075Z,,,,,,,,,,,,,,,,,,,,,,,,,,,,,,,,,,,,,,,,,,,,,,,,,,,,,,,,,,,,,,,,,,,,,,,,,,,,,,,,,,,,,,,,,,,,,,,,,,,,,,,,,,,,,,,,,,,499.76499999998487,,timeout,,,,healthy,,orange.png,,,,,,,,,,,,,,,orange,,,,,,,,,,,,,,,,,,,,,,,,,,,,,,,,,,,,,,,,,,,,,,,,,,,,,,,,,false,,,,,,,,,213146.88000000024,213145.014,212645.295,212649.54000000216,212661.893,213161.658,,,,
Rating,html.Form,2_4_2_1_16_1,2021-01-14T18:57:11.196Z,,,,,,,,,,,,,,,,,,,,,,,,,,,,,,,,,,,,,,,,,,,,,,,,,,,,,,,,,,,,,,,,,,,,,,,,,,,,,,,,,,,,,,,,,,,,,,,,,,,,,,,,,,,,,,,,,,,5105.01200000089,,form submission,,,,healthy,,orange.png,,,,,,,,,,,,,,,orange,,,,,,,,,,,,,,,,,,,,,,,,,,,,,,,,,,,,,,,,,,,,,,,,,,,,,,,,,false,,,,,,,,,218267.14500000162,218266.6700000009,213145.014,213147.4100000014,213161.658,218275.866,,,,68
rating_sequence,flow.Sequence,2_4_2_1_16,2021-01-14T18:57:11.196Z,,,,,,,,,,,,,,,,,,,,,,,,,,,,,,,,,,,,,,,,,,,,,,,,,,,,,,,,,,,,,,,,,,,,,,,,,,,,,,,,,,,,,,,,,,,,,,,,,,,,,,,,,,,,,,,,,,,5604.777000000875,,completion,,,,healthy,,orange.png,,,,,,,,,,,,,,,orange,,,,,,,,,,,,,,,,,,,,,,,,,,,,,,,,,,,,,,,,,,,,,,,,,,,,,,,,,false,,,,,,,,,218267.59999999922,218266.6700000009,212645.295,212649.32500000214,212661.893,218275.866,,,,
fixCross,canvas.Screen,2_4_2_1_17_0,2021-01-14T18:57:11.689Z,,,,,,,,,,,,,,,,,,,,,,,,,,,,,,,,,,,,,,,,,,,,,,,,,,,,,,,,,,,,,,,,,,,,,,,,,,,,,,,,,,,,,,,,,,,,,,,,,,,,,,,,,,,,,,,,,,,499.72099999999045,,timeout,,,,healthy,,cherry.png,,,,,,,,,,,,,,,cherry,,,,,,,,,,,,,,,,,,,,,,,,,,,,,,,,,,,,,,,,,,,,,,,,,,,,,,,,,false,,,,,,,,,218760.74000000153,218758.975,218259.247,218267.9449999996,218275.866,218775.587,,,,
Rating,html.Form,2_4_2_1_17_1,2021-01-14T18:57:14.560Z,,,,,,,,,,,,,,,,,,,,,,,,,,,,,,,,,,,,,,,,,,,,,,,,,,,,,,,,,,,,,,,,,,,,,,,,,,,,,,,,,,,,,,,,,,,,,,,,,,,,,,,,,,,,,,,,,,,2855.4530000002123,,form submission,,,,healthy,,cherry.png,,,,,,,,,,,,,,,cherry,,,,,,,,,,,,,,,,,,,,,,,,,,,,,,,,,,,,,,,,,,,,,,,,,,,,,,,,,false,,,,,,,,,221631.51500000095,221631.0400000002,218758.975,218761.08000000022,218775.587,221757.459,,,,13
rating_sequence,flow.Sequence,2_4_2_1_17,2021-01-14T18:57:14.561Z,,,,,,,,,,,,,,,,,,,,,,,,,,,,,,,,,,,,,,,,,,,,,,,,,,,,,,,,,,,,,,,,,,,,,,,,,,,,,,,,,,,,,,,,,,,,,,,,,,,,,,,,,,,,,,,,,,,3355.174000000203,,completion,,,,healthy,,cherry.png,,,,,,,,,,,,,,,cherry,,,,,,,,,,,,,,,,,,,,,,,,,,,,,,,,,,,,,,,,,,,,,,,,,,,,,,,,,false,,,,,,,,,221631.97500000024,221631.0400000002,218259.247,218267.84000000043,218275.866,221757.459,,,,
rating_loop,flow.Loop,2_4_2_1,2021-01-14T18:57:14.561Z,,,,,,,,,,,,,,,,,,,,,,,,,,,,,,,,,,,,,,,,,,,,,,,,,,,,,,,,,,,,,,,,,,,,,,,,,,,,,,,,,,,,,,,,,,,,,,,,,,,,,,,,,,,,,,,,,,,92444.98200000021,,completion,,,,,,,,,,,,,,,,,,,,,,,,,,,,,,,,,,,,,,,,,,,,,,,,,,,,,,,,,,,,,,,,,,,,,,,,,,,,,,false,,,,,,,,,221632.5250000009,221631.0400000002,129169.574,129177.04500000036,129186.058,221757.459,,,,
data_transmission,html.Screen,2_4_2_2,2021-01-14T18:57:14.586Z,,,,,,,,,,,,,,,,,,,,,,,,,,,,,,,,,,,,,,,,,,,,,,,,,,,,,,,,,,,,,,,,,,,,,,,,,,,,,,,,,,,,,,,,,,,,,,,,,,,,,,,,,,,,,,,,,,,NaN,,no compatible backend,,,,,,,,,,,,,,,Transferring data,,,,,,,,,,,,,,,,,,,,,,,,,,,,,,,,,,,,,,,,,,,,,,,,,,,,,,,,,,,,,,,false,,,Please wait a second…,,,,,,221656.97,221656.15500000058,,221632.84000000203,,221757.459,,,,
instructions,html.Screen,2_4_2_3,2021-01-14T18:58:18.444Z,,,,,,,,,,,,,,,,,,,,,,,,,,,,,,,,,,,,,,,,,,,,,,,,,,,,,,,,,,,,,,,,,,,,,,,,,,,,,,,,,,,,,,,,,,,,,,,,,,,,,,,,,,,,,,,,,,,63757.540999999415,,done,,,,,,,,,,,,,,,,,,,,,,,,,,,,,,,,,,,,,,,,,,,,,,,,,,,,,,,,,,,,,,,,,,,,,,,,,,,,,,false,,,,,,,,,285515.43500000116,285514.9999999994,221624.266,221657.48000000167,221757.459,285526.304,,,,
Q1,html.Screen,2_4_2_4_0,2021-01-14T18:58:30.760Z,,,,,,,,,,,,,,,,,,,,,,,,,,,,,,,,,,,,,,,,,,,,,,,,,,,,,,,,,,,,,,,,,,,,,,,,,,,,,,,,,,,,,,,,,,,,,,,,,,,,,,,,,,,,,,,false,input_Q1==3,,,12298.406000000774,,response,,,,,,,,,,,,,,,,,,,,,,,,,Q1_i1,Q1_i2,Q1_i3,Q1_i4,1,2,3,4,false,false,correct,false,,,,,,,,,,,,,,,,,,,,,,,,,,,,,,,,,,,,,,,,,click #Q1_i3,false,,,,,,,,,297831.3149999995,297824.7100000008,285510.483,285515.8599999995,285526.304,297836.946,,,,
Q1_correct,html.Screen,2_4_2_4_1,2021-01-14T18:58:32.219Z,,,,,,,,,,,,,,,,,,,,,,,,,,,,,,,,,,,,,,,,,,,,,,,,,,,,,,,,,,,,,,,,,,,,,,,,,,,,,,,,,,,,,,,,,,,,,,,,,,,,,,,,,,,,,,,,,,,1451.8989999991609,,response,,,,,,,,,,,,,,,,,,,,,,,,,,,,,,,,,,,,,,,,,,,,,,,,,,,,,,,,,,,,,,,,,,,,,,,,,,,,,keypress,false,,,,,,,,,299290.59000000055,299288.84499999916,297820.295,297831.8949999993,297836.946,299302.873,,,,
Q2,html.Screen,2_4_2_4_2,2021-01-14T18:58:37.211Z,,,,,,,,,,,,,,,,,,,,,,,,,,,,,,,,,,,,,,,,,,,,,,,,,,,,,,,,,,,,,,,,,,,,,,,,,,,,,,,,,,,,,,,,,,,,,,,,,,,,,,,,,,,,,,,,,,,4977.652000001923,,response,,,,,,,,,,,,,,,,,,,,,,,,,,,,,,,,,,,,,Q2_i1,Q2_i2,Q2_i3,Option 1,Option 2,Same amount,correct,opt2,same,,,,,,,,,,,,,,,,,,,,,,,,,,,,,,,,click #Q2_i1,false,,,,,,,,,304282.7600000019,304280.52500000194,299286.294,299290.97000000183,299302.873,304283.752,,,,
Q2_correct,html.Screen,2_4_2_4_3,2021-01-14T18:58:38.437Z,,,,,,,,,,,,,,,,,,,,,,,,,,,,,,,,,,,,,,,,,,,,,,,,,,,,,,,,,,,,,,,,,,,,,,,,,,,,,,,,,,,,,,,,,,,,,,,,,,,,,,,,,,,,,,,,,,,1223.1979999990435,,response,,,,,,,,,,,,,,,,,,,,,,,,,,,,,,,,,,,,,,,,,,,,,,,,,,,,,,,,,,,,,,,,,,,,,,,,,,,,,keypress,false,,,,,,,,,305508.7999999996,305506.949999999,304267.12,304283.3900000005,304283.752,305516.497,,,,
Q4,html.Screen,2_4_2_4_4,2021-01-14T18:58:45.367Z,,,,,,,,,,,,,,,,,,,,,,,,,,,,,,,,,,,,,,,,,,,,,,,,,,,,,,,,,,,,,,,,,,,,,,,,,,,,,,,,,,,,,,,,,,,,,,,,,,,,,,,,,,,,,,,,,,,6920.343000002147,,response,,,,,,,,,,,,,,,,,,,,,,,,,,,,,,,,,,,,,,,,,,,,,,Q4_i2,Q4_i1,Q4_i3,Q4_i4,Indicate the number of food items in each snack option,Press the arrow key that corresponds with the snack option I prefer,Press the arrow key that corresponds with the snack option with more food items,Press the space key,indicate,correct,morefood,pressspace,,,,,,,,,,,,,,,,,,,,click #Q4_i1,false,,,,,,,,,312438.80500000156,312436.8400000021,305499.908,305509.11500000075,305516.497,312446.465,,,,
Q4_correct,html.Screen,2_4_2_4_5,2021-01-14T18:58:46.441Z,,,,,,,,,,,,,,,,,,,,,,,,,,,,,,,,,,,,,,,,,,,,,,,,,,,,,,,,,,,,,,,,,,,,,,,,,,,,,,,,,,,,,,,,,,,,,,,,,,,,,,,,,,,,,,,,,,,1064.8399999999674,,response,,,,,,,,,,,,,,,,,,,,,,,,,,,,,,,,,,,,,,,,,,,,,,,,,,,,,,,,,,,,,,,,,,,,,,,,,,,,,keypress,false,,,,,,,,,313512.784999999,313511.305,312429.759,312439.37000000005,312446.465,313541.951,,,,
Q5,html.Screen,2_4_2_4_6,2021-01-14T18:58:50.681Z,,,,,,,,,,,,,,,,,,,,,,,,,,,,,,,,,,,,,,,,,,,,,,,,,,,,,,,,,,,,,,,,,,,,,,,,,,,,,,,,,,,,,,,,,,,,,,,,,,,,,,,,,,,,,,,,,,,4208.808999998961,,response,,,,,,,,,,,,,,,,,,,,,,,,,,,,,,,,,,,,,,,,,,,,,,,,,,,,,,,,,,Q5_i2,Q5_i1,Q5_i4,Q5_i3,There are more pieces of chocolate in snack Option 2,Snack Option 2 has been chosen,Snack Option 1 has been chosen,There are more slices of kiwi in snack Option 1,morechoc2,correct,chose1,morekiwi1,,,,,,,,click #Q5_i1,false,,,,,,,,,317752.84499999904,317750.75999999896,313496.033,313513.26999999944,313541.951,317760.478,,,,
Q5_correct,html.Screen,2_4_2_4_7,2021-01-14T18:58:51.731Z,,,,,,,,,,,,,,,,,,,,,,,,,,,,,,,,,,,,,,,,,,,,,,,,,,,,,,,,,,,,,,,,,,,,,,,,,,,,,,,,,,,,,,,,,,,,,,,,,,,,,,,,,,,,,,,,,,,1040.5170000013895,,response,,,,,,,,,,,,,,,,,,,,,,,,,,,,,,,,,,,,,,,,,,,,,,,,,,,,,,,,,,,,,,,,,,,,,,,,,,,,,keypress,false,,,,,,,,,318802.51000000135,318800.9950000014,317743.905,317753.43000000063,317760.478,318809.971,,,,
practice_sequence,flow.Sequence,2_4_2_4,2021-01-14T18:58:51.731Z,,,,,,,,,,,,,,,,,,,,,,,,,,,,,,,,,,,,,,,,,,,,,,,,,,,,,,,,,,,,,,,,,,,,,,,,,,,,,,,,,,,,,,,,,,,,,,,,,,,,,,,,,,,,,,,,,,,33274.69100000139,,completion,,,,,,,,,,,,,,,,,,,,,,,,,,,,,,,,,,,,,,,,,,,,,,,,,,,,,,,,,,,,,,,,,,,,,,,,,,,,,,false,,,,,,,,,318802.9600000009,318800.9950000014,285510.483,285515.76500000013,285526.304,318809.971,,,,
final_instru,html.Screen,2_4_2_5,2021-01-14T18:59:10.185Z,,,,,,,,,,,,,,,,,,,,,,,,,,,,,,,,,,,,,,,,,,,,,,,,,,,,,,,,,,,,,,,,,,,,,,,,,,,,,,,,,,,,,,,,,,,,,,,,,,,,,,,,,,,,,,,,,,,18446.443999999785,,done,,,,,,,,,,,,,,,,,,,,,,,,,,,,,,,,,,,,,,,,,,,,,,,,,,,,,,,,,,,,,,,,,,,,,,,,,,,,,,false,,,,,,,,,337256.81500000064,337256.4149999998,318793.446,318803.1950000004,318809.971,337267.655,,,,
blank_screen,canvas.Screen,2_4_2_6_0,2021-01-14T18:59:12.179Z,,,,,,,,,,,,,,,,,,,,,,,,,,,,,,,,,,,,,,,,,,,,,,,,,,,,,,,,,,,,,,,,,,,,,,,,,,,,,,,,,,,,,,,,,,,,,,,,,,,,,,,,,,,,,,,,,,,2132.3099999999977,,timeout,,,,,,,,,,,,,,,,,,,,,,,,,,,,,,,,,,,,,,,,,,,,,,,,,,,,,,,,,,,,,,,,,,,,,,,,,,,,,,false,,,,,,,,,339251.1200000008,339249.983,337252.198,337257.2450000007,337267.655,339399.965,,,,
fixCross,canvas.Screen,2_4_2_6_1_0_0_0_0_0_0,2021-01-14T18:59:12.713Z,,,blank.png,"[""chocolate_truffle.png""]",blank.png,blank.png,blank.png,blank.png,blank.png,blank.png,blank.png,blank.png,blank.png,blank.png,blank.png,,,,,,,,,,,,,,,,,,,,,,,,,,,,,"[""chocolate_truffle.png""]","[""apple.png""]",PB14.png,,,,,,,,,,,0,6,"[""apple.png""]","[""apple.png""]","[""apple.png""]","[""apple.png""]","[""apple.png""]","[""apple.png""]",blank.png,PB18.png,PB18.png,"[""apple.png""]","[""apple.png""]","[""apple.png""]",blank.png,blank.png,blank.png,"[""apple.png""]","[""apple.png""]","[""apple.png""]","[""apple.png""]","[""apple.png""]","[""apple.png""]",1,"[""chocolate_truffle.png""]",blank.png,blank.png,blank.png,3,"[""apple.png""]","[""apple.png""]","[""apple.png""]",blank.png,blank.png,blank.png,PB14.png,,,,,,,,,,,1,,,,,,,,,,,,1782.4099999999744,,timeout,,,,,,,,,,,,,3,,,,,,,,,,,,,,,,,,,,,,,,,,,,,,,,,,,,,,,,,,,,,,,,,,,,,,,,,"[""apple.png""]","[""chocolate_truffle.png""]",,,,5,,,false,,1,,,,,,,339784.674999999,339783.113,339249.983,339391.41000000015,339399.965,341182.375,1,,,
timeout,canvas.Screen,2_4_2_6_1_0_0_0_0_0_1,2021-01-14T18:59:14.649Z,,,blank.png,"[""chocolate_truffle.png""]",blank.png,blank.png,blank.png,blank.png,blank.png,blank.png,blank.png,blank.png,blank.png,blank.png,blank.png,,,,,,,,,,,,,,,,,,,,,,,,,,,,,"[""chocolate_truffle.png""]","[""apple.png""]",PB14.png,,,,,,,,,,,0,6,"[""apple.png""]","[""apple.png""]","[""apple.png""]","[""apple.png""]","[""apple.png""]","[""apple.png""]",blank.png,PB18.png,PB18.png,"[""apple.png""]","[""apple.png""]","[""apple.png""]",blank.png,blank.png,blank.png,"[""apple.png""]","[""apple.png""]","[""apple.png""]","[""apple.png""]","[""apple.png""]","[""apple.png""]",1,"[""chocolate_truffle.png""]",blank.png,blank.png,blank.png,3,"[""apple.png""]","[""apple.png""]","[""apple.png""]",blank.png,blank.png,blank.png,PB14.png,,,,,,,,,,,1,,,,,,,,,,,,2565.420999999973,,timeout,,,,,,,,,,,,,3,,,,,,,,,,,,,,,,,,,,,,,,,,,,,,,,,,,,,,,,,,,,,,,,,,,,,,,,,"[""apple.png""]","[""chocolate_truffle.png""]",,,,5,,,false,,1,,,,,,,341720.84499999986,341720.16000000073,339783.113,341709.10000000003,341182.375,343747.796,,,,
choice,canvas.Screen,2_4_2_6_1_0_0_0_0_0_2,2021-01-14T18:59:18.382Z,,,blank.png,"[""chocolate_truffle.png""]",blank.png,blank.png,blank.png,blank.png,blank.png,blank.png,blank.png,blank.png,blank.png,blank.png,blank.png,,,,,,,,,,,,,,,,,,,,,,,,,,,,,"[""chocolate_truffle.png""]","[""apple.png""]",PB14.png,,,,,,,,,,,0,6,"[""apple.png""]","[""apple.png""]","[""apple.png""]","[""apple.png""]","[""apple.png""]","[""apple.png""]",blank.png,PB18.png,PB18.png,"[""apple.png""]","[""apple.png""]","[""apple.png""]",blank.png,blank.png,blank.png,"[""apple.png""]","[""apple.png""]","[""apple.png""]","[""apple.png""]","[""apple.png""]","[""apple.png""]",1,"[""chocolate_truffle.png""]",blank.png,blank.png,blank.png,3,"[""apple.png""]","[""apple.png""]","[""apple.png""]",blank.png,blank.png,blank.png,PB14.png,,,,,,,,,,,1,,,,,,,,,,,,1703.7840000008582,,response,,,,,,,,,,,,,3,,,,,,,,,,,,,,,,,,,,,,,,,,,,,,,,,,,,,,,,,,,,,,,,,,,,,,,,,"[""apple.png""]","[""chocolate_truffle.png""]",,,,5,left,keydown(ArrowLeft),false,,1,,,,,,,345454.07500000147,345451.58000000083,341720.16000000073,343773.4049999999,343747.796,347679.205,,1,,
square,canvas.Screen,2_4_2_6_1_0_0_0_0_0_3,2021-01-14T18:59:21.593Z,,,blank.png,"[""chocolate_truffle.png""]",blank.png,blank.png,blank.png,blank.png,blank.png,blank.png,blank.png,blank.png,blank.png,blank.png,blank.png,,,,,,,,,,,,,,,,,,,,,,,,,,,,,"[""chocolate_truffle.png""]","[""apple.png""]",PB14.png,,,,,,,,,,,0,6,"[""apple.png""]","[""apple.png""]","[""apple.png""]","[""apple.png""]","[""apple.png""]","[""apple.png""]",blank.png,PB18.png,PB18.png,"[""apple.png""]","[""apple.png""]","[""apple.png""]",blank.png,blank.png,blank.png,"[""apple.png""]","[""apple.png""]","[""apple.png""]","[""apple.png""]","[""apple.png""]","[""apple.png""]",1,"[""chocolate_truffle.png""]",blank.png,blank.png,blank.png,3,"[""apple.png""]","[""apple.png""]","[""apple.png""]",blank.png,blank.png,blank.png,PB14.png,,,,,,,,,,,1,,#33ff3f,#808080,,,,,,,,,999.6030000000028,,timeout,,,,,,,,,,,,,3,,,,,,,,,,,,,,,,,,,,,,,,,,,,,,,,,,,,,,,,,,,,,,,,,,,,,,,,,"[""apple.png""]","[""chocolate_truffle.png""]",,,,5,,,false,,1,,,,,black,white,348665.3499999993,348662.024,347629.787,347632.5450000004,347679.205,348678.808,,,,
ITI_late,canvas.Screen,2_4_2_6_1_0_0_0_0_0_4,2021-01-14T18:59:22.341Z,,,blank.png,"[""chocolate_truffle.png""]",blank.png,blank.png,blank.png,blank.png,blank.png,blank.png,blank.png,blank.png,blank.png,blank.png,blank.png,,,,,,,,,,,,,,,,,,,,,,,,,,,,,"[""chocolate_truffle.png""]","[""apple.png""]",PB14.png,,,,,,,,,,,0,6,"[""apple.png""]","[""apple.png""]","[""apple.png""]","[""apple.png""]","[""apple.png""]","[""apple.png""]",blank.png,PB18.png,PB18.png,"[""apple.png""]","[""apple.png""]","[""apple.png""]",blank.png,blank.png,blank.png,"[""apple.png""]","[""apple.png""]","[""apple.png""]","[""apple.png""]","[""apple.png""]","[""apple.png""]",1,"[""chocolate_truffle.png""]",blank.png,blank.png,blank.png,3,"[""apple.png""]","[""apple.png""]","[""apple.png""]",blank.png,blank.png,blank.png,PB14.png,,,,,,,,,,,1,,,,,,,,,,,,749.5270000000019,,timeout,,,,,,,,,,,,white,3,,,,,,,,,,,,,,,,,,,,,,,,,,,,,,,,,,,,,,,,,,,,,,,,,,,,,,,,,"[""apple.png""]","[""chocolate_truffle.png""]",,,,5,,,false,,1,,,,,,,349413.31999999966,349411.707,348662.024,348670.76499999897,348678.808,349428.335,,,,
choice_sequence,flow.Sequence,2_4_2_6_1_0_0_0_0_0,2021-01-14T18:59:22.343Z,,,blank.png,"[""chocolate_truffle.png""]",blank.png,blank.png,blank.png,blank.png,blank.png,blank.png,blank.png,blank.png,blank.png,blank.png,blank.png,,,,,,,,,,,,,,,,,,,,,,,,,,,,,"[""chocolate_truffle.png""]","[""apple.png""]",PB14.png,,,,,,,,,,,0,6,"[""apple.png""]","[""apple.png""]","[""apple.png""]","[""apple.png""]","[""apple.png""]","[""apple.png""]",blank.png,PB18.png,PB18.png,"[""apple.png""]","[""apple.png""]","[""apple.png""]",blank.png,blank.png,blank.png,"[""apple.png""]","[""apple.png""]","[""apple.png""]","[""apple.png""]","[""apple.png""]","[""apple.png""]",1,"[""chocolate_truffle.png""]",blank.png,blank.png,blank.png,3,"[""apple.png""]","[""apple.png""]","[""apple.png""]",blank.png,blank.png,blank.png,PB14.png,,,,,,,,,,,1,,,,,,,,,,,,10011.74199999997,,completion,,,,,,,,,,,,,3,,,,,,,,,,,,,,,,,,,,,,,,,,,,,,,,,,,,,,,,,,,,,,,,,,,,,,,,,"[""apple.png""]","[""chocolate_truffle.png""]",,,,5,,,false,,1,,,,,,,349415.12499999953,349411.707,339249.983,339385.0850000017,339399.965,349428.335,,,,
fixCross,canvas.Screen,2_4_2_6_1_0_0_0_0_1_0,2021-01-14T18:59:22.941Z,,,blank.png,"[""chocolate_truffle.png""]",blank.png,blank.png,blank.png,blank.png,blank.png,blank.png,blank.png,blank.png,blank.png,blank.png,blank.png,,,,,,,,,,,,,,,,,,,,,,,,,,,,,"[""chocolate_truffle.png""]","[""apple.png""]",PB17.png,,,,,,,,,,,0,6,"[""apple.png""]","[""apple.png""]","[""apple.png""]","[""apple.png""]","[""apple.png""]","[""apple.png""]",blank.png,PB18.png,PB18.png,"[""apple.png""]","[""apple.png""]","[""apple.png""]","[""apple.png""]","[""apple.png""]","[""apple.png""]","[""apple.png""]","[""apple.png""]","[""apple.png""]","[""apple.png""]","[""apple.png""]","[""apple.png""]",1,"[""chocolate_truffle.png""]",blank.png,blank.png,blank.png,6,"[""apple.png""]","[""apple.png""]","[""apple.png""]","[""apple.png""]","[""apple.png""]","[""apple.png""]",PB17.png,,,,,,,,,,,1,,,,,,,,,,,,2848.6199999999953,,timeout,,,,,,,,,,,,,3,,,,,,,,,,,,,,,,,,,,,,,,,,,,,,,,,,,,,,,,,,,,,,,,,,,,,,,,,"[""apple.png""]","[""chocolate_truffle.png""]",,,,5,,,false,,1,,,,,,,350012.7649999995,350011.403,349411.707,349438.27500000043,349428.335,352276.955,2,,,
timeout,canvas.Screen,2_4_2_6_1_0_0_0_0_1_1,2021-01-14T18:59:25.690Z,,,blank.png,"[""chocolate_truffle.png""]",blank.png,blank.png,blank.png,blank.png,blank.png,blank.png,blank.png,blank.png,blank.png,blank.png,blank.png,,,,,,,,,,,,,,,,,,,,,,,,,,,,,"[""chocolate_truffle.png""]","[""apple.png""]",PB17.png,,,,,,,,,,,0,6,"[""apple.png""]","[""apple.png""]","[""apple.png""]","[""apple.png""]","[""apple.png""]","[""apple.png""]",blank.png,PB18.png,PB18.png,"[""apple.png""]","[""apple.png""]","[""apple.png""]","[""apple.png""]","[""apple.png""]","[""apple.png""]","[""apple.png""]","[""apple.png""]","[""apple.png""]","[""apple.png""]","[""apple.png""]","[""apple.png""]",1,"[""chocolate_truffle.png""]",blank.png,blank.png,blank.png,6,"[""apple.png""]","[""apple.png""]","[""apple.png""]","[""apple.png""]","[""apple.png""]","[""apple.png""]",PB17.png,,,,,,,,,,,1,,,,,,,,,,,,2715.3119999999763,,timeout,,,,,,,,,,,,,3,,,,,,,,,,,,,,,,,,,,,,,,,,,,,,,,,,,,,,,,,,,,,,,,,,,,,,,,,"[""apple.png""]","[""chocolate_truffle.png""]",,,,5,,,false,,1,,,,,,,352761.6049999997,352760.089,350011.403,352306.6749999998,352276.955,354992.267,,,,
choice,canvas.Screen,2_4_2_6_1_0_0_0_0_1_2,2021-01-14T18:59:27.936Z,,,blank.png,"[""chocolate_truffle.png""]",blank.png,blank.png,blank.png,blank.png,blank.png,blank.png,blank.png,blank.png,blank.png,blank.png,blank.png,,,,,,,,,,,,,,,,,,,,,,,,,,,,,"[""chocolate_truffle.png""]","[""apple.png""]",PB17.png,,,,,,,,,,,0,6,"[""apple.png""]","[""apple.png""]","[""apple.png""]","[""apple.png""]","[""apple.png""]","[""apple.png""]",blank.png,PB18.png,PB18.png,"[""apple.png""]","[""apple.png""]","[""apple.png""]","[""apple.png""]","[""apple.png""]","[""apple.png""]","[""apple.png""]","[""apple.png""]","[""apple.png""]","[""apple.png""]","[""apple.png""]","[""apple.png""]",1,"[""chocolate_truffle.png""]",blank.png,blank.png,blank.png,6,"[""apple.png""]","[""apple.png""]","[""apple.png""]","[""apple.png""]","[""apple.png""]","[""apple.png""]",PB17.png,,,,,,,,,,,1,,,,,,,,,,,,2112.551000001433,,response,,,,,,,,,,,,,3,,,,,,,,,,,,,,,,,,,,,,,,,,,,,,,,,,,,,,,,,,,,,,,,,,,,,,,,,"[""apple.png""]","[""chocolate_truffle.png""]",,,,5,left,keydown(ArrowLeft),false,,1,,,,,,,355008.03000000084,354872.6400000014,352760.089,354966.1400000005,,357224.713,,2,,
square,canvas.Screen,2_4_2_6_1_0_0_0_0_1_3,2021-01-14T18:59:31.137Z,,,blank.png,"[""chocolate_truffle.png""]",blank.png,blank.png,blank.png,blank.png,blank.png,blank.png,blank.png,blank.png,blank.png,blank.png,blank.png,,,,,,,,,,,,,,,,,,,,,,,,,,,,,"[""chocolate_truffle.png""]","[""apple.png""]",PB17.png,,,,,,,,,,,0,6,"[""apple.png""]","[""apple.png""]","[""apple.png""]","[""apple.png""]","[""apple.png""]","[""apple.png""]",blank.png,PB18.png,PB18.png,"[""apple.png""]","[""apple.png""]","[""apple.png""]","[""apple.png""]","[""apple.png""]","[""apple.png""]","[""apple.png""]","[""apple.png""]","[""apple.png""]","[""apple.png""]","[""apple.png""]","[""apple.png""]",1,"[""chocolate_truffle.png""]",blank.png,blank.png,blank.png,6,"[""apple.png""]","[""apple.png""]","[""apple.png""]","[""apple.png""]","[""apple.png""]","[""apple.png""]",PB17.png,,,,,,,,,,,1,,#33ff3f,#808080,,,,,,,,,999.3369999999995,,timeout,,,,,,,,,,,,,3,,,,,,,,,,,,,,,,,,,,,,,,,,,,,,,,,,,,,,,,,,,,,,,,,,,,,,,,,"[""apple.png""]","[""chocolate_truffle.png""]",,,,5,,,false,,1,,,,,black,white,358208.9550000019,358207.419,354992.267,357191.19000000134,357224.713,358224.05,,,,
ITI_late,canvas.Screen,2_4_2_6_1_0_0_0_0_1_4,2021-01-14T18:59:31.637Z,,,blank.png,"[""chocolate_truffle.png""]",blank.png,blank.png,blank.png,blank.png,blank.png,blank.png,blank.png,blank.png,blank.png,blank.png,blank.png,,,,,,,,,,,,,,,,,,,,,,,,,,,,,"[""chocolate_truffle.png""]","[""apple.png""]",PB17.png,,,,,,,,,,,0,6,"[""apple.png""]","[""apple.png""]","[""apple.png""]","[""apple.png""]","[""apple.png""]","[""apple.png""]",blank.png,PB18.png,PB18.png,"[""apple.png""]","[""apple.png""]","[""apple.png""]","[""apple.png""]","[""apple.png""]","[""apple.png""]","[""apple.png""]","[""apple.png""]","[""apple.png""]","[""apple.png""]","[""apple.png""]","[""apple.png""]",1,"[""chocolate_truffle.png""]",blank.png,blank.png,blank.png,6,"[""apple.png""]","[""apple.png""]","[""apple.png""]","[""apple.png""]","[""apple.png""]","[""apple.png""]",PB17.png,,,,,,,,,,,1,,,,,,,,,,,,499.7600000000093,,timeout,,,,,,,,,,,,white,3,,,,,,,,,,,,,,,,,,,,,,,,,,,,,,,,,,,,,,,,,,,,,,,,,,,,,,,,,"[""apple.png""]","[""chocolate_truffle.png""]",,,,5,,,false,,1,,,,,,,358708.6400000007,358707.192,358207.419,358214.52499999944,358224.05,358723.81,,,,
choice_sequence,flow.Sequence,2_4_2_6_1_0_0_0_0_1,2021-01-14T18:59:31.638Z,,,blank.png,"[""chocolate_truffle.png""]",blank.png,blank.png,blank.png,blank.png,blank.png,blank.png,blank.png,blank.png,blank.png,blank.png,blank.png,,,,,,,,,,,,,,,,,,,,,,,,,,,,,"[""chocolate_truffle.png""]","[""apple.png""]",PB17.png,,,,,,,,,,,0,6,"[""apple.png""]","[""apple.png""]","[""apple.png""]","[""apple.png""]","[""apple.png""]","[""apple.png""]",blank.png,PB18.png,PB18.png,"[""apple.png""]","[""apple.png""]","[""apple.png""]","[""apple.png""]","[""apple.png""]","[""apple.png""]","[""apple.png""]","[""apple.png""]","[""apple.png""]","[""apple.png""]","[""apple.png""]","[""apple.png""]",1,"[""chocolate_truffle.png""]",blank.png,blank.png,blank.png,6,"[""apple.png""]","[""apple.png""]","[""apple.png""]","[""apple.png""]","[""apple.png""]","[""apple.png""]",PB17.png,,,,,,,,,,,1,,,,,,,,,,,,9278.85699999996,,completion,,,,,,,,,,,,,3,,,,,,,,,,,,,,,,,,,,,,,,,,,,,,,,,,,,,,,,,,,,,,,,,,,,,,,,,"[""apple.png""]","[""chocolate_truffle.png""]",,,,5,,,false,,1,,,,,,,358710.23000000056,358707.192,349411.707,349431.51000000216,349428.335,358723.81,,,,
fixCross,canvas.Screen,2_4_2_6_1_0_0_0_0_2_0,2021-01-14T18:59:32.386Z,,,blank.png,blank.png,blank.png,blank.png,blank.png,blank.png,blank.png,"[""chocolate_truffle.png""]",blank.png,blank.png,blank.png,blank.png,blank.png,,,,,,,,,,,,,,,,,,,,,,,,,,,,,"[""chocolate_truffle.png""]","[""apple.png""]",PB18.png,,,,,,,,,,,0,6,"[""apple.png""]","[""apple.png""]","[""apple.png""]","[""apple.png""]","[""apple.png""]","[""apple.png""]",blank.png,PB18.png,PB12.png,"[""apple.png""]","[""apple.png""]","[""apple.png""]","[""apple.png""]","[""apple.png""]","[""apple.png""]","[""apple.png""]","[""apple.png""]",blank.png,blank.png,blank.png,blank.png,1,"[""chocolate_truffle.png""]",blank.png,blank.png,blank.png,2,"[""apple.png""]","[""apple.png""]",blank.png,blank.png,blank.png,blank.png,PB12.png,,,,,,,,,,,1,,,,,,,,,,,,2565.8680000000168,,timeout,,,,,,,,,,,,,4,,,,,,,,,,,,,,,,,,,,,,,,,,,,,,,,,,,,,,,,,,,,,,,,,,,,,,,,,"[""apple.png""]","[""chocolate_truffle.png""]",,,,5,,,false,,1,,,,,,,359458.13999999885,359456.768,358707.192,358729.54500000196,358723.81,361289.678,3,,,
timeout,canvas.Screen,2_4_2_6_1_0_0_0_0_2_1,2021-01-14T18:59:34.702Z,,,blank.png,blank.png,blank.png,blank.png,blank.png,blank.png,blank.png,"[""chocolate_truffle.png""]",blank.png,blank.png,blank.png,blank.png,blank.png,,,,,,,,,,,,,,,,,,,,,,,,,,,,,"[""chocolate_truffle.png""]","[""apple.png""]",PB18.png,,,,,,,,,,,0,6,"[""apple.png""]","[""apple.png""]","[""apple.png""]","[""apple.png""]","[""apple.png""]","[""apple.png""]",blank.png,PB18.png,PB12.png,"[""apple.png""]","[""apple.png""]","[""apple.png""]","[""apple.png""]","[""apple.png""]","[""apple.png""]","[""apple.png""]","[""apple.png""]",blank.png,blank.png,blank.png,blank.png,1,"[""chocolate_truffle.png""]",blank.png,blank.png,blank.png,2,"[""apple.png""]","[""apple.png""]",blank.png,blank.png,blank.png,blank.png,PB12.png,,,,,,,,,,,1,,,,,,,,,,,,2348.3800000000047,,timeout,,,,,,,,,,,,,4,,,,,,,,,,,,,,,,,,,,,,,,,,,,,,,,,,,,,,,,,,,,,,,,,,,,,,,,,"[""apple.png""]","[""chocolate_truffle.png""]",,,,5,,,false,,1,,,,,,,361773.795000001,361772.405,359456.768,361331.5199999997,361289.678,363638.058,,,,
choice,canvas.Screen,2_4_2_6_1_0_0_0_0_2_2,2021-01-14T18:59:37.426Z,,,blank.png,blank.png,blank.png,blank.png,blank.png,blank.png,blank.png,"[""chocolate_truffle.png""]",blank.png,blank.png,blank.png,blank.png,blank.png,,,,,,,,,,,,,,,,,,,,,,,,,,,,,"[""chocolate_truffle.png""]","[""apple.png""]",PB18.png,,,,,,,,,,,0,6,"[""apple.png""]","[""apple.png""]","[""apple.png""]","[""apple.png""]","[""apple.png""]","[""apple.png""]",blank.png,PB18.png,PB12.png,"[""apple.png""]","[""apple.png""]","[""apple.png""]","[""apple.png""]","[""apple.png""]","[""apple.png""]","[""apple.png""]","[""apple.png""]",blank.png,blank.png,blank.png,blank.png,1,"[""chocolate_truffle.png""]",blank.png,blank.png,blank.png,2,"[""apple.png""]","[""apple.png""]",blank.png,blank.png,blank.png,blank.png,PB12.png,,,,,,,,,,,1,,,,,,,,,,,,848.6420000012731,,response,,,,,,,,,,,,,4,,,,,,,,,,,,,,,,,,,,,,,,,,,,,,,,,,,,,,,,,,,,,,,,,,,,,,,,,"[""apple.png""]","[""chocolate_truffle.png""]",,,,5,left,keydown(ArrowLeft),false,,1,,,,,,,364497.55000000005,364486.7000000013,361772.405,363608.95000000164,363638.058,366353.391,,3,,
square,canvas.Screen,2_4_2_6_1_0_0_0_0_2_3,2021-01-14T18:59:40.266Z,,,blank.png,blank.png,blank.png,blank.png,blank.png,blank.png,blank.png,"[""chocolate_truffle.png""]",blank.png,blank.png,blank.png,blank.png,blank.png,,,,,,,,,,,,,,,,,,,,,,,,,,,,,"[""chocolate_truffle.png""]","[""apple.png""]",PB18.png,,,,,,,,,,,0,6,"[""apple.png""]","[""apple.png""]","[""apple.png""]","[""apple.png""]","[""apple.png""]","[""apple.png""]",blank.png,PB18.png,PB12.png,"[""apple.png""]","[""apple.png""]","[""apple.png""]","[""apple.png""]","[""apple.png""]","[""apple.png""]","[""apple.png""]","[""apple.png""]",blank.png,blank.png,blank.png,blank.png,1,"[""chocolate_truffle.png""]",blank.png,blank.png,blank.png,2,"[""apple.png""]","[""apple.png""]",blank.png,blank.png,blank.png,blank.png,PB12.png,,,,,,,,,,,1,,#33ff3f,#808080,,,,,,,,,999.5260000000126,,timeout,,,,,,,,,,,,,4,,,,,,,,,,,,,,,,,,,,,,,,,,,,,,,,,,,,,,,,,,,,,,,,,,,,,,,,,"[""apple.png""]","[""chocolate_truffle.png""]",,,,5,,,false,,1,,,,,black,white,367337.81499999895,367336.401,366270.577,366281.09500000207,366353.391,367352.917,,,,
ITI_late,canvas.Screen,2_4_2_6_1_0_0_0_0_2_4,2021-01-14T18:59:41.515Z,,,blank.png,blank.png,blank.png,blank.png,blank.png,blank.png,blank.png,"[""chocolate_truffle.png""]",blank.png,blank.png,blank.png,blank.png,blank.png,,,,,,,,,,,,,,,,,,,,,,,,,,,,,"[""chocolate_truffle.png""]","[""apple.png""]",PB18.png,,,,,,,,,,,0,6,"[""apple.png""]","[""apple.png""]","[""apple.png""]","[""apple.png""]","[""apple.png""]","[""apple.png""]",blank.png,PB18.png,PB12.png,"[""apple.png""]","[""apple.png""]","[""apple.png""]","[""apple.png""]","[""apple.png""]","[""apple.png""]","[""apple.png""]","[""apple.png""]",blank.png,blank.png,blank.png,blank.png,1,"[""chocolate_truffle.png""]",blank.png,blank.png,blank.png,2,"[""apple.png""]","[""apple.png""]",blank.png,blank.png,blank.png,blank.png,PB12.png,,,,,,,,,,,1,,,,,,,,,,,,1249.4010000000126,,timeout,,,,,,,,,,,,white,4,,,,,,,,,,,,,,,,,,,,,,,,,,,,,,,,,,,,,,,,,,,,,,,,,,,,,,,,,"[""apple.png""]","[""chocolate_truffle.png""]",,,,5,,,false,,1,,,,,,,368586.98000000004,368585.667,367336.401,367343.7750000012,367352.917,368602.318,,,,
choice_sequence,flow.Sequence,2_4_2_6_1_0_0_0_0_2,2021-01-14T18:59:41.517Z,,,blank.png,blank.png,blank.png,blank.png,blank.png,blank.png,blank.png,"[""chocolate_truffle.png""]",blank.png,blank.png,blank.png,blank.png,blank.png,,,,,,,,,,,,,,,,,,,,,,,,,,,,,"[""chocolate_truffle.png""]","[""apple.png""]",PB18.png,,,,,,,,,,,0,6,"[""apple.png""]","[""apple.png""]","[""apple.png""]","[""apple.png""]","[""apple.png""]","[""apple.png""]",blank.png,PB18.png,PB12.png,"[""apple.png""]","[""apple.png""]","[""apple.png""]","[""apple.png""]","[""apple.png""]","[""apple.png""]","[""apple.png""]","[""apple.png""]",blank.png,blank.png,blank.png,blank.png,1,"[""chocolate_truffle.png""]",blank.png,blank.png,blank.png,2,"[""apple.png""]","[""apple.png""]",blank.png,blank.png,blank.png,blank.png,PB12.png,,,,,,,,,,,1,,,,,,,,,,,,9861.857000000018,,completion,,,,,,,,,,,,,4,,,,,,,,,,,,,,,,,,,,,,,,,,,,,,,,,,,,,,,,,,,,,,,,,,,,,,,,,"[""apple.png""]","[""chocolate_truffle.png""]",,,,5,,,false,,1,,,,,,,368589.0150000014,368585.667,358707.192,358723.5550000005,358723.81,368602.318,,,,
fixCross,canvas.Screen,2_4_2_6_1_0_0_0_0_3_0,2021-01-14T18:59:41.765Z,,,blank.png,"[""chocolate_truffle.png""]",blank.png,blank.png,blank.png,blank.png,blank.png,blank.png,blank.png,blank.png,blank.png,blank.png,blank.png,,,,,,,,,,,,,,,,,,,,,,,,,,,,,"[""chocolate_truffle.png""]","[""apple.png""]",PB01.png,,,,,,,,,,,0,6,"[""apple.png""]","[""apple.png""]","[""apple.png""]","[""apple.png""]","[""apple.png""]","[""apple.png""]",blank.png,PB18.png,PB18.png,blank.png,blank.png,blank.png,blank.png,blank.png,blank.png,"[""apple.png""]","[""apple.png""]","[""apple.png""]","[""apple.png""]","[""apple.png""]","[""apple.png""]",1,"[""chocolate_truffle.png""]",blank.png,blank.png,blank.png,0,blank.png,blank.png,blank.png,blank.png,blank.png,blank.png,PB01.png,,,,,,,,,,,1,,,,,,,,,,,,1882.426999999967,,timeout,,,,,,,,,,,,,3,,,,,,,,,,,,,,,,,,,,,,,,,,,,,,,,,,,,,,,,,,,,,,,,,,,,,,,,,"[""apple.png""]","[""chocolate_truffle.png""]",,,,5,,,false,,1,,,,,,,368836.98500000173,368835.512,368585.667,368611.9350000008,368602.318,370484.745,4,,,
timeout,canvas.Screen,2_4_2_6_1_0_0_0_0_3_1,2021-01-14T18:59:43.898Z,,,blank.png,"[""chocolate_truffle.png""]",blank.png,blank.png,blank.png,blank.png,blank.png,blank.png,blank.png,blank.png,blank.png,blank.png,blank.png,,,,,,,,,,,,,,,,,,,,,,,,,,,,,"[""chocolate_truffle.png""]","[""apple.png""]",PB01.png,,,,,,,,,,,0,6,"[""apple.png""]","[""apple.png""]","[""apple.png""]","[""apple.png""]","[""apple.png""]","[""apple.png""]",blank.png,PB18.png,PB18.png,blank.png,blank.png,blank.png,blank.png,blank.png,blank.png,"[""apple.png""]","[""apple.png""]","[""apple.png""]","[""apple.png""]","[""apple.png""]","[""apple.png""]",1,"[""chocolate_truffle.png""]",blank.png,blank.png,blank.png,0,blank.png,blank.png,blank.png,blank.png,blank.png,blank.png,PB01.png,,,,,,,,,,,1,,,,,,,,,,,,2198.8850000000093,,timeout,,,,,,,,,,,,,3,,,,,,,,,,,,,,,,,,,,,,,,,,,,,,,,,,,,,,,,,,,,,,,,,,,,,,,,,"[""apple.png""]","[""chocolate_truffle.png""]",,,,5,,,false,,1,,,,,,,370969.4449999988,370967.803,368835.512,370501.6800000012,370484.745,372683.63,,,,
choice,canvas.Screen,2_4_2_6_1_0_0_0_0_3_2,2021-01-14T18:59:46.073Z,,,blank.png,"[""chocolate_truffle.png""]",blank.png,blank.png,blank.png,blank.png,blank.png,blank.png,blank.png,blank.png,blank.png,blank.png,blank.png,,,,,,,,,,,,,,,,,,,,,,,,,,,,,"[""chocolate_truffle.png""]","[""apple.png""]",PB01.png,,,,,,,,,,,0,6,"[""apple.png""]","[""apple.png""]","[""apple.png""]","[""apple.png""]","[""apple.png""]","[""apple.png""]",blank.png,PB18.png,PB18.png,blank.png,blank.png,blank.png,blank.png,blank.png,blank.png,"[""apple.png""]","[""apple.png""]","[""apple.png""]","[""apple.png""]","[""apple.png""]","[""apple.png""]",1,"[""chocolate_truffle.png""]",blank.png,blank.png,blank.png,0,blank.png,blank.png,blank.png,blank.png,blank.png,blank.png,PB01.png,,,,,,,,,,,1,,,,,,,,,,,,458.1299999986077,,response,,,,,,,,,,,,,3,,,,,,,,,,,,,,,,,,,,,,,,,,,,,,,,,,,,,,,,,,,,,,,,,,,,,,,,,"[""apple.png""]","[""chocolate_truffle.png""]",,,,5,right,keydown(ArrowRight),false,,1,,,,,,,373144.6350000006,373141.7599999986,370967.803,372615.01499999943,372683.63,374782.644,,4,,
square,canvas.Screen,2_4_2_6_1_0_0_0_0_3_3,2021-01-14T18:59:48.695Z,,,blank.png,"[""chocolate_truffle.png""]",blank.png,blank.png,blank.png,blank.png,blank.png,blank.png,blank.png,blank.png,blank.png,blank.png,blank.png,,,,,,,,,,,,,,,,,,,,,,,,,,,,,"[""chocolate_truffle.png""]","[""apple.png""]",PB01.png,,,,,,,,,,,0,6,"[""apple.png""]","[""apple.png""]","[""apple.png""]","[""apple.png""]","[""apple.png""]","[""apple.png""]",blank.png,PB18.png,PB18.png,blank.png,blank.png,blank.png,blank.png,blank.png,blank.png,"[""apple.png""]","[""apple.png""]","[""apple.png""]","[""apple.png""]","[""apple.png""]","[""apple.png""]",1,"[""chocolate_truffle.png""]",blank.png,blank.png,blank.png,0,blank.png,blank.png,blank.png,blank.png,blank.png,blank.png,PB01.png,,,,,,,,,,,1,,#808080,#33ff3f,,,,,,,,,999.5040000000154,,timeout,,,,,,,,,,,,,3,,,,,,,,,,,,,,,,,,,,,,,,,,,,,,,,,,,,,,,,,,,,,,,,,,,,,,,,,"[""apple.png""]","[""chocolate_truffle.png""]",,,,5,,,false,,1,,,,,white,black,375766.9100000021,375765.497,374749.65,374752.295000002,374782.644,375782.148,,,,
ITI_late,canvas.Screen,2_4_2_6_1_0_0_0_0_3_4,2021-01-14T18:59:48.945Z,,,blank.png,"[""chocolate_truffle.png""]",blank.png,blank.png,blank.png,blank.png,blank.png,blank.png,blank.png,blank.png,blank.png,blank.png,blank.png,,,,,,,,,,,,,,,,,,,,,,,,,,,,,"[""chocolate_truffle.png""]","[""apple.png""]",PB01.png,,,,,,,,,,,0,6,"[""apple.png""]","[""apple.png""]","[""apple.png""]","[""apple.png""]","[""apple.png""]","[""apple.png""]",blank.png,PB18.png,PB18.png,blank.png,blank.png,blank.png,blank.png,blank.png,blank.png,"[""apple.png""]","[""apple.png""]","[""apple.png""]","[""apple.png""]","[""apple.png""]","[""apple.png""]",1,"[""chocolate_truffle.png""]",blank.png,blank.png,blank.png,0,blank.png,blank.png,blank.png,blank.png,blank.png,blank.png,PB01.png,,,,,,,,,,,1,,,,,,,,,,,,249.8530000000028,,timeout,,,,,,,,,,,,white,3,,,,,,,,,,,,,,,,,,,,,,,,,,,,,,,,,,,,,,,,,,,,,,,,,,,,,,,,,"[""apple.png""]","[""chocolate_truffle.png""]",,,,5,,,false,,1,,,,,,,376016.7900000015,376015.339,375765.497,375772.61,375782.148,376032.001,,,,
choice_sequence,flow.Sequence,2_4_2_6_1_0_0_0_0_3,2021-01-14T18:59:48.946Z,,,blank.png,"[""chocolate_truffle.png""]",blank.png,blank.png,blank.png,blank.png,blank.png,blank.png,blank.png,blank.png,blank.png,blank.png,blank.png,,,,,,,,,,,,,,,,,,,,,,,,,,,,,"[""chocolate_truffle.png""]","[""apple.png""]",PB01.png,,,,,,,,,,,0,6,"[""apple.png""]","[""apple.png""]","[""apple.png""]","[""apple.png""]","[""apple.png""]","[""apple.png""]",blank.png,PB18.png,PB18.png,blank.png,blank.png,blank.png,blank.png,blank.png,blank.png,"[""apple.png""]","[""apple.png""]","[""apple.png""]","[""apple.png""]","[""apple.png""]","[""apple.png""]",1,"[""chocolate_truffle.png""]",blank.png,blank.png,blank.png,0,blank.png,blank.png,blank.png,blank.png,blank.png,blank.png,PB01.png,,,,,,,,,,,1,,,,,,,,,,,,7413.02099999995,,completion,,,,,,,,,,,,,3,,,,,,,,,,,,,,,,,,,,,,,,,,,,,,,,,,,,,,,,,,,,,,,,,,,,,,,,,"[""apple.png""]","[""chocolate_truffle.png""]",,,,5,,,false,,1,,,,,,,376018.39499999915,376015.339,368585.667,368604.4650000003,368602.318,376032.001,,,,
fixCross,canvas.Screen,2_4_2_6_1_0_0_0_0_4_0,2021-01-14T18:59:49.545Z,,,blank.png,"[""chocolate_truffle.png""]",blank.png,blank.png,blank.png,blank.png,blank.png,blank.png,blank.png,blank.png,blank.png,blank.png,blank.png,,,,,,,,,,,,,,,,,,,,,,,,,,,,,"[""chocolate_truffle.png""]","[""apple.png""]",PB07.png,,,,,,,,,,,0,6,"[""apple.png""]","[""apple.png""]","[""apple.png""]","[""apple.png""]","[""apple.png""]","[""apple.png""]",blank.png,PB18.png,PB18.png,"[""apple.png""]",blank.png,blank.png,blank.png,blank.png,blank.png,"[""apple.png""]","[""apple.png""]","[""apple.png""]","[""apple.png""]","[""apple.png""]","[""apple.png""]",1,"[""chocolate_truffle.png""]",blank.png,blank.png,blank.png,1,"[""apple.png""]",blank.png,blank.png,blank.png,blank.png,blank.png,PB07.png,,,,,,,,,,,1,,,,,,,,,,,,2332.3450000000303,,timeout,,,,,,,,,,,,,3,,,,,,,,,,,,,,,,,,,,,,,,,,,,,,,,,,,,,,,,,,,,,,,,,,,,,,,,,"[""apple.png""]","[""chocolate_truffle.png""]",,,,5,,,false,,1,,,,,,,376616.6100000009,376615.128,376015.339,376034.4599999989,376032.001,378364.346,5,,,
timeout,canvas.Screen,2_4_2_6_1_0_0_0_0_4_1,2021-01-14T18:59:51.780Z,,,blank.png,"[""chocolate_truffle.png""]",blank.png,blank.png,blank.png,blank.png,blank.png,blank.png,blank.png,blank.png,blank.png,blank.png,blank.png,,,,,,,,,,,,,,,,,,,,,,,,,,,,,"[""chocolate_truffle.png""]","[""apple.png""]",PB07.png,,,,,,,,,,,0,6,"[""apple.png""]","[""apple.png""]","[""apple.png""]","[""apple.png""]","[""apple.png""]","[""apple.png""]",blank.png,PB18.png,PB18.png,"[""apple.png""]",blank.png,blank.png,blank.png,blank.png,blank.png,"[""apple.png""]","[""apple.png""]","[""apple.png""]","[""apple.png""]","[""apple.png""]","[""apple.png""]",1,"[""chocolate_truffle.png""]",blank.png,blank.png,blank.png,1,"[""apple.png""]",blank.png,blank.png,blank.png,blank.png,blank.png,PB07.png,,,,,,,,,,,1,,,,,,,,,,,,2332.054999999993,,timeout,,,,,,,,,,,,,3,,,,,,,,,,,,,,,,,,,,,,,,,,,,,,,,,,,,,,,,,,,,,,,,,,,,,,,,,"[""apple.png""]","[""chocolate_truffle.png""]",,,,5,,,false,,1,,,,,,,378851.6750000017,378847.373,376615.128,378381.57000000135,378364.346,380696.401,,,,
choice,canvas.Screen,2_4_2_6_1_0_0_0_0_4_2,2021-01-14T18:59:54.021Z,,,blank.png,"[""chocolate_truffle.png""]",blank.png,blank.png,blank.png,blank.png,blank.png,blank.png,blank.png,blank.png,blank.png,blank.png,blank.png,,,,,,,,,,,,,,,,,,,,,,,,,,,,,"[""chocolate_truffle.png""]","[""apple.png""]",PB07.png,,,,,,,,,,,0,6,"[""apple.png""]","[""apple.png""]","[""apple.png""]","[""apple.png""]","[""apple.png""]","[""apple.png""]",blank.png,PB18.png,PB18.png,"[""apple.png""]",blank.png,blank.png,blank.png,blank.png,blank.png,"[""apple.png""]","[""apple.png""]","[""apple.png""]","[""apple.png""]","[""apple.png""]","[""apple.png""]",1,"[""chocolate_truffle.png""]",blank.png,blank.png,blank.png,1,"[""apple.png""]",blank.png,blank.png,blank.png,blank.png,blank.png,PB07.png,,,,,,,,,,,1,,,,,,,,,,,,393.5290000019013,,response,,,,,,,,,,,,,3,,,,,,,,,,,,,,,,,,,,,,,,,,,,,,,,,,,,,,,,,,,,,,,,,,,,,,,,,"[""apple.png""]","[""chocolate_truffle.png""]",,,,5,right,keydown(ArrowRight),false,,1,,,,,,,381092.84000000113,381089.9300000019,378847.373,380608.5100000019,380696.401,382828.646,,5,,
square,canvas.Screen,2_4_2_6_1_0_0_0_0_4_3,2021-01-14T18:59:56.741Z,,,blank.png,"[""chocolate_truffle.png""]",blank.png,blank.png,blank.png,blank.png,blank.png,blank.png,blank.png,blank.png,blank.png,blank.png,blank.png,,,,,,,,,,,,,,,,,,,,,,,,,,,,,"[""chocolate_truffle.png""]","[""apple.png""]",PB07.png,,,,,,,,,,,0,6,"[""apple.png""]","[""apple.png""]","[""apple.png""]","[""apple.png""]","[""apple.png""]","[""apple.png""]",blank.png,PB18.png,PB18.png,"[""apple.png""]",blank.png,blank.png,blank.png,blank.png,blank.png,"[""apple.png""]","[""apple.png""]","[""apple.png""]","[""apple.png""]","[""apple.png""]","[""apple.png""]",1,"[""chocolate_truffle.png""]",blank.png,blank.png,blank.png,1,"[""apple.png""]",blank.png,blank.png,blank.png,blank.png,blank.png,PB07.png,,,,,,,,,,,1,,#808080,#33ff3f,,,,,,,,,999.6730000000098,,timeout,,,,,,,,,,,,,3,,,,,,,,,,,,,,,,,,,,,,,,,,,,,,,,,,,,,,,,,,,,,,,,,,,,,,,,,"[""apple.png""]","[""chocolate_truffle.png""]",,,,5,,,false,,1,,,,,white,black,383813.0850000016,383811.589,382795.77,382798.9750000015,382828.646,383828.319,,,,
ITI_late,canvas.Screen,2_4_2_6_1_0_0_0_0_4_4,2021-01-14T18:59:57.991Z,,,blank.png,"[""chocolate_truffle.png""]",blank.png,blank.png,blank.png,blank.png,blank.png,blank.png,blank.png,blank.png,blank.png,blank.png,blank.png,,,,,,,,,,,,,,,,,,,,,,,,,,,,,"[""chocolate_truffle.png""]","[""apple.png""]",PB07.png,,,,,,,,,,,0,6,"[""apple.png""]","[""apple.png""]","[""apple.png""]","[""apple.png""]","[""apple.png""]","[""apple.png""]",blank.png,PB18.png,PB18.png,"[""apple.png""]",blank.png,blank.png,blank.png,blank.png,blank.png,"[""apple.png""]","[""apple.png""]","[""apple.png""]","[""apple.png""]","[""apple.png""]","[""apple.png""]",1,"[""chocolate_truffle.png""]",blank.png,blank.png,blank.png,1,"[""apple.png""]",blank.png,blank.png,blank.png,blank.png,blank.png,PB07.png,,,,,,,,,,,1,,,,,,,,,,,,1249.2579999999725,,timeout,,,,,,,,,,,,white,3,,,,,,,,,,,,,,,,,,,,,,,,,,,,,,,,,,,,,,,,,,,,,,,,,,,,,,,,,"[""apple.png""]","[""chocolate_truffle.png""]",,,,5,,,false,,1,,,,,,,385062.34500000207,385060.965,383811.589,383819.62000000203,383828.319,385077.577,,,,
choice_sequence,flow.Sequence,2_4_2_6_1_0_0_0_0_4,2021-01-14T18:59:57.992Z,,,blank.png,"[""chocolate_truffle.png""]",blank.png,blank.png,blank.png,blank.png,blank.png,blank.png,blank.png,blank.png,blank.png,blank.png,blank.png,,,,,,,,,,,,,,,,,,,,,,,,,,,,,"[""chocolate_truffle.png""]","[""apple.png""]",PB07.png,,,,,,,,,,,0,6,"[""apple.png""]","[""apple.png""]","[""apple.png""]","[""apple.png""]","[""apple.png""]","[""apple.png""]",blank.png,PB18.png,PB18.png,"[""apple.png""]",blank.png,blank.png,blank.png,blank.png,blank.png,"[""apple.png""]","[""apple.png""]","[""apple.png""]","[""apple.png""]","[""apple.png""]","[""apple.png""]",1,"[""chocolate_truffle.png""]",blank.png,blank.png,blank.png,1,"[""apple.png""]",blank.png,blank.png,blank.png,blank.png,blank.png,PB07.png,,,,,,,,,,,1,,,,,,,,,,,,9028.964000000036,,completion,,,,,,,,,,,,,3,,,,,,,,,,,,,,,,,,,,,,,,,,,,,,,,,,,,,,,,,,,,,,,,,,,,,,,,,"[""apple.png""]","[""chocolate_truffle.png""]",,,,5,,,false,,1,,,,,,,385063.88499999954,385060.965,376015.339,376030.8949999999,376032.001,385077.577,,,,
fixCross,canvas.Screen,2_4_2_6_1_0_0_0_0_5_0,2021-01-14T18:59:58.390Z,,,blank.png,"[""chocolate_truffle.png""]",blank.png,blank.png,blank.png,blank.png,blank.png,blank.png,blank.png,blank.png,blank.png,blank.png,blank.png,,,,,,,,,,,,,,,,,,,,,,,,,,,,,"[""chocolate_truffle.png""]","[""apple.png""]",PB15.png,,,,,,,,,,,0,6,"[""apple.png""]","[""apple.png""]","[""apple.png""]","[""apple.png""]","[""apple.png""]","[""apple.png""]",blank.png,PB18.png,PB18.png,"[""apple.png""]","[""apple.png""]","[""apple.png""]","[""apple.png""]",blank.png,blank.png,"[""apple.png""]","[""apple.png""]","[""apple.png""]","[""apple.png""]","[""apple.png""]","[""apple.png""]",1,"[""chocolate_truffle.png""]",blank.png,blank.png,blank.png,4,"[""apple.png""]","[""apple.png""]","[""apple.png""]","[""apple.png""]",blank.png,blank.png,PB15.png,,,,,,,,,,,1,,,,,,,,,,,,2365.4700000000303,,timeout,,,,,,,,,,,,,3,,,,,,,,,,,,,,,,,,,,,,,,,,,,,,,,,,,,,,,,,,,,,,,,,,,,,,,,,"[""apple.png""]","[""chocolate_truffle.png""]",,,,5,,,false,,1,,,,,,,385462.01500000095,385460.706,385060.965,385079.15499999945,385077.577,387443.047,6,,,
timeout,canvas.Screen,2_4_2_6_1_0_0_0_0_5_1,2021-01-14T19:00:00.856Z,,,blank.png,"[""chocolate_truffle.png""]",blank.png,blank.png,blank.png,blank.png,blank.png,blank.png,blank.png,blank.png,blank.png,blank.png,blank.png,,,,,,,,,,,,,,,,,,,,,,,,,,,,,"[""chocolate_truffle.png""]","[""apple.png""]",PB15.png,,,,,,,,,,,0,6,"[""apple.png""]","[""apple.png""]","[""apple.png""]","[""apple.png""]","[""apple.png""]","[""apple.png""]",blank.png,PB18.png,PB18.png,"[""apple.png""]","[""apple.png""]","[""apple.png""]","[""apple.png""]",blank.png,blank.png,"[""apple.png""]","[""apple.png""]","[""apple.png""]","[""apple.png""]","[""apple.png""]","[""apple.png""]",1,"[""chocolate_truffle.png""]",blank.png,blank.png,blank.png,4,"[""apple.png""]","[""apple.png""]","[""apple.png""]","[""apple.png""]",blank.png,blank.png,PB15.png,,,,,,,,,,,1,,,,,,,,,,,,2615.4619999999995,,timeout,,,,,,,,,,,,,3,,,,,,,,,,,,,,,,,,,,,,,,,,,,,,,,,,,,,,,,,,,,,,,,,,,,,,,,,"[""apple.png""]","[""chocolate_truffle.png""]",,,,5,,,false,,1,,,,,,,387927.5650000018,387926.243,385460.706,387459.60000000196,387443.047,390058.509,,,,
choice,canvas.Screen,2_4_2_6_1_0_0_0_0_5_2,2021-01-14T19:00:03.001Z,,,blank.png,"[""chocolate_truffle.png""]",blank.png,blank.png,blank.png,blank.png,blank.png,blank.png,blank.png,blank.png,blank.png,blank.png,blank.png,,,,,,,,,,,,,,,,,,,,,,,,,,,,,"[""chocolate_truffle.png""]","[""apple.png""]",PB15.png,,,,,,,,,,,0,6,"[""apple.png""]","[""apple.png""]","[""apple.png""]","[""apple.png""]","[""apple.png""]","[""apple.png""]",blank.png,PB18.png,PB18.png,"[""apple.png""]","[""apple.png""]","[""apple.png""]","[""apple.png""]",blank.png,blank.png,"[""apple.png""]","[""apple.png""]","[""apple.png""]","[""apple.png""]","[""apple.png""]","[""apple.png""]",1,"[""chocolate_truffle.png""]",blank.png,blank.png,blank.png,4,"[""apple.png""]","[""apple.png""]","[""apple.png""]","[""apple.png""]",blank.png,blank.png,PB15.png,,,,,,,,,,,1,,,,,,,,,,,,1469.1220000003232,,response,,,,,,,,,,,,,3,,,,,,,,,,,,,,,,,,,,,,,,,,,,,,,,,,,,,,,,,,,,,,,,,,,,,,,,,"[""apple.png""]","[""chocolate_truffle.png""]",,,,5,left,keydown(ArrowLeft),false,,1,,,,,,,390072.29000000004,389395.36500000034,387926.243,389955.89499999915,,392090.828,,6,,
square,canvas.Screen,2_4_2_6_1_0_0_0_0_5_3,2021-01-14T19:00:06.003Z,,,blank.png,"[""chocolate_truffle.png""]",blank.png,blank.png,blank.png,blank.png,blank.png,blank.png,blank.png,blank.png,blank.png,blank.png,blank.png,,,,,,,,,,,,,,,,,,,,,,,,,,,,,"[""chocolate_truffle.png""]","[""apple.png""]",PB15.png,,,,,,,,,,,0,6,"[""apple.png""]","[""apple.png""]","[""apple.png""]","[""apple.png""]","[""apple.png""]","[""apple.png""]",blank.png,PB18.png,PB18.png,"[""apple.png""]","[""apple.png""]","[""apple.png""]","[""apple.png""]",blank.png,blank.png,"[""apple.png""]","[""apple.png""]","[""apple.png""]","[""apple.png""]","[""apple.png""]","[""apple.png""]",1,"[""chocolate_truffle.png""]",blank.png,blank.png,blank.png,4,"[""apple.png""]","[""apple.png""]","[""apple.png""]","[""apple.png""]",blank.png,blank.png,PB15.png,,,,,,,,,,,1,,#33ff3f,#808080,,,,,,,,,999.505999999994,,timeout,,,,,,,,,,,,,3,,,,,,,,,,,,,,,,,,,,,,,,,,,,,,,,,,,,,,,,,,,,,,,,,,,,,,,,,"[""apple.png""]","[""chocolate_truffle.png""]",,,,5,,,false,,1,,,,,black,white,393075.1600000003,393073.723,390058.509,392055.73000000004,392090.828,393090.334,,,,
ITI_late,canvas.Screen,2_4_2_6_1_0_0_0_0_5_4,2021-01-14T19:00:07.003Z,,,blank.png,"[""chocolate_truffle.png""]",blank.png,blank.png,blank.png,blank.png,blank.png,blank.png,blank.png,blank.png,blank.png,blank.png,blank.png,,,,,,,,,,,,,,,,,,,,,,,,,,,,,"[""chocolate_truffle.png""]","[""apple.png""]",PB15.png,,,,,,,,,,,0,6,"[""apple.png""]","[""apple.png""]","[""apple.png""]","[""apple.png""]","[""apple.png""]","[""apple.png""]",blank.png,PB18.png,PB18.png,"[""apple.png""]","[""apple.png""]","[""apple.png""]","[""apple.png""]",blank.png,blank.png,"[""apple.png""]","[""apple.png""]","[""apple.png""]","[""apple.png""]","[""apple.png""]","[""apple.png""]",1,"[""chocolate_truffle.png""]",blank.png,blank.png,blank.png,4,"[""apple.png""]","[""apple.png""]","[""apple.png""]","[""apple.png""]",blank.png,blank.png,PB15.png,,,,,,,,,,,1,,,,,,,,,,,,999.5060000000522,,timeout,,,,,,,,,,,,white,3,,,,,,,,,,,,,,,,,,,,,,,,,,,,,,,,,,,,,,,,,,,,,,,,,,,,,,,,,"[""apple.png""]","[""chocolate_truffle.png""]",,,,5,,,false,,1,,,,,,,394074.59500000183,394073.243,393073.723,393080.90000000084,393090.334,394089.84,,,,
choice_sequence,flow.Sequence,2_4_2_6_1_0_0_0_0_5,2021-01-14T19:00:07.004Z,,,blank.png,"[""chocolate_truffle.png""]",blank.png,blank.png,blank.png,blank.png,blank.png,blank.png,blank.png,blank.png,blank.png,blank.png,blank.png,,,,,,,,,,,,,,,,,,,,,,,,,,,,,"[""chocolate_truffle.png""]","[""apple.png""]",PB15.png,,,,,,,,,,,0,6,"[""apple.png""]","[""apple.png""]","[""apple.png""]","[""apple.png""]","[""apple.png""]","[""apple.png""]",blank.png,PB18.png,PB18.png,"[""apple.png""]","[""apple.png""]","[""apple.png""]","[""apple.png""]",blank.png,blank.png,"[""apple.png""]","[""apple.png""]","[""apple.png""]","[""apple.png""]","[""apple.png""]","[""apple.png""]",1,"[""chocolate_truffle.png""]",blank.png,blank.png,blank.png,4,"[""apple.png""]","[""apple.png""]","[""apple.png""]","[""apple.png""]",blank.png,blank.png,PB15.png,,,,,,,,,,,1,,,,,,,,,,,,8995.666000000027,,completion,,,,,,,,,,,,,3,,,,,,,,,,,,,,,,,,,,,,,,,,,,,,,,,,,,,,,,,,,,,,,,,,,,,,,,,"[""apple.png""]","[""chocolate_truffle.png""]",,,,5,,,false,,1,,,,,,,394076.15499999886,394073.243,385060.965,385075.91999999934,385077.577,394089.84,,,,
fixCross,canvas.Screen,2_4_2_6_1_0_0_0_0_6_0,2021-01-14T19:00:07.353Z,,,blank.png,blank.png,blank.png,blank.png,blank.png,blank.png,blank.png,"[""chocolate_truffle.png""]",blank.png,blank.png,blank.png,blank.png,blank.png,,,,,,,,,,,,,,,,,,,,,,,,,,,,,"[""chocolate_truffle.png""]","[""apple.png""]",PB18.png,,,,,,,,,,,0,6,"[""apple.png""]","[""apple.png""]","[""apple.png""]","[""apple.png""]","[""apple.png""]","[""apple.png""]",blank.png,PB18.png,PB16.png,"[""apple.png""]","[""apple.png""]","[""apple.png""]","[""apple.png""]","[""apple.png""]","[""apple.png""]","[""apple.png""]","[""apple.png""]","[""apple.png""]","[""apple.png""]","[""apple.png""]",blank.png,1,"[""chocolate_truffle.png""]",blank.png,blank.png,blank.png,5,"[""apple.png""]","[""apple.png""]","[""apple.png""]","[""apple.png""]","[""apple.png""]",blank.png,PB16.png,,,,,,,,,,,1,,,,,,,,,,,,2415.4649999999674,,timeout,,,,,,,,,,,,,4,,,,,,,,,,,,,,,,,,,,,,,,,,,,,,,,,,,,,,,,,,,,,,,,,,,,,,,,,"[""apple.png""]","[""chocolate_truffle.png""]",,,,5,,,false,,1,,,,,,,394424.4949999993,394423.069,394073.243,394092.41499999916,394089.84,396505.305,7,,,
timeout,canvas.Screen,2_4_2_6_1_0_0_0_0_6_1,2021-01-14T19:00:09.918Z,,,blank.png,blank.png,blank.png,blank.png,blank.png,blank.png,blank.png,"[""chocolate_truffle.png""]",blank.png,blank.png,blank.png,blank.png,blank.png,,,,,,,,,,,,,,,,,,,,,,,,,,,,,"[""chocolate_truffle.png""]","[""apple.png""]",PB18.png,,,,,,,,,,,0,6,"[""apple.png""]","[""apple.png""]","[""apple.png""]","[""apple.png""]","[""apple.png""]","[""apple.png""]",blank.png,PB18.png,PB16.png,"[""apple.png""]","[""apple.png""]","[""apple.png""]","[""apple.png""]","[""apple.png""]","[""apple.png""]","[""apple.png""]","[""apple.png""]","[""apple.png""]","[""apple.png""]","[""apple.png""]",blank.png,1,"[""chocolate_truffle.png""]",blank.png,blank.png,blank.png,5,"[""apple.png""]","[""apple.png""]","[""apple.png""]","[""apple.png""]","[""apple.png""]",blank.png,PB16.png,,,,,,,,,,,1,,,,,,,,,,,,2598.728000000003,,timeout,,,,,,,,,,,,,4,,,,,,,,,,,,,,,,,,,,,,,,,,,,,,,,,,,,,,,,,,,,,,,,,,,,,,,,,"[""apple.png""]","[""chocolate_truffle.png""]",,,,5,,,false,,1,,,,,,,396989.8849999991,396988.464,394423.069,396520.1449999986,396505.305,399104.033,,,,
choice,canvas.Screen,2_4_2_6_1_0_0_0_0_6_2,2021-01-14T19:00:12.696Z,,,blank.png,blank.png,blank.png,blank.png,blank.png,blank.png,blank.png,"[""chocolate_truffle.png""]",blank.png,blank.png,blank.png,blank.png,blank.png,,,,,,,,,,,,,,,,,,,,,,,,,,,,,"[""chocolate_truffle.png""]","[""apple.png""]",PB18.png,,,,,,,,,,,0,6,"[""apple.png""]","[""apple.png""]","[""apple.png""]","[""apple.png""]","[""apple.png""]","[""apple.png""]",blank.png,PB18.png,PB16.png,"[""apple.png""]","[""apple.png""]","[""apple.png""]","[""apple.png""]","[""apple.png""]","[""apple.png""]","[""apple.png""]","[""apple.png""]","[""apple.png""]","[""apple.png""]","[""apple.png""]",blank.png,1,"[""chocolate_truffle.png""]",blank.png,blank.png,blank.png,5,"[""apple.png""]","[""apple.png""]","[""apple.png""]","[""apple.png""]","[""apple.png""]",blank.png,PB16.png,,,,,,,,,,,1,,,,,,,,,,,,653.3420000010519,,response,,,,,,,,,,,,,4,,,,,,,,,,,,,,,,,,,,,,,,,,,,,,,,,,,,,,,,,,,,,,,,,,,,,,,,,"[""apple.png""]","[""chocolate_truffle.png""]",,,,5,right,keydown(ArrowRight),false,,1,,,,,,,399767.55500000215,399757.37500000105,396988.464,399075.8349999996,399104.033,401886.031,,7,,
square,canvas.Screen,2_4_2_6_1_0_0_0_0_6_3,2021-01-14T19:00:15.798Z,,,blank.png,blank.png,blank.png,blank.png,blank.png,blank.png,blank.png,"[""chocolate_truffle.png""]",blank.png,blank.png,blank.png,blank.png,blank.png,,,,,,,,,,,,,,,,,,,,,,,,,,,,,"[""chocolate_truffle.png""]","[""apple.png""]",PB18.png,,,,,,,,,,,0,6,"[""apple.png""]","[""apple.png""]","[""apple.png""]","[""apple.png""]","[""apple.png""]","[""apple.png""]",blank.png,PB18.png,PB16.png,"[""apple.png""]","[""apple.png""]","[""apple.png""]","[""apple.png""]","[""apple.png""]","[""apple.png""]","[""apple.png""]","[""apple.png""]","[""apple.png""]","[""apple.png""]","[""apple.png""]",blank.png,1,"[""chocolate_truffle.png""]",blank.png,blank.png,blank.png,5,"[""apple.png""]","[""apple.png""]","[""apple.png""]","[""apple.png""]","[""apple.png""]",blank.png,PB16.png,,,,,,,,,,,1,,#808080,#33ff3f,,,,,,,,,999.5169999999925,,timeout,,,,,,,,,,,,,4,,,,,,,,,,,,,,,,,,,,,,,,,,,,,,,,,,,,,,,,,,,,,,,,,,,,,,,,,"[""apple.png""]","[""chocolate_truffle.png""]",,,,5,,,false,,1,,,,,white,black,402870.27500000113,402868.892,401769.863,401778.16000000166,401886.031,402885.548,,,,
ITI_late,canvas.Screen,2_4_2_6_1_0_0_0_0_6_4,2021-01-14T19:00:16.548Z,,,blank.png,blank.png,blank.png,blank.png,blank.png,blank.png,blank.png,"[""chocolate_truffle.png""]",blank.png,blank.png,blank.png,blank.png,blank.png,,,,,,,,,,,,,,,,,,,,,,,,,,,,,"[""chocolate_truffle.png""]","[""apple.png""]",PB18.png,,,,,,,,,,,0,6,"[""apple.png""]","[""apple.png""]","[""apple.png""]","[""apple.png""]","[""apple.png""]","[""apple.png""]",blank.png,PB18.png,PB16.png,"[""apple.png""]","[""apple.png""]","[""apple.png""]","[""apple.png""]","[""apple.png""]","[""apple.png""]","[""apple.png""]","[""apple.png""]","[""apple.png""]","[""apple.png""]","[""apple.png""]",blank.png,1,"[""chocolate_truffle.png""]",blank.png,blank.png,blank.png,5,"[""apple.png""]","[""apple.png""]","[""apple.png""]","[""apple.png""]","[""apple.png""]",blank.png,PB16.png,,,,,,,,,,,1,,,,,,,,,,,,849.5839999999735,,timeout,,,,,,,,,,,,white,4,,,,,,,,,,,,,,,,,,,,,,,,,,,,,,,,,,,,,,,,,,,,,,,,,,,,,,,,,"[""apple.png""]","[""chocolate_truffle.png""]",,,,5,,,false,,1,,,,,,,403619.87500000035,403618.502,402868.892,402876.60500000126,402885.548,403735.132,,,,
choice_sequence,flow.Sequence,2_4_2_6_1_0_0_0_0_6,2021-01-14T19:00:16.550Z,,,blank.png,blank.png,blank.png,blank.png,blank.png,blank.png,blank.png,"[""chocolate_truffle.png""]",blank.png,blank.png,blank.png,blank.png,blank.png,,,,,,,,,,,,,,,,,,,,,,,,,,,,,"[""chocolate_truffle.png""]","[""apple.png""]",PB18.png,,,,,,,,,,,0,6,"[""apple.png""]","[""apple.png""]","[""apple.png""]","[""apple.png""]","[""apple.png""]","[""apple.png""]",blank.png,PB18.png,PB16.png,"[""apple.png""]","[""apple.png""]","[""apple.png""]","[""apple.png""]","[""apple.png""]","[""apple.png""]","[""apple.png""]","[""apple.png""]","[""apple.png""]","[""apple.png""]","[""apple.png""]",blank.png,1,"[""chocolate_truffle.png""]",blank.png,blank.png,blank.png,5,"[""apple.png""]","[""apple.png""]","[""apple.png""]","[""apple.png""]","[""apple.png""]",blank.png,PB16.png,,,,,,,,,,,1,,,,,,,,,,,,9528.661999999953,,completion,,,,,,,,,,,,,4,,,,,,,,,,,,,,,,,,,,,,,,,,,,,,,,,,,,,,,,,,,,,,,,,,,,,,,,,"[""apple.png""]","[""chocolate_truffle.png""]",,,,5,,,false,,1,,,,,,,403621.8799999988,403618.502,394073.243,394089.1699999993,394089.84,403735.132,,,,
choice_loop,flow.Loop,2_4_2_6_1_0_0_0_0,2021-01-14T19:00:16.551Z,,,,,,,,,,,,,,,,,,,,,,,,,,,,,,,,,,,,,,,,,,,,"[""chocolate_truffle.png""]","[""apple.png""]",,,,,,,,,,,,,,,,,,,,,,,,,,,,,,,,,,,,,,,,,,,,,,,,,,,,,,,,,,,,,,,,,,,,,,64218.53699999995,,completion,,,,,,,,,,,,,,,,,,,,,,,,,,,,,,,,,,,,,,,,,,,,,,,,,,,,,,,,,,,,,,,,,,,,,,"[""apple.png""]","[""chocolate_truffle.png""]",,,,5,,,false,,,,,,,,,403622.9950000015,403618.502,339249.983,339357.16500000126,339399.965,403735.132,,,,
choice_frame,html.Frame,2_4_2_6_1_0_0_0,2021-01-14T19:00:16.552Z,,,,,,,,,,,,,,,,,,,,,,,,,,,,,,,,,,,,,,,,,,,,,,,,,,,,,,,,,,,,,,,,,,,,,,,,,,,,,,,,,,,,,,,,,,,,,,,,,,,,,,,,,,,,,,,,,,,64223.42999999871,,,,,,,,,,,,,,,,,,,,,,,,,,,,,,,,,,,,,,,,,,,,,,,,,,,,,,,,,,,,,,,,,,,,,,,,,,,,,5,,,false,,,,,,,,,403623.8650000014,403623.39499999874,339249.983,339251.7150000022,339399.965,403751.831,,,,
sublock_1,flow.Sequence,2_4_2_6_1_0_0,2021-01-14T19:00:16.553Z,,,,,,,,,,,,,,,,,,,,,,,,,,,,,,,,,,,,,,,,,,,,,,,,,,,,,,,,,,,,,,,,,,,,,,,,,,,,,,,,,,,,,,,,,,,,,,,,,,,,,,,,,,,,,,,,,,,64223.42999999871,,completion,,,,,,,,,,,,,,,,,,,,,,,,,,,,,,,,,,,,,,,,,,,,,,,,,,,,,,,,,,,,,,,,,,,,,,,,,,,5,,,false,,,,,,,,,403624.6050000009,403623.39499999874,339249.983,339251.60500000126,339399.965,403751.831,,,,
fixCross,canvas.Screen,2_4_2_6_1_0_1_0_0_0_0,2021-01-14T19:00:17.065Z,,,blank.png,blank.png,blank.png,blank.png,blank.png,blank.png,blank.png,"[""chocolate_truffle.png""]",blank.png,blank.png,blank.png,blank.png,blank.png,,,,,,,,,,,,,,,,,,,,,,,,,,,,,"[""chocolate_truffle.png""]","[""apple.png""]",PB18.png,,,,,,,,,,,0,6,"[""apple.png""]","[""apple.png""]","[""apple.png""]","[""apple.png""]","[""apple.png""]","[""apple.png""]",blank.png,PB18.png,PB17.png,"[""apple.png""]","[""apple.png""]","[""apple.png""]","[""apple.png""]","[""apple.png""]","[""apple.png""]","[""apple.png""]","[""apple.png""]","[""apple.png""]","[""apple.png""]","[""apple.png""]","[""apple.png""]",1,"[""chocolate_truffle.png""]",blank.png,blank.png,blank.png,6,"[""apple.png""]","[""apple.png""]","[""apple.png""]","[""apple.png""]","[""apple.png""]","[""apple.png""]",PB17.png,,,,,,,,,,,1,,,,,,,,,,,,2582.033999999985,,timeout,,,,,,,,,,,,,4,,,,,,,,,,,,,,,,,,,,,,,,,,,,,,,,,,,,,,,,,,,,,,,,,,,,,,,,,"[""apple.png""]","[""chocolate_truffle.png""]",,,,2,,,false,,1,,,,,,,404136.5050000022,404134.999,403735.132,403733.08499999985,403751.831,406333.865,8,,,
timeout,canvas.Screen,2_4_2_6_1_0_1_0_0_0_1,2021-01-14T19:00:19.747Z,,,blank.png,blank.png,blank.png,blank.png,blank.png,blank.png,blank.png,"[""chocolate_truffle.png""]",blank.png,blank.png,blank.png,blank.png,blank.png,,,,,,,,,,,,,,,,,,,,,,,,,,,,,"[""chocolate_truffle.png""]","[""apple.png""]",PB18.png,,,,,,,,,,,0,6,"[""apple.png""]","[""apple.png""]","[""apple.png""]","[""apple.png""]","[""apple.png""]","[""apple.png""]",blank.png,PB18.png,PB17.png,"[""apple.png""]","[""apple.png""]","[""apple.png""]","[""apple.png""]","[""apple.png""]","[""apple.png""]","[""apple.png""]","[""apple.png""]","[""apple.png""]","[""apple.png""]","[""apple.png""]","[""apple.png""]",1,"[""chocolate_truffle.png""]",blank.png,blank.png,blank.png,6,"[""apple.png""]","[""apple.png""]","[""apple.png""]","[""apple.png""]","[""apple.png""]","[""apple.png""]",PB17.png,,,,,,,,,,,1,,,,,,,,,,,,2698.619000000006,,timeout,,,,,,,,,,,,,4,,,,,,,,,,,,,,,,,,,,,,,,,,,,,,,,,,,,,,,,,,,,,,,,,,,,,,,,,"[""apple.png""]","[""chocolate_truffle.png""]",,,,2,,,false,,1,,,,,,,406818.45500000054,406816.983,404134.999,406255.2849999993,406333.865,409032.484,,,,
choice,canvas.Screen,2_4_2_6_1_0_1_0_0_0_2,2021-01-14T19:00:22.440Z,,,blank.png,blank.png,blank.png,blank.png,blank.png,blank.png,blank.png,"[""chocolate_truffle.png""]",blank.png,blank.png,blank.png,blank.png,blank.png,,,,,,,,,,,,,,,,,,,,,,,,,,,,,"[""chocolate_truffle.png""]","[""apple.png""]",PB18.png,,,,,,,,,,,0,6,"[""apple.png""]","[""apple.png""]","[""apple.png""]","[""apple.png""]","[""apple.png""]","[""apple.png""]",blank.png,PB18.png,PB17.png,"[""apple.png""]","[""apple.png""]","[""apple.png""]","[""apple.png""]","[""apple.png""]","[""apple.png""]","[""apple.png""]","[""apple.png""]","[""apple.png""]","[""apple.png""]","[""apple.png""]","[""apple.png""]",1,"[""chocolate_truffle.png""]",blank.png,blank.png,blank.png,6,"[""apple.png""]","[""apple.png""]","[""apple.png""]","[""apple.png""]","[""apple.png""]","[""apple.png""]",PB17.png,,,,,,,,,,,1,,,,,,,,,,,,476.67099999974016,,response,,,,,,,,,,,,,4,,,,,,,,,,,,,,,,,,,,,,,,,,,,,,,,,,,,,,,,,,,,,,,,,,,,,,,,,"[""apple.png""]","[""chocolate_truffle.png""]",,,,2,right,keydown(ArrowRight),false,,1,,,,,,,409511.5699999988,409509.15499999974,406816.983,409003.7550000015,409032.484,411764.507,,8,,
square,canvas.Screen,2_4_2_6_1_0_1_0_0_0_3,2021-01-14T19:00:25.677Z,,,blank.png,blank.png,blank.png,blank.png,blank.png,blank.png,blank.png,"[""chocolate_truffle.png""]",blank.png,blank.png,blank.png,blank.png,blank.png,,,,,,,,,,,,,,,,,,,,,,,,,,,,,"[""chocolate_truffle.png""]","[""apple.png""]",PB18.png,,,,,,,,,,,0,6,"[""apple.png""]","[""apple.png""]","[""apple.png""]","[""apple.png""]","[""apple.png""]","[""apple.png""]",blank.png,PB18.png,PB17.png,"[""apple.png""]","[""apple.png""]","[""apple.png""]","[""apple.png""]","[""apple.png""]","[""apple.png""]","[""apple.png""]","[""apple.png""]","[""apple.png""]","[""apple.png""]","[""apple.png""]","[""apple.png""]",1,"[""chocolate_truffle.png""]",blank.png,blank.png,blank.png,6,"[""apple.png""]","[""apple.png""]","[""apple.png""]","[""apple.png""]","[""apple.png""]","[""apple.png""]",PB17.png,,,,,,,,,,,1,,#808080,#33ff3f,,,,,,,,,999.5310000000172,,timeout,,,,,,,,,,,,,4,,,,,,,,,,,,,,,,,,,,,,,,,,,,,,,,,,,,,,,,,,,,,,,,,,,,,,,,,"[""apple.png""]","[""chocolate_truffle.png""]",,,,2,,,false,,1,,,,,white,black,412748.8850000009,412747.429,411665.004,411674.9899999995,411764.507,412764.038,,,,
ITI_late,canvas.Screen,2_4_2_6_1_0_1_0_0_0_4,2021-01-14T19:00:25.929Z,,,blank.png,blank.png,blank.png,blank.png,blank.png,blank.png,blank.png,"[""chocolate_truffle.png""]",blank.png,blank.png,blank.png,blank.png,blank.png,,,,,,,,,,,,,,,,,,,,,,,,,,,,,"[""chocolate_truffle.png""]","[""apple.png""]",PB18.png,,,,,,,,,,,0,6,"[""apple.png""]","[""apple.png""]","[""apple.png""]","[""apple.png""]","[""apple.png""]","[""apple.png""]",blank.png,PB18.png,PB17.png,"[""apple.png""]","[""apple.png""]","[""apple.png""]","[""apple.png""]","[""apple.png""]","[""apple.png""]","[""apple.png""]","[""apple.png""]","[""apple.png""]","[""apple.png""]","[""apple.png""]","[""apple.png""]",1,"[""chocolate_truffle.png""]",blank.png,blank.png,blank.png,6,"[""apple.png""]","[""apple.png""]","[""apple.png""]","[""apple.png""]","[""apple.png""]","[""apple.png""]",PB17.png,,,,,,,,,,,1,,,,,,,,,,,,266.5480000000098,,timeout,,,,,,,,,,,,white,4,,,,,,,,,,,,,,,,,,,,,,,,,,,,,,,,,,,,,,,,,,,,,,,,,,,,,,,,,"[""apple.png""]","[""chocolate_truffle.png""]",,,,2,,,false,,1,,,,,,,413000.81000000134,412997.3,412747.429,412755.10000000213,412764.038,413030.586,,,,
choice_sequence,flow.Sequence,2_4_2_6_1_0_1_0_0_0,2021-01-14T19:00:25.934Z,,,blank.png,blank.png,blank.png,blank.png,blank.png,blank.png,blank.png,"[""chocolate_truffle.png""]",blank.png,blank.png,blank.png,blank.png,blank.png,,,,,,,,,,,,,,,,,,,,,,,,,,,,,"[""chocolate_truffle.png""]","[""apple.png""]",PB18.png,,,,,,,,,,,0,6,"[""apple.png""]","[""apple.png""]","[""apple.png""]","[""apple.png""]","[""apple.png""]","[""apple.png""]",blank.png,PB18.png,PB17.png,"[""apple.png""]","[""apple.png""]","[""apple.png""]","[""apple.png""]","[""apple.png""]","[""apple.png""]","[""apple.png""]","[""apple.png""]","[""apple.png""]","[""apple.png""]","[""apple.png""]","[""apple.png""]",1,"[""chocolate_truffle.png""]",blank.png,blank.png,blank.png,6,"[""apple.png""]","[""apple.png""]","[""apple.png""]","[""apple.png""]","[""apple.png""]","[""apple.png""]",PB17.png,,,,,,,,,,,1,,,,,,,,,,,,9245.468999999983,,completion,,,,,,,,,,,,,4,,,,,,,,,,,,,,,,,,,,,,,,,,,,,,,,,,,,,,,,,,,,,,,,,,,,,,,,,"[""apple.png""]","[""chocolate_truffle.png""]",,,,2,,,false,,1,,,,,,,413005.294999999,412997.3,403735.132,403730.0250000007,403751.831,413030.586,,,,
fixCross,canvas.Screen,2_4_2_6_1_0_1_0_0_1_0,2021-01-14T19:00:26.443Z,,,blank.png,"[""chocolate_truffle.png""]",blank.png,blank.png,blank.png,blank.png,blank.png,blank.png,blank.png,blank.png,blank.png,blank.png,blank.png,,,,,,,,,,,,,,,,,,,,,,,,,,,,,"[""chocolate_truffle.png""]","[""apple.png""]",PB01.png,,,,,,,,,,,0,6,"[""apple.png""]","[""apple.png""]","[""apple.png""]","[""apple.png""]","[""apple.png""]","[""apple.png""]",blank.png,PB18.png,PB18.png,blank.png,blank.png,blank.png,blank.png,blank.png,blank.png,"[""apple.png""]","[""apple.png""]","[""apple.png""]","[""apple.png""]","[""apple.png""]","[""apple.png""]",1,"[""chocolate_truffle.png""]",blank.png,blank.png,blank.png,0,blank.png,blank.png,blank.png,blank.png,blank.png,blank.png,PB01.png,,,,,,,,,,,1,,,,,,,,,,,,2132.298999999999,,timeout,,,,,,,,,,,,,3,,,,,,,,,,,,,,,,,,,,,,,,,,,,,,,,,,,,,,,,,,,,,,,,,,,,,,,,,"[""apple.png""]","[""chocolate_truffle.png""]",,,,2,,,false,,1,,,,,,,413514.97500000184,413513.705,412997.3,413028.85500000045,413030.586,415162.885,9,,,
timeout,canvas.Screen,2_4_2_6_1_0_1_0_0_1_1,2021-01-14T19:00:28.576Z,,,blank.png,"[""chocolate_truffle.png""]",blank.png,blank.png,blank.png,blank.png,blank.png,blank.png,blank.png,blank.png,blank.png,blank.png,blank.png,,,,,,,,,,,,,,,,,,,,,,,,,,,,,"[""chocolate_truffle.png""]","[""apple.png""]",PB01.png,,,,,,,,,,,0,6,"[""apple.png""]","[""apple.png""]","[""apple.png""]","[""apple.png""]","[""apple.png""]","[""apple.png""]",blank.png,PB18.png,PB18.png,blank.png,blank.png,blank.png,blank.png,blank.png,blank.png,"[""apple.png""]","[""apple.png""]","[""apple.png""]","[""apple.png""]","[""apple.png""]","[""apple.png""]",1,"[""chocolate_truffle.png""]",blank.png,blank.png,blank.png,0,blank.png,blank.png,blank.png,blank.png,blank.png,blank.png,PB01.png,,,,,,,,,,,1,,,,,,,,,,,,2182.222000000009,,timeout,,,,,,,,,,,,,3,,,,,,,,,,,,,,,,,,,,,,,,,,,,,,,,,,,,,,,,,,,,,,,,,,,,,,,,,"[""apple.png""]","[""chocolate_truffle.png""]",,,,2,,,false,,1,,,,,,,415647.34500000125,415645.989,413513.705,415090.0150000016,415162.885,417345.107,,,,
choice,canvas.Screen,2_4_2_6_1_0_1_0_0_1_2,2021-01-14T19:00:30.675Z,,,blank.png,"[""chocolate_truffle.png""]",blank.png,blank.png,blank.png,blank.png,blank.png,blank.png,blank.png,blank.png,blank.png,blank.png,blank.png,,,,,,,,,,,,,,,,,,,,,,,,,,,,,"[""chocolate_truffle.png""]","[""apple.png""]",PB01.png,,,,,,,,,,,0,6,"[""apple.png""]","[""apple.png""]","[""apple.png""]","[""apple.png""]","[""apple.png""]","[""apple.png""]",blank.png,PB18.png,PB18.png,blank.png,blank.png,blank.png,blank.png,blank.png,blank.png,"[""apple.png""]","[""apple.png""]","[""apple.png""]","[""apple.png""]","[""apple.png""]","[""apple.png""]",1,"[""chocolate_truffle.png""]",blank.png,blank.png,blank.png,0,blank.png,blank.png,blank.png,blank.png,blank.png,blank.png,PB01.png,,,,,,,,,,,1,,,,,,,,,,,,399.3730000011856,,response,,,,,,,,,,,,,3,,,,,,,,,,,,,,,,,,,,,,,,,,,,,,,,,,,,,,,,,,,,,,,,,,,,,,,,,"[""apple.png""]","[""chocolate_truffle.png""]",,,,2,right,keydown(ArrowRight),false,,1,,,,,,,417746.93000000116,417744.4800000012,415645.989,417318.9050000001,417345.107,419460.737,,9,,
square,canvas.Screen,2_4_2_6_1_0_1_0_0_1_3,2021-01-14T19:00:33.373Z,,,blank.png,"[""chocolate_truffle.png""]",blank.png,blank.png,blank.png,blank.png,blank.png,blank.png,blank.png,blank.png,blank.png,blank.png,blank.png,,,,,,,,,,,,,,,,,,,,,,,,,,,,,"[""chocolate_truffle.png""]","[""apple.png""]",PB01.png,,,,,,,,,,,0,6,"[""apple.png""]","[""apple.png""]","[""apple.png""]","[""apple.png""]","[""apple.png""]","[""apple.png""]",blank.png,PB18.png,PB18.png,blank.png,blank.png,blank.png,blank.png,blank.png,blank.png,"[""apple.png""]","[""apple.png""]","[""apple.png""]","[""apple.png""]","[""apple.png""]","[""apple.png""]",1,"[""chocolate_truffle.png""]",blank.png,blank.png,blank.png,0,blank.png,blank.png,blank.png,blank.png,blank.png,blank.png,PB01.png,,,,,,,,,,,1,,#808080,#33ff3f,,,,,,,,,999.6719999999623,,timeout,,,,,,,,,,,,,3,,,,,,,,,,,,,,,,,,,,,,,,,,,,,,,,,,,,,,,,,,,,,,,,,,,,,,,,,"[""apple.png""]","[""chocolate_truffle.png""]",,,,2,,,false,,1,,,,,white,black,420445.0150000012,420443.612,419327.844,419343.4799999995,419460.737,420460.409,,,,
ITI_late,canvas.Screen,2_4_2_6_1_0_1_0_0_1_4,2021-01-14T19:00:34.123Z,,,blank.png,"[""chocolate_truffle.png""]",blank.png,blank.png,blank.png,blank.png,blank.png,blank.png,blank.png,blank.png,blank.png,blank.png,blank.png,,,,,,,,,,,,,,,,,,,,,,,,,,,,,"[""chocolate_truffle.png""]","[""apple.png""]",PB01.png,,,,,,,,,,,0,6,"[""apple.png""]","[""apple.png""]","[""apple.png""]","[""apple.png""]","[""apple.png""]","[""apple.png""]",blank.png,PB18.png,PB18.png,blank.png,blank.png,blank.png,blank.png,blank.png,blank.png,"[""apple.png""]","[""apple.png""]","[""apple.png""]","[""apple.png""]","[""apple.png""]","[""apple.png""]",1,"[""chocolate_truffle.png""]",blank.png,blank.png,blank.png,0,blank.png,blank.png,blank.png,blank.png,blank.png,blank.png,PB01.png,,,,,,,,,,,1,,,,,,,,,,,,749.4899999999907,,timeout,,,,,,,,,,,,white,3,,,,,,,,,,,,,,,,,,,,,,,,,,,,,,,,,,,,,,,,,,,,,,,,,,,,,,,,,"[""apple.png""]","[""chocolate_truffle.png""]",,,,2,,,false,,1,,,,,,,421194.63499999983,421193.303,420443.612,420451.0750000009,420460.409,421209.899,,,,
choice_sequence,flow.Sequence,2_4_2_6_1_0_1_0_0_1,2021-01-14T19:00:34.125Z,,,blank.png,"[""chocolate_truffle.png""]",blank.png,blank.png,blank.png,blank.png,blank.png,blank.png,blank.png,blank.png,blank.png,blank.png,blank.png,,,,,,,,,,,,,,,,,,,,,,,,,,,,,"[""chocolate_truffle.png""]","[""apple.png""]",PB01.png,,,,,,,,,,,0,6,"[""apple.png""]","[""apple.png""]","[""apple.png""]","[""apple.png""]","[""apple.png""]","[""apple.png""]",blank.png,PB18.png,PB18.png,blank.png,blank.png,blank.png,blank.png,blank.png,blank.png,"[""apple.png""]","[""apple.png""]","[""apple.png""]","[""apple.png""]","[""apple.png""]","[""apple.png""]",1,"[""chocolate_truffle.png""]",blank.png,blank.png,blank.png,0,blank.png,blank.png,blank.png,blank.png,blank.png,blank.png,PB01.png,,,,,,,,,,,1,,,,,,,,,,,,8162.717000000004,,completion,,,,,,,,,,,,,3,,,,,,,,,,,,,,,,,,,,,,,,,,,,,,,,,,,,,,,,,,,,,,,,,,,,,,,,,"[""apple.png""]","[""chocolate_truffle.png""]",,,,2,,,false,,1,,,,,,,421196.30999999936,421193.303,412997.3,413025.1849999986,413030.586,421209.899,,,,
fixCross,canvas.Screen,2_4_2_6_1_0_1_0_0_2_0,2021-01-14T19:00:34.872Z,,,blank.png,"[""chocolate_truffle.png""]",blank.png,blank.png,blank.png,blank.png,blank.png,blank.png,blank.png,blank.png,blank.png,blank.png,blank.png,,,,,,,,,,,,,,,,,,,,,,,,,,,,,"[""chocolate_truffle.png""]","[""apple.png""]",PB15.png,,,,,,,,,,,0,6,"[""apple.png""]","[""apple.png""]","[""apple.png""]","[""apple.png""]","[""apple.png""]","[""apple.png""]",blank.png,PB18.png,PB18.png,"[""apple.png""]","[""apple.png""]","[""apple.png""]","[""apple.png""]",blank.png,blank.png,"[""apple.png""]","[""apple.png""]","[""apple.png""]","[""apple.png""]","[""apple.png""]","[""apple.png""]",1,"[""chocolate_truffle.png""]",blank.png,blank.png,blank.png,4,"[""apple.png""]","[""apple.png""]","[""apple.png""]","[""apple.png""]",blank.png,blank.png,PB15.png,,,,,,,,,,,1,,,,,,,,,,,,2798.6330000000307,,timeout,,,,,,,,,,,,,3,,,,,,,,,,,,,,,,,,,,,,,,,,,,,,,,,,,,,,,,,,,,,,,,,,,,,,,,,"[""apple.png""]","[""chocolate_truffle.png""]",,,,2,,,false,,1,,,,,,,421944.2249999993,421942.936,421193.303,421216.56000000075,421209.899,424008.532,10,,,
timeout,canvas.Screen,2_4_2_6_1_0_1_0_0_2_1,2021-01-14T19:00:37.421Z,,,blank.png,"[""chocolate_truffle.png""]",blank.png,blank.png,blank.png,blank.png,blank.png,blank.png,blank.png,blank.png,blank.png,blank.png,blank.png,,,,,,,,,,,,,,,,,,,,,,,,,,,,,"[""chocolate_truffle.png""]","[""apple.png""]",PB15.png,,,,,,,,,,,0,6,"[""apple.png""]","[""apple.png""]","[""apple.png""]","[""apple.png""]","[""apple.png""]","[""apple.png""]",blank.png,PB18.png,PB18.png,"[""apple.png""]","[""apple.png""]","[""apple.png""]","[""apple.png""]",blank.png,blank.png,"[""apple.png""]","[""apple.png""]","[""apple.png""]","[""apple.png""]","[""apple.png""]","[""apple.png""]",1,"[""chocolate_truffle.png""]",blank.png,blank.png,blank.png,4,"[""apple.png""]","[""apple.png""]","[""apple.png""]","[""apple.png""]",blank.png,blank.png,PB15.png,,,,,,,,,,,1,,,,,,,,,,,,2548.7309999999707,,timeout,,,,,,,,,,,,,3,,,,,,,,,,,,,,,,,,,,,,,,,,,,,,,,,,,,,,,,,,,,,,,,,,,,,,,,,"[""apple.png""]","[""chocolate_truffle.png""]",,,,2,,,false,,1,,,,,,,424493.18000000133,424491.7,421942.936,423927.0949999991,424008.532,426557.263,,,,
choice,canvas.Screen,2_4_2_6_1_0_1_0_0_2_2,2021-01-14T19:00:40.248Z,,,blank.png,"[""chocolate_truffle.png""]",blank.png,blank.png,blank.png,blank.png,blank.png,blank.png,blank.png,blank.png,blank.png,blank.png,blank.png,,,,,,,,,,,,,,,,,,,,,,,,,,,,,"[""chocolate_truffle.png""]","[""apple.png""]",PB15.png,,,,,,,,,,,0,6,"[""apple.png""]","[""apple.png""]","[""apple.png""]","[""apple.png""]","[""apple.png""]","[""apple.png""]",blank.png,PB18.png,PB18.png,"[""apple.png""]","[""apple.png""]","[""apple.png""]","[""apple.png""]",blank.png,blank.png,"[""apple.png""]","[""apple.png""]","[""apple.png""]","[""apple.png""]","[""apple.png""]","[""apple.png""]",1,"[""chocolate_truffle.png""]",blank.png,blank.png,blank.png,4,"[""apple.png""]","[""apple.png""]","[""apple.png""]","[""apple.png""]",blank.png,blank.png,PB15.png,,,,,,,,,,,1,,,,,,,,,,,,752.8620000000228,,response,,,,,,,,,,,,,3,,,,,,,,,,,,,,,,,,,,,,,,,,,,,,,,,,,,,,,,,,,,,,,,,,,,,,,,,"[""apple.png""]","[""chocolate_truffle.png""]",,,,2,left,keydown(ArrowLeft),false,,1,,,,,,,427320.12000000034,427310.125,424491.7,426526.16499999934,426557.263,429355.92,,10,,
