sender,sender_type,sender_id,timestamp,meta,,Blank,DownLeft1,DownLeft2,DownLeft3,DownLeft4,DownLeft5,DownLeft6,DownRight1,DownRight2,DownRight3,DownRight4,DownRight5,DownRight6,FoodHabits_Fru_item1,FoodHabits_Fru_item2,FoodHabits_Fru_item3,FoodHabits_Fru_item4,FoodHabits_Fru_item5,FoodHabits_Fru_item6,FoodHabits_Fru_item7,FoodHabits_Meat_item1,FoodHabits_Meat_item2,FoodHabits_Meat_item3,FoodHabits_Meat_item4,FoodHabits_Meat_item5,FoodHabits_Meat_item6,FoodHabits_Meat_item7,FoodHabits_Swe_item1,FoodHabits_Swe_item2,FoodHabits_Swe_item3,FoodHabits_Swe_item4,FoodHabits_Swe_item5,FoodHabits_Swe_item6,FoodHabits_Swe_item7,FoodHabits_Veg_item1,FoodHabits_Veg_item2,FoodHabits_Veg_item3,FoodHabits_Veg_item4,FoodHabits_Veg_item5,FoodHabits_Veg_item6,FoodHabits_Veg_item7,ImgA,ImgB,LeftBar,PSS_item01,PSS_item02,PSS_item03,PSS_item04,PSS_item05,PSS_item06,PSS_item07,PSS_item08,PSS_item09,PSS_item10,RefA,RefB,RefB1,RefB2,RefB3,RefB4,RefB5,RefB6,RefB7,Ref_PB,RightBar,UpLeft1,UpLeft2,UpLeft3,UpLeft4,UpLeft5,UpLeft6,UpRight1,UpRight2,UpRight3,UpRight4,UpRight5,UpRight6,VarA,VarA1,VarA2,VarA3,VarA4,VarB,VarB1,VarB2,VarB3,VarB4,VarB5,VarB6,Var_PB,attCheck_fileA,attCheck_fileB,attCheck_fileC,attCheck_fileD,attCheck_options,attCheck_valueA,attCheck_valueB,attCheck_valueC,attCheck_valueD,attention_check,block,browser_name,choseL,choseR,consent_form1,consent_form2,consentconfirmation_form1,consentconfirmation_form2,correct,correctResponse,diet,disorder,duration,edu,ended_on,enjoy,full_version,gender,group,hunger,img,imgTask,input_age,input_meal,input_occ,input_remark,lateRespFeed,list,major_version,message,mixQ_item1,mixQ_item2,mixQ_item3,mixQ_item4,mixQ_item5,name,navigator_appName,navigator_userAgent,os,pracQ1_IDa,pracQ1_IDb,pracQ1_IDc,pracQ1_IDd,pracQ1_optionA,pracQ1_optionB,pracQ1_optionC,pracQ1_optionD,pracQ1_valueA,pracQ1_valueB,pracQ1_valueC,pracQ1_valueD,pracQ2_IDa,pracQ2_IDb,pracQ2_IDc,pracQ2_optionA,pracQ2_optionB,pracQ2_optionC,pracQ2_valueA,pracQ2_valueB,pracQ2_valueC,pracQ4_IDa,pracQ4_IDb,pracQ4_IDc,pracQ4_IDd,pracQ4_optionA,pracQ4_optionB,pracQ4_optionC,pracQ4_optionD,pracQ4_valueA,pracQ4_valueB,pracQ4_valueC,pracQ4_valueD,pracQ5_IDa,pracQ5_IDb,pracQ5_IDc,pracQ5_IDd,pracQ5_optionA,pracQ5_optionB,pracQ5_optionC,pracQ5_optionD,pracQ5_valueA,pracQ5_valueB,pracQ5_valueC,pracQ5_valueD,prefHealty,prefUnhealthy,rep,response,response_action,skip,snack,sublock,subtitle,task_difficulty,task_engagement,task_focus,textL,textR,time_commit,time_end,time_render,time_run,time_show,time_switch,trial_count,trial_countO,url,valence
Title,html.Page,0,2021-01-14T18:54:29.352Z,"{""labjs_version"":""20.1.1"",""labjs_build"":{""flavor"":""production"",""commit"":""c48ac4ada3769e8d34489594ab03097d5f256ac7""},""location"":""https://run.pavlovia.org/E3lab/rebund/html/?hunger=2&input_meal=2"",""userAgent"":""Mozilla/5.0 (Windows NT 10.0; Win64; x64) AppleWebKit/537.36 (KHTML, like Gecko) Chrome/87.0.4280.141 Safari/537.36"",""platform"":""Win32"",""language"":""pt-PT"",""locale"":""pt-PT"",""timeZone"":""Europe/Lisbon"",""timezoneOffset"":0,""screen_width"":1366,""screen_height"":768,""scroll_width"":1366,""scroll_height"":577,""window_innerWidth"":1366,""window_innerHeight"":625,""devicePixelRatio"":1}",,,,,,,,,,,,,,,,,,,,,,,,,,,,,,,,,,,,,,,,,,,,,,,,,,,,,,,,,,,,,,,,,,,,,,,,,,,,,,,,,,,,,,,,,,,,,,,,,,,,,,,,,,,,,,,,,,2493.1260000086004,,form submission,,,,,,,,,,,,,,,,,,,,,,,,,,,,,,,,,,,,,,,,,,,,,,,,,,,,,,,,,,,,,,,,,,,,,,,,,,,,,,,,,,,,15257.284999999683,15256.8600000086,12747.016,12748.420000003534,12763.734,15263.717,,,"{""hunger"":""2"",""input_meal"":""2""}",
get_systemInfo,canvas.Screen,1,2021-01-14T18:54:29.360Z,,,,,,,,,,,,,,,,,,,,,,,,,,,,,,,,,,,,,,,,,,,,,,,,,,,,,,,,,,,,,,,,,,,,,,,,,,,,,,,,,,,,,,,,,,,,,,,,,,,,,,,,Chrome,,,,,,,,,,,1166.6709999999985,,timeout,,87.0.4280.141,,,,,,,,,,,,87,,,,,,,,Netscape,"Mozilla/5.0 (Windows NT 10.0; Win64; x64) AppleWebKit/537.36 (KHTML, like Gecko) Chrome/87.0.4280.141 Safari/537.36",Windows,,,,,,,,,,,,,,,,,,,,,,,,,,,,,,,,,,,,,,,,,,,,,,,,,,,,,,,,,,,,15265.21500000672,15264.804999998887,15247.051,15258.325000002515,15263.717,16430.388,,,,
ConsentForm,html.Form,2_0,2021-01-14T18:54:35.864Z,,,,,,,,,,,,,,,,,,,,,,,,,,,,,,,,,,,,,,,,,,,,,,,,,,,,,,,,,,,,,,,,,,,,,,,,,,,,,,,,,,,,,,,,,,,,,,,,,,,,,,,,,,,true,true,,,,,,,5338.242000005943,,form submission,,,,,,,,,,,,,,,,,,,,,,,,,,,,,,,,,,,,,,,,,,,,,,,,,,,,,,,,,,,,,,,,,,,,,,,,,,,,,,,,,,,,21768.895000001066,21768.630000005942,15264.804999998887,16438.16499999957,16430.388,21780.421,,,,
PepTalk,html.Page,2_1,2021-01-14T18:54:36.463Z,,,,,,,,,,,,,,,,,,,,,,,,,,,,,,,,,,,,,,,,,,,,,,,,,,,,,,,,,,,,,,,,,,,,,,,,,,,,,,,,,,,,,,,,,,,,,,,,,,,,,,,,,,,,,,,,,,,587.698999999182,,form submission,,,,,,,,,,,,,,,,,,,,,,,,,,,,,,,,,,,,,,,,,,,,,,,,,,,,,,,,,,,,,,,,,,,,,,,,,,,,,,,,,,,,22368.345000009867,22368.11999999918,21763.755,21769.079999998212,21780.421,22380.421,,,,
Demographics,html.Form,2_2,2021-01-14T18:54:43.312Z,,,,,,,,,,,,,,,,,,,,,,,,,,,,,,,,,,,,,,,,,,,,,,,,,,,,,,,,,,,,,,,,,,,,,,,,,,,,,,,,,,,,,,,,,,,,,,,,,,,,,,,,,,,,,,,,,,,6836.014000009371,2,form submission,,,2,,,,,21,,Student,,,,,,,,,,,,,,,,,,,,,,,,,,,,,,,,,,,,,,,,,,,,,,,,,,,,,,,,,,,,,,,,,,,,,,,,,,29216.700000004494,29216.43500000937,22363.755,22368.50000001141,22380.421,29230.483,,,,
InclusionCrit,html.Form,2_3,2021-01-14T18:54:59.351Z,,,,,,,,,,,,,,,,,,,,,,,,,,,,,,,,,,,,,,,,,,,,,,,,,,,,,,,,,,,,,,,,,,,,,,,,,,,,,,,,,,,,,,,,,,,,,,,,,,,,,,,,,,,,,,,,,1,1,16025.5320000063,,form submission,1,,,,,,,,,,,,,,,,,,,,,,,,,,,,,,,,,,,,,,,,,,,,,,,,,,,,,,,,,,,,,,,,,,,,,,,,,,,,,,,,,,,45256.21500000125,45256.0150000063,29213.817,29217.19500000472,29230.483,45263.849,,,,
Selection,html.Page,2_4_0,2021-01-14T18:55:03.911Z,,,,,,,,,,,,,,,,,,,,,,,,,,,,,,,,,,,,,,,,,,,,,,,,,,,,,,,,,,,,,,,,,,,,,,,,,,,,,,,,,,,,,,,,,,,,,,,,,,,,,,,,,,,,,,,,,,,4552.076000002606,,form submission,,,,,,,,,,,,,,,,,,,,,,,,,,,,,,,,,,,,,,,,,,,,,,,,,,,,,,,,,,,,,,,,,,,,,,,,,,,,1,,,,,,,,49816.13500000094,49815.92500000261,45247.183,45256.380000006175,45263.849,49830.724,,,,
Load,html.Page,2_4_1,2021-01-14T18:55:03.928Z,,,,,,,,,,,,,,,,,,,,,,,,,,,,,,,,,,,,,,,,,,,,,,,,,,,,,,,,,,,,,,,,,,,,,,,,,,,,,,,,,,,,,,,,,,,,,,,,,,,,,,,,,,,,,,,,,,,74666.792,,timeout,,,,,,,,,,,,,,,,,,,,,,,,,,,,,,,,,,,,,,,,,,,,,,,,,,,,,,,,,,,,,,,,,,,,,,,,,,,,,,,,,,,,49833.43500000774,49833.19499999925,49814.058,49816.29000000248,49830.724,124497.516,,,,
SequenceSweet,flow.Sequence,2_4_2,2021-01-14T18:55:13.573Z,,,,,,,,,,,,,,,,,,,,,,,,,,,,,,,,,,,,,,,,,,,,,,,,,,,,,,,,,,,,,,,,,,,,,,,,,,,,,,,,,,,,,,,,,,,,,,,,,,,,,,,,,,,,,,,,,,,NaN,,skipped,,,,,,,,,,,,,,,,,,,,,,,,,,,,,,,,,,,,,,,,,,,,,,,,,,,,,,,,,,,,,,,,,,,,,,,,,,,true,,,,,,,,,59477.71000000648,49833.19499999925,,59477.429999999,,124497.516,0,0,,
ratings_instructions,html.Screen,2_4_3_0,2021-01-14T18:56:21.009Z,,,,,,,,,,,,,,,,,,,,,,,,,,,,,,,,,,,,,,,,,,,,,,,,,,,,,,,,,,,,,,,,,,,,,,,,,,,,,,,,,,,,,,,,,,,,,,,,,,,,,,,,,,,,,,,,,,,2415.4989999982645,,response,,,,,,,,,,,,,,,,,,,,,,,,,,,,,,,,,,,,,,,,,,,,,,,,,,,,,,,,,,,,,,,,,,,,,,,,,continue,keypress(Space),false,,,,,,,,,126913.84500000277,126913.01499999827,49833.19499999925,124560.3950000077,124497.516,126930.844,0,0,,
fixCross,canvas.Screen,2_4_3_1_0_0,2021-01-14T18:56:21.511Z,,,,,,,,,,,,,,,,,,,,,,,,,,,,,,,,,,,,,,,,,,,,,,,,,,,,,,,,,,,,,,,,,,,,,,,,,,,,,,,,,,,,,,,,,,,,,,,,,,,,,,,,,,,,,,,,,,,500.0390000000043,,timeout,,,,healthy,,carrot.png,,,,,,,,,,,,,,,carrot,,,,,,,,,,,,,,,,,,,,,,,,,,,,,,,,,,,,,,,,,,,,,,,,,,,,,,false,,,,,,,,,127415.39000000921,127414.217,126914.178,126914.0400000033,126930.844,127430.883,,,,
Rating,html.Form,2_4_3_1_0_1,2021-01-14T18:56:24.913Z,,,,,,,,,,,,,,,,,,,,,,,,,,,,,,,,,,,,,,,,,,,,,,,,,,,,,,,,,,,,,,,,,,,,,,,,,,,,,,,,,,,,,,,,,,,,,,,,,,,,,,,,,,,,,,,,,,,3386.491999998718,,form submission,,,,healthy,,carrot.png,,,,,,,,,,,,,,,carrot,,,,,,,,,,,,,,,,,,,,,,,,,,,,,,,,,,,,,,,,,,,,,,,,,,,,,,false,,,,,,,,,130817.59500000044,130817.37499999872,127414.217,127415.49500000838,127430.883,130830.899,,,,100
rating_sequence,flow.Sequence,2_4_3_1_0,2021-01-14T18:56:24.913Z,,,,,,,,,,,,,,,,,,,,,,,,,,,,,,,,,,,,,,,,,,,,,,,,,,,,,,,,,,,,,,,,,,,,,,,,,,,,,,,,,,,,,,,,,,,,,,,,,,,,,,,,,,,,,,,,,,,3886.530999998722,,completion,,,,healthy,,carrot.png,,,,,,,,,,,,,,,carrot,,,,,,,,,,,,,,,,,,,,,,,,,,,,,,,,,,,,,,,,,,,,,,,,,,,,,,false,,,,,,,,,130817.76000000536,130817.37499999872,126914.178,126914.01500000211,126930.844,130830.899,,,,
fixCross,canvas.Screen,2_4_3_1_1_0,2021-01-14T18:56:25.411Z,,,,,,,,,,,,,,,,,,,,,,,,,,,,,,,,,,,,,,,,,,,,,,,,,,,,,,,,,,,,,,,,,,,,,,,,,,,,,,,,,,,,,,,,,,,,,,,,,,,,,,,,,,,,,,,,,,,499.9989999999816,,timeout,,,,unhealthy,,peanut_cracker.png,,,,,,,,,,,,,,,peanut chip,,,,,,,,,,,,,,,,,,,,,,,,,,,,,,,,,,,,,,,,,,,,,,,,,,,,,,false,,,,,,,,,131315.82499999786,131314.232,130814.233,130817.85500000115,130830.899,131330.898,,,,
Rating,html.Form,2_4_3_1_1_1,2021-01-14T18:56:27.823Z,,,,,,,,,,,,,,,,,,,,,,,,,,,,,,,,,,,,,,,,,,,,,,,,,,,,,,,,,,,,,,,,,,,,,,,,,,,,,,,,,,,,,,,,,,,,,,,,,,,,,,,,,,,,,,,,,,,2397.1170000006096,,form submission,,,,unhealthy,,peanut_cracker.png,,,,,,,,,,,,,,,peanut chip,,,,,,,,,,,,,,,,,,,,,,,,,,,,,,,,,,,,,,,,,,,,,,,,,,,,,,false,,,,,,,,,133728.17000000214,133728.0150000006,131314.232,131315.9050000104,131330.898,133730.94,,,,72
rating_sequence,flow.Sequence,2_4_3_1_1,2021-01-14T18:56:27.823Z,,,,,,,,,,,,,,,,,,,,,,,,,,,,,,,,,,,,,,,,,,,,,,,,,,,,,,,,,,,,,,,,,,,,,,,,,,,,,,,,,,,,,,,,,,,,,,,,,,,,,,,,,,,,,,,,,,,2897.116000000591,,completion,,,,unhealthy,,peanut_cracker.png,,,,,,,,,,,,,,,peanut chip,,,,,,,,,,,,,,,,,,,,,,,,,,,,,,,,,,,,,,,,,,,,,,,,,,,,,,false,,,,,,,,,133728.3150000003,133728.0150000006,130814.233,130817.82999999996,130830.899,133730.94,,,,
fixCross,canvas.Screen,2_4_3_1_2_0,2021-01-14T18:56:28.311Z,,,,,,,,,,,,,,,,,,,,,,,,,,,,,,,,,,,,,,,,,,,,,,,,,,,,,,,,,,,,,,,,,,,,,,,,,,,,,,,,,,,,,,,,,,,,,,,,,,,,,,,,,,,,,,,,,,,499.96199999999953,,timeout,,,,healthy,,cucumber.png,,,,,,,,,,,,,,,cucumber,,,,,,,,,,,,,,,,,,,,,,,,,,,,,,,,,,,,,,,,,,,,,,,,,,,,,,false,,,,,,,,,134215.43999999994,134214.236,133714.274,133728.44500000065,133730.94,134230.902,,,,
Rating,html.Form,2_4_3_1_2_1,2021-01-14T18:56:31.585Z,,,,,,,,,,,,,,,,,,,,,,,,,,,,,,,,,,,,,,,,,,,,,,,,,,,,,,,,,,,,,,,,,,,,,,,,,,,,,,,,,,,,,,,,,,,,,,,,,,,,,,,,,,,,,,,,,,,3258.613000008394,,form submission,,,,healthy,,cucumber.png,,,,,,,,,,,,,,,cucumber,,,,,,,,,,,,,,,,,,,,,,,,,,,,,,,,,,,,,,,,,,,,,,,,,,,,,,false,,,,,,,,,137489.72500000673,137489.5150000084,134214.236,134215.5300000013,134230.902,137497.589,,,,80
rating_sequence,flow.Sequence,2_4_3_1_2,2021-01-14T18:56:31.585Z,,,,,,,,,,,,,,,,,,,,,,,,,,,,,,,,,,,,,,,,,,,,,,,,,,,,,,,,,,,,,,,,,,,,,,,,,,,,,,,,,,,,,,,,,,,,,,,,,,,,,,,,,,,,,,,,,,,3758.5750000083935,,completion,,,,healthy,,cucumber.png,,,,,,,,,,,,,,,cucumber,,,,,,,,,,,,,,,,,,,,,,,,,,,,,,,,,,,,,,,,,,,,,,,,,,,,,,false,,,,,,,,,137489.93500000506,137489.5150000084,133714.274,133728.40500000166,133730.94,137497.589,,,,
fixCross,canvas.Screen,2_4_3_1_3_0,2021-01-14T18:56:32.078Z,,,,,,,,,,,,,,,,,,,,,,,,,,,,,,,,,,,,,,,,,,,,,,,,,,,,,,,,,,,,,,,,,,,,,,,,,,,,,,,,,,,,,,,,,,,,,,,,,,,,,,,,,,,,,,,,,,,500.1609999999928,,timeout,,,,unhealthy,,ritz.png,,,,,,,,,,,,,,,cracker,,,,,,,,,,,,,,,,,,,,,,,,,,,,,,,,,,,,,,,,,,,,,,,,,,,,,,false,,,,,,,,,137982.76500000793,137981.084,137480.923,137490.135,137497.589,137997.75,,,,
Rating,html.Form,2_4_3_1_3_1,2021-01-14T18:56:34.767Z,,,,,,,,,,,,,,,,,,,,,,,,,,,,,,,,,,,,,,,,,,,,,,,,,,,,,,,,,,,,,,,,,,,,,,,,,,,,,,,,,,,,,,,,,,,,,,,,,,,,,,,,,,,,,,,,,,,2673.8150000114692,,form submission,,,,unhealthy,,ritz.png,,,,,,,,,,,,,,,cracker,,,,,,,,,,,,,,,,,,,,,,,,,,,,,,,,,,,,,,,,,,,,,,,,,,,,,,false,,,,,,,,,140671.71500000404,140671.56500001147,137981.084,137982.9299999983,137997.75,140681.033,,,,92
rating_sequence,flow.Sequence,2_4_3_1_3,2021-01-14T18:56:34.767Z,,,,,,,,,,,,,,,,,,,,,,,,,,,,,,,,,,,,,,,,,,,,,,,,,,,,,,,,,,,,,,,,,,,,,,,,,,,,,,,,,,,,,,,,,,,,,,,,,,,,,,,,,,,,,,,,,,,3173.976000011462,,completion,,,,unhealthy,,ritz.png,,,,,,,,,,,,,,,cracker,,,,,,,,,,,,,,,,,,,,,,,,,,,,,,,,,,,,,,,,,,,,,,,,,,,,,,false,,,,,,,,,140671.835000001,140671.56500001147,137480.923,137490.09500000102,137497.589,140681.033,,,,
fixCross,canvas.Screen,2_4_3_1_4_0,2021-01-14T18:56:35.261Z,,,,,,,,,,,,,,,,,,,,,,,,,,,,,,,,,,,,,,,,,,,,,,,,,,,,,,,,,,,,,,,,,,,,,,,,,,,,,,,,,,,,,,,,,,,,,,,,,,,,,,,,,,,,,,,,,,,499.94200000001,,timeout,,,,healthy,,radish.png,,,,,,,,,,,,,,,radish,,,,,,,,,,,,,,,,,,,,,,,,,,,,,,,,,,,,,,,,,,,,,,,,,,,,,,false,,,,,,,,,141165.69999999774,141164.309,140664.367,140671.91000000457,140681.033,141180.975,,,,
Rating,html.Form,2_4_3_1_4_1,2021-01-14T18:56:37.839Z,,,,,,,,,,,,,,,,,,,,,,,,,,,,,,,,,,,,,,,,,,,,,,,,,,,,,,,,,,,,,,,,,,,,,,,,,,,,,,,,,,,,,,,,,,,,,,,,,,,,,,,,,,,,,,,,,,,2562.650000002788,,form submission,,,,healthy,,radish.png,,,,,,,,,,,,,,,radish,,,,,,,,,,,,,,,,,,,,,,,,,,,,,,,,,,,,,,,,,,,,,,,,,,,,,,false,,,,,,,,,143743.8300000067,143743.6250000028,141164.309,141165.8000000025,141180.975,143747.668,,,,1
rating_sequence,flow.Sequence,2_4_3_1_4,2021-01-14T18:56:37.839Z,,,,,,,,,,,,,,,,,,,,,,,,,,,,,,,,,,,,,,,,,,,,,,,,,,,,,,,,,,,,,,,,,,,,,,,,,,,,,,,,,,,,,,,,,,,,,,,,,,,,,,,,,,,,,,,,,,,3062.592000002798,,completion,,,,healthy,,radish.png,,,,,,,,,,,,,,,radish,,,,,,,,,,,,,,,,,,,,,,,,,,,,,,,,,,,,,,,,,,,,,,,,,,,,,,false,,,,,,,,,143744.03000000166,143743.6250000028,140664.367,140671.8899999978,140681.033,143747.668,,,,
fixCross,canvas.Screen,2_4_3_1_5_0,2021-01-14T18:56:38.327Z,,,,,,,,,,,,,,,,,,,,,,,,,,,,,,,,,,,,,,,,,,,,,,,,,,,,,,,,,,,,,,,,,,,,,,,,,,,,,,,,,,,,,,,,,,,,,,,,,,,,,,,,,,,,,,,,,,,499.93700000000536,,timeout,,,,unhealthy,,chips.png,,,,,,,,,,,,,,,potato chip,,,,,,,,,,,,,,,,,,,,,,,,,,,,,,,,,,,,,,,,,,,,,,,,,,,,,,false,,,,,,,,,144231.4250000054,144230.939,143731.002,143744.1700000054,143747.668,144247.605,,,,
Rating,html.Form,2_4_3_1_5_1,2021-01-14T18:56:40.719Z,,,,,,,,,,,,,,,,,,,,,,,,,,,,,,,,,,,,,,,,,,,,,,,,,,,,,,,,,,,,,,,,,,,,,,,,,,,,,,,,,,,,,,,,,,,,,,,,,,,,,,,,,,,,,,,,,,,2376.2250000113563,,form submission,,,,unhealthy,,chips.png,,,,,,,,,,,,,,,potato chip,,,,,,,,,,,,,,,,,,,,,,,,,,,,,,,,,,,,,,,,,,,,,,,,,,,,,,false,,,,,,,,,146623.97500000952,146623.83000001137,144230.939,144231.53499999898,144247.605,146631.1,,,,88
rating_sequence,flow.Sequence,2_4_3_1_5,2021-01-14T18:56:40.719Z,,,,,,,,,,,,,,,,,,,,,,,,,,,,,,,,,,,,,,,,,,,,,,,,,,,,,,,,,,,,,,,,,,,,,,,,,,,,,,,,,,,,,,,,,,,,,,,,,,,,,,,,,,,,,,,,,,,2876.1620000113617,,completion,,,,unhealthy,,chips.png,,,,,,,,,,,,,,,potato chip,,,,,,,,,,,,,,,,,,,,,,,,,,,,,,,,,,,,,,,,,,,,,,,,,,,,,,false,,,,,,,,,146624.0850000031,146623.83000001137,143731.002,143744.13500000082,143747.668,146631.1,,,,
fixCross,canvas.Screen,2_4_3_1_6_0,2021-01-14T18:56:41.211Z,,,,,,,,,,,,,,,,,,,,,,,,,,,,,,,,,,,,,,,,,,,,,,,,,,,,,,,,,,,,,,,,,,,,,,,,,,,,,,,,,,,,,,,,,,,,,,,,,,,,,,,,,,,,,,,,,,,499.99599999998463,,timeout,,,,unhealthy,,nacho.png,,,,,,,,,,,,,,,nacho,,,,,,,,,,,,,,,,,,,,,,,,,,,,,,,,,,,,,,,,,,,,,,,,,,,,,,false,,,,,,,,,147116.2900000054,147114.43,146614.434,146624.16000000667,146631.1,147131.096,,,,
Rating,html.Form,2_4_3_1_6_1,2021-01-14T18:56:43.712Z,,,,,,,,,,,,,,,,,,,,,,,,,,,,,,,,,,,,,,,,,,,,,,,,,,,,,,,,,,,,,,,,,,,,,,,,,,,,,,,,,,,,,,,,,,,,,,,,,,,,,,,,,,,,,,,,,,,2485.4440000027244,,form submission,,,,unhealthy,,nacho.png,,,,,,,,,,,,,,,nacho,,,,,,,,,,,,,,,,,,,,,,,,,,,,,,,,,,,,,,,,,,,,,,,,,,,,,,false,,,,,,,,,149616.80499999784,149616.54000000271,147114.43,147116.39500000456,147131.096,149630.976,,,,92
rating_sequence,flow.Sequence,2_4_3_1_6,2021-01-14T18:56:43.712Z,,,,,,,,,,,,,,,,,,,,,,,,,,,,,,,,,,,,,,,,,,,,,,,,,,,,,,,,,,,,,,,,,,,,,,,,,,,,,,,,,,,,,,,,,,,,,,,,,,,,,,,,,,,,,,,,,,,2985.440000002709,,completion,,,,unhealthy,,nacho.png,,,,,,,,,,,,,,,nacho,,,,,,,,,,,,,,,,,,,,,,,,,,,,,,,,,,,,,,,,,,,,,,,,,,,,,,false,,,,,,,,,149617.0400000119,149616.54000000271,146614.434,146624.1399999999,146631.1,149630.976,,,,
fixCross,canvas.Screen,2_4_3_1_7_0,2021-01-14T18:56:44.211Z,,,,,,,,,,,,,,,,,,,,,,,,,,,,,,,,,,,,,,,,,,,,,,,,,,,,,,,,,,,,,,,,,,,,,,,,,,,,,,,,,,,,,,,,,,,,,,,,,,,,,,,,,,,,,,,,,,,500.002999999997,,timeout,,,,healthy,,pickle.png,,,,,,,,,,,,,,,pickle,,,,,,,,,,,,,,,,,,,,,,,,,,,,,,,,,,,,,,,,,,,,,,,,,,,,,,false,,,,,,,,,150115.91500000213,150114.313,149614.31,149617.1800000011,149630.976,150130.979,,,,
Rating,html.Form,2_4_3_1_7_1,2021-01-14T18:56:47.127Z,,,,,,,,,,,,,,,,,,,,,,,,,,,,,,,,,,,,,,,,,,,,,,,,,,,,,,,,,,,,,,,,,,,,,,,,,,,,,,,,,,,,,,,,,,,,,,,,,,,,,,,,,,,,,,,,,,,2900.95600000635,,form submission,,,,healthy,,pickle.png,,,,,,,,,,,,,,,pickle,,,,,,,,,,,,,,,,,,,,,,,,,,,,,,,,,,,,,,,,,,,,,,,,,,,,,,false,,,,,,,,,153032.13000000687,153031.93500000634,150114.313,150116.09999999928,150130.979,153047.786,,,,63
rating_sequence,flow.Sequence,2_4_3_1_7,2021-01-14T18:56:47.127Z,,,,,,,,,,,,,,,,,,,,,,,,,,,,,,,,,,,,,,,,,,,,,,,,,,,,,,,,,,,,,,,,,,,,,,,,,,,,,,,,,,,,,,,,,,,,,,,,,,,,,,,,,,,,,,,,,,,3400.959000006347,,completion,,,,healthy,,pickle.png,,,,,,,,,,,,,,,pickle,,,,,,,,,,,,,,,,,,,,,,,,,,,,,,,,,,,,,,,,,,,,,,,,,,,,,,false,,,,,,,,,153032.2950000118,153031.93500000634,149614.31,149617.1400000021,149630.976,153047.786,,,,
fixCross,canvas.Screen,2_4_3_1_8_0,2021-01-14T18:56:47.627Z,,,,,,,,,,,,,,,,,,,,,,,,,,,,,,,,,,,,,,,,,,,,,,,,,,,,,,,,,,,,,,,,,,,,,,,,,,,,,,,,,,,,,,,,,,,,,,,,,,,,,,,,,,,,,,,,,,,499.9330000000191,,timeout,,,,healthy,,celery.png,,,,,,,,,,,,,,,celery,,,,,,,,,,,,,,,,,,,,,,,,,,,,,,,,,,,,,,,,,,,,,,,,,,,,,,false,,,,,,,,,153532.1350000013,153531.053,153031.12,153032.40000001097,153047.786,153547.719,,,,
Rating,html.Form,2_4_3_1_8_1,2021-01-14T18:56:50.079Z,,,,,,,,,,,,,,,,,,,,,,,,,,,,,,,,,,,,,,,,,,,,,,,,,,,,,,,,,,,,,,,,,,,,,,,,,,,,,,,,,,,,,,,,,,,,,,,,,,,,,,,,,,,,,,,,,,,2435.8660000090313,,form submission,,,,healthy,,celery.png,,,,,,,,,,,,,,,celery,,,,,,,,,,,,,,,,,,,,,,,,,,,,,,,,,,,,,,,,,,,,,,,,,,,,,,false,,,,,,,,,155983.7750000006,155983.58500000904,153531.053,153532.24500000942,153547.719,156014.343,,,,0
rating_sequence,flow.Sequence,2_4_3_1_8,2021-01-14T18:56:50.079Z,,,,,,,,,,,,,,,,,,,,,,,,,,,,,,,,,,,,,,,,,,,,,,,,,,,,,,,,,,,,,,,,,,,,,,,,,,,,,,,,,,,,,,,,,,,,,,,,,,,,,,,,,,,,,,,,,,,2935.7990000090504,,completion,,,,healthy,,celery.png,,,,,,,,,,,,,,,celery,,,,,,,,,,,,,,,,,,,,,,,,,,,,,,,,,,,,,,,,,,,,,,,,,,,,,,false,,,,,,,,,155983.91000000993,155983.58500000904,153031.12,153032.3700000008,153047.786,156014.343,,,,
fixCross,canvas.Screen,2_4_3_1_9_0,2021-01-14T18:56:50.594Z,,,,,,,,,,,,,,,,,,,,,,,,,,,,,,,,,,,,,,,,,,,,,,,,,,,,,,,,,,,,,,,,,,,,,,,,,,,,,,,,,,,,,,,,,,,,,,,,,,,,,,,,,,,,,,,,,,,499.9750000000058,,timeout,,,,healthy,,tomato.png,,,,,,,,,,,,,,,cherry tomato,,,,,,,,,,,,,,,,,,,,,,,,,,,,,,,,,,,,,,,,,,,,,,,,,,,,,,false,,,,,,,,,156498.83500000578,156497.652,155997.677,155984.0000000113,156014.343,156514.318,,,,
Rating,html.Form,2_4_3_1_9_1,2021-01-14T18:56:54.487Z,,,,,,,,,,,,,,,,,,,,,,,,,,,,,,,,,,,,,,,,,,,,,,,,,,,,,,,,,,,,,,,,,,,,,,,,,,,,,,,,,,,,,,,,,,,,,,,,,,,,,,,,,,,,,,,,,,,3877.2370000092487,,form submission,,,,healthy,,tomato.png,,,,,,,,,,,,,,,cherry tomato,,,,,,,,,,,,,,,,,,,,,,,,,,,,,,,,,,,,,,,,,,,,,,,,,,,,,,false,,,,,,,,,160391.7550000042,160391.55500000925,156497.652,156498.91999999818,156514.318,160414.406,,,,91
rating_sequence,flow.Sequence,2_4_3_1_9,2021-01-14T18:56:54.487Z,,,,,,,,,,,,,,,,,,,,,,,,,,,,,,,,,,,,,,,,,,,,,,,,,,,,,,,,,,,,,,,,,,,,,,,,,,,,,,,,,,,,,,,,,,,,,,,,,,,,,,,,,,,,,,,,,,,4377.212000009255,,completion,,,,healthy,,tomato.png,,,,,,,,,,,,,,,cherry tomato,,,,,,,,,,,,,,,,,,,,,,,,,,,,,,,,,,,,,,,,,,,,,,,,,,,,,,false,,,,,,,,,160391.92999999796,160391.55500000925,155997.677,155983.9750000101,156014.343,160414.406,,,,
fixCross,canvas.Screen,2_4_3_1_10_0,2021-01-14T18:56:54.995Z,,,,,,,,,,,,,,,,,,,,,,,,,,,,,,,,,,,,,,,,,,,,,,,,,,,,,,,,,,,,,,,,,,,,,,,,,,,,,,,,,,,,,,,,,,,,,,,,,,,,,,,,,,,,,,,,,,,499.95100000000093,,timeout,,,,unhealthy,,frie.png,,,,,,,,,,,,,,,frie,,,,,,,,,,,,,,,,,,,,,,,,,,,,,,,,,,,,,,,,,,,,,,,,,,,,,,false,,,,,,,,,160900.07000000332,160897.691,160397.74,160392.0550000039,160414.406,160914.357,,,,
Rating,html.Form,2_4_3_1_10_1,2021-01-14T18:56:57.647Z,,,,,,,,,,,,,,,,,,,,,,,,,,,,,,,,,,,,,,,,,,,,,,,,,,,,,,,,,,,,,,,,,,,,,,,,,,,,,,,,,,,,,,,,,,,,,,,,,,,,,,,,,,,,,,,,,,,2637.508000001282,,form submission,,,,unhealthy,,frie.png,,,,,,,,,,,,,,,frie,,,,,,,,,,,,,,,,,,,,,,,,,,,,,,,,,,,,,,,,,,,,,,,,,,,,,,false,,,,,,,,,163552.0300000062,163551.86500000127,160897.691,160900.2049999981,160914.357,163564.407,,,,96
rating_sequence,flow.Sequence,2_4_3_1_10,2021-01-14T18:56:57.647Z,,,,,,,,,,,,,,,,,,,,,,,,,,,,,,,,,,,,,,,,,,,,,,,,,,,,,,,,,,,,,,,,,,,,,,,,,,,,,,,,,,,,,,,,,,,,,,,,,,,,,,,,,,,,,,,,,,,3137.459000001283,,completion,,,,unhealthy,,frie.png,,,,,,,,,,,,,,,frie,,,,,,,,,,,,,,,,,,,,,,,,,,,,,,,,,,,,,,,,,,,,,,,,,,,,,,false,,,,,,,,,163552.14500000875,163551.86500000127,160397.74,160392.01999999932,160414.406,163564.407,,,,
fixCross,canvas.Screen,2_4_3_1_11_0,2021-01-14T18:56:58.144Z,,,,,,,,,,,,,,,,,,,,,,,,,,,,,,,,,,,,,,,,,,,,,,,,,,,,,,,,,,,,,,,,,,,,,,,,,,,,,,,,,,,,,,,,,,,,,,,,,,,,,,,,,,,,,,,,,,,500.14100000000326,,timeout,,,,unhealthy,,ham.png,,,,,,,,,,,,,,,ham,,,,,,,,,,,,,,,,,,,,,,,,,,,,,,,,,,,,,,,,,,,,,,,,,,,,,,false,,,,,,,,,164049.09000000043,164047.882,163547.741,163552.23000000115,163564.407,164064.548,,,,
Rating,html.Form,2_4_3_1_11_1,2021-01-14T18:57:00.527Z,,,,,,,,,,,,,,,,,,,,,,,,,,,,,,,,,,,,,,,,,,,,,,,,,,,,,,,,,,,,,,,,,,,,,,,,,,,,,,,,,,,,,,,,,,,,,,,,,,,,,,,,,,,,,,,,,,,2367.417000010668,,form submission,,,,unhealthy,,ham.png,,,,,,,,,,,,,,,ham,,,,,,,,,,,,,,,,,,,,,,,,,,,,,,,,,,,,,,,,,,,,,,,,,,,,,,false,,,,,,,,,166432.11500000325,166431.96500001068,164047.882,164049.17500000738,164064.548,166447.787,,,,1
rating_sequence,flow.Sequence,2_4_3_1_11,2021-01-14T18:57:00.527Z,,,,,,,,,,,,,,,,,,,,,,,,,,,,,,,,,,,,,,,,,,,,,,,,,,,,,,,,,,,,,,,,,,,,,,,,,,,,,,,,,,,,,,,,,,,,,,,,,,,,,,,,,,,,,,,,,,,2867.558000010671,,completion,,,,unhealthy,,ham.png,,,,,,,,,,,,,,,ham,,,,,,,,,,,,,,,,,,,,,,,,,,,,,,,,,,,,,,,,,,,,,,,,,,,,,,false,,,,,,,,,166432.2300000058,166431.96500001068,163547.741,163552.21000000893,163564.407,166447.787,,,,
fixCross,canvas.Screen,2_4_3_1_12_0,2021-01-14T18:57:01.028Z,,,,,,,,,,,,,,,,,,,,,,,,,,,,,,,,,,,,,,,,,,,,,,,,,,,,,,,,,,,,,,,,,,,,,,,,,,,,,,,,,,,,,,,,,,,,,,,,,,,,,,,,,,,,,,,,,,,499.9739999999874,,timeout,,,,healthy,,cashew.png,,,,,,,,,,,,,,,cashew,,,,,,,,,,,,,,,,,,,,,,,,,,,,,,,,,,,,,,,,,,,,,,,,,,,,,,false,,,,,,,,,166933.28000001202,166931.095,166431.121,166432.33000001055,166447.787,166947.761,,,,
Rating,html.Form,2_4_3_1_12_1,2021-01-14T18:57:03.591Z,,,,,,,,,,,,,,,,,,,,,,,,,,,,,,,,,,,,,,,,,,,,,,,,,,,,,,,,,,,,,,,,,,,,,,,,,,,,,,,,,,,,,,,,,,,,,,,,,,,,,,,,,,,,,,,,,,,2548.3790000029257,,form submission,,,,healthy,,cashew.png,,,,,,,,,,,,,,,cashew,,,,,,,,,,,,,,,,,,,,,,,,,,,,,,,,,,,,,,,,,,,,,,,,,,,,,,false,,,,,,,,,169496.31000000227,169496.14000000292,166931.095,166933.3900000056,166947.761,169497.742,,,,3
rating_sequence,flow.Sequence,2_4_3_1_12,2021-01-14T18:57:03.592Z,,,,,,,,,,,,,,,,,,,,,,,,,,,,,,,,,,,,,,,,,,,,,,,,,,,,,,,,,,,,,,,,,,,,,,,,,,,,,,,,,,,,,,,,,,,,,,,,,,,,,,,,,,,,,,,,,,,3048.353000002913,,completion,,,,healthy,,cashew.png,,,,,,,,,,,,,,,cashew,,,,,,,,,,,,,,,,,,,,,,,,,,,,,,,,,,,,,,,,,,,,,,,,,,,,,,false,,,,,,,,,169496.45500000042,169496.14000000292,166431.121,166432.3000000004,166447.787,169497.742,,,,
fixCross,canvas.Screen,2_4_3_1_13_0,2021-01-14T18:57:04.079Z,,,,,,,,,,,,,,,,,,,,,,,,,,,,,,,,,,,,,,,,,,,,,,,,,,,,,,,,,,,,,,,,,,,,,,,,,,,,,,,,,,,,,,,,,,,,,,,,,,,,,,,,,,,,,,,,,,,499.9880000000121,,timeout,,,,unhealthy,,sausage.png,,,,,,,,,,,,,,,salami,,,,,,,,,,,,,,,,,,,,,,,,,,,,,,,,,,,,,,,,,,,,,,,,,,,,,,false,,,,,,,,,169983.49500000768,169981.064,169481.076,169496.58000000636,169497.742,169997.73,,,,
Rating,html.Form,2_4_3_1_13_1,2021-01-14T18:57:06.687Z,,,,,,,,,,,,,,,,,,,,,,,,,,,,,,,,,,,,,,,,,,,,,,,,,,,,,,,,,,,,,,,,,,,,,,,,,,,,,,,,,,,,,,,,,,,,,,,,,,,,,,,,,,,,,,,,,,,2594.1100000082224,,form submission,,,,unhealthy,,sausage.png,,,,,,,,,,,,,,,salami,,,,,,,,,,,,,,,,,,,,,,,,,,,,,,,,,,,,,,,,,,,,,,,,,,,,,,false,,,,,,,,,172592.0000000042,172591.84000000823,169981.064,169983.61000001023,169997.73,172597.77,,,,2
rating_sequence,flow.Sequence,2_4_3_1_13,2021-01-14T18:57:06.687Z,,,,,,,,,,,,,,,,,,,,,,,,,,,,,,,,,,,,,,,,,,,,,,,,,,,,,,,,,,,,,,,,,,,,,,,,,,,,,,,,,,,,,,,,,,,,,,,,,,,,,,,,,,,,,,,,,,,3094.0980000082345,,completion,,,,unhealthy,,sausage.png,,,,,,,,,,,,,,,salami,,,,,,,,,,,,,,,,,,,,,,,,,,,,,,,,,,,,,,,,,,,,,,,,,,,,,,false,,,,,,,,,172592.11500000674,172591.84000000823,169481.076,169496.55000001076,169497.742,172597.77,,,,
fixCross,canvas.Screen,2_4_3_1_14_0,2021-01-14T18:57:07.178Z,,,,,,,,,,,,,,,,,,,,,,,,,,,,,,,,,,,,,,,,,,,,,,,,,,,,,,,,,,,,,,,,,,,,,,,,,,,,,,,,,,,,,,,,,,,,,,,,,,,,,,,,,,,,,,,,,,,500.00400000001537,,timeout,,,,healthy,,walnut.png,,,,,,,,,,,,,,,walnut,,,,,,,,,,,,,,,,,,,,,,,,,,,,,,,,,,,,,,,,,,,,,,,,,,,,,,false,,,,,,,,,173082.665000009,173081.143,172581.104,172592.19500000472,172597.77,173097.774,,,,
Rating,html.Form,2_4_3_1_14_1,2021-01-14T18:57:09.439Z,,,,,,,,,,,,,,,,,,,,,,,,,,,,,,,,,,,,,,,,,,,,,,,,,,,,,,,,,,,,,,,,,,,,,,,,,,,,,,,,,,,,,,,,,,,,,,,,,,,,,,,,,,,,,,,,,,,2246.136000010505,,form submission,,,,healthy,,walnut.png,,,,,,,,,,,,,,,walnut,,,,,,,,,,,,,,,,,,,,,,,,,,,,,,,,,,,,,,,,,,,,,,,,,,,,,,false,,,,,,,,,175344.11499999987,175343.9100000105,173081.143,173082.8049999982,173097.774,175347.935,,,,100
rating_sequence,flow.Sequence,2_4_3_1_14,2021-01-14T18:57:09.439Z,,,,,,,,,,,,,,,,,,,,,,,,,,,,,,,,,,,,,,,,,,,,,,,,,,,,,,,,,,,,,,,,,,,,,,,,,,,,,,,,,,,,,,,,,,,,,,,,,,,,,,,,,,,,,,,,,,,2746.1400000105205,,completion,,,,healthy,,walnut.png,,,,,,,,,,,,,,,walnut,,,,,,,,,,,,,,,,,,,,,,,,,,,,,,,,,,,,,,,,,,,,,,,,,,,,,,false,,,,,,,,,175344.28499999922,175343.9100000105,172581.104,172592.17000000353,172597.77,175347.935,,,,
fixCross,canvas.Screen,2_4_3_1_15_0,2021-01-14T18:57:09.927Z,,,,,,,,,,,,,,,,,,,,,,,,,,,,,,,,,,,,,,,,,,,,,,,,,,,,,,,,,,,,,,,,,,,,,,,,,,,,,,,,,,,,,,,,,,,,,,,,,,,,,,,,,,,,,,,,,,,499.80799999999,,timeout,,,,unhealthy,,bretzel.png,,,,,,,,,,,,,,,bretzel,,,,,,,,,,,,,,,,,,,,,,,,,,,,,,,,,,,,,,,,,,,,,,,,,,,,,,false,,,,,,,,,175832.13999999862,175831.077,175331.269,175344.38500000397,175347.935,175847.743,,,,
Rating,html.Form,2_4_3_1_15_1,2021-01-14T18:57:12.367Z,,,,,,,,,,,,,,,,,,,,,,,,,,,,,,,,,,,,,,,,,,,,,,,,,,,,,,,,,,,,,,,,,,,,,,,,,,,,,,,,,,,,,,,,,,,,,,,,,,,,,,,,,,,,,,,,,,,2423.782000003761,,form submission,,,,unhealthy,,bretzel.png,,,,,,,,,,,,,,,bretzel,,,,,,,,,,,,,,,,,,,,,,,,,,,,,,,,,,,,,,,,,,,,,,,,,,,,,,false,,,,,,,,,178271.6800000053,178271.52500000375,175831.077,175832.24000000337,175847.743,178281.138,,,,95
rating_sequence,flow.Sequence,2_4_3_1_15,2021-01-14T18:57:12.367Z,,,,,,,,,,,,,,,,,,,,,,,,,,,,,,,,,,,,,,,,,,,,,,,,,,,,,,,,,,,,,,,,,,,,,,,,,,,,,,,,,,,,,,,,,,,,,,,,,,,,,,,,,,,,,,,,,,,2923.590000003751,,completion,,,,unhealthy,,bretzel.png,,,,,,,,,,,,,,,bretzel,,,,,,,,,,,,,,,,,,,,,,,,,,,,,,,,,,,,,,,,,,,,,,,,,,,,,,false,,,,,,,,,178271.80500001123,178271.52500000375,175331.269,175344.36000000278,175347.935,178281.138,,,,
fixCross,canvas.Screen,2_4_3_1_16_0,2021-01-14T18:57:12.863Z,,,,,,,,,,,,,,,,,,,,,,,,,,,,,,,,,,,,,,,,,,,,,,,,,,,,,,,,,,,,,,,,,,,,,,,,,,,,,,,,,,,,,,,,,,,,,,,,,,,,,,,,,,,,,,,,,,,500.01600000000326,,timeout,,,,healthy,,edamame.png,,,,,,,,,,,,,,,edamame,,,,,,,,,,,,,,,,,,,,,,,,,,,,,,,,,,,,,,,,,,,,,,,,,,,,,,false,,,,,,,,,178767.43000000715,178764.488,178264.472,178271.90500000142,178281.138,178781.154,,,,
Rating,html.Form,2_4_3_1_16_1,2021-01-14T18:57:15.023Z,,,,,,,,,,,,,,,,,,,,,,,,,,,,,,,,,,,,,,,,,,,,,,,,,,,,,,,,,,,,,,,,,,,,,,,,,,,,,,,,,,,,,,,,,,,,,,,,,,,,,,,,,,,,,,,,,,,2146.7910000030824,,form submission,,,,healthy,,edamame.png,,,,,,,,,,,,,,,edamame,,,,,,,,,,,,,,,,,,,,,,,,,,,,,,,,,,,,,,,,,,,,,,,,,,,,,,false,,,,,,,,,180928.08500000683,180927.9450000031,178764.488,178767.55499999854,178781.154,180931.169,,,,0
rating_sequence,flow.Sequence,2_4_3_1_16,2021-01-14T18:57:15.023Z,,,,,,,,,,,,,,,,,,,,,,,,,,,,,,,,,,,,,,,,,,,,,,,,,,,,,,,,,,,,,,,,,,,,,,,,,,,,,,,,,,,,,,,,,,,,,,,,,,,,,,,,,,,,,,,,,,,2646.8070000030857,,completion,,,,healthy,,edamame.png,,,,,,,,,,,,,,,edamame,,,,,,,,,,,,,,,,,,,,,,,,,,,,,,,,,,,,,,,,,,,,,,,,,,,,,,false,,,,,,,,,180928.20000000938,180927.9450000031,178264.472,178271.88000000024,178281.138,180931.169,,,,
fixCross,canvas.Screen,2_4_3_1_17_0,2021-01-14T18:57:15.511Z,,,,,,,,,,,,,,,,,,,,,,,,,,,,,,,,,,,,,,,,,,,,,,,,,,,,,,,,,,,,,,,,,,,,,,,,,,,,,,,,,,,,,,,,,,,,,,,,,,,,,,,,,,,,,,,,,,,499.9120000000112,,timeout,,,,unhealthy,,dried_meat.png,,,,,,,,,,,,,,,dried meat,,,,,,,,,,,,,,,,,,,,,,,,,,,,,,,,,,,,,,,,,,,,,,,,,,,,,,false,,,,,,,,,181415.35000001022,181414.415,180914.503,180928.2749999984,180931.169,181431.081,,,,
Rating,html.Form,2_4_3_1_17_1,2021-01-14T18:57:19.543Z,,,,,,,,,,,,,,,,,,,,,,,,,,,,,,,,,,,,,,,,,,,,,,,,,,,,,,,,,,,,,,,,,,,,,,,,,,,,,,,,,,,,,,,,,,,,,,,,,,,,,,,,,,,,,,,,,,,4016.974000000744,,form submission,,,,unhealthy,,dried_meat.png,,,,,,,,,,,,,,,dried meat,,,,,,,,,,,,,,,,,,,,,,,,,,,,,,,,,,,,,,,,,,,,,,,,,,,,,,false,,,,,,,,,185448.30499999807,185448.05500000075,181414.415,181415.4300000082,181431.081,185447.899,,,,52
rating_sequence,flow.Sequence,2_4_3_1_17,2021-01-14T18:57:19.544Z,,,,,,,,,,,,,,,,,,,,,,,,,,,,,,,,,,,,,,,,,,,,,,,,,,,,,,,,,,,,,,,,,,,,,,,,,,,,,,,,,,,,,,,,,,,,,,,,,,,,,,,,,,,,,,,,,,,4516.886000000755,,completion,,,,unhealthy,,dried_meat.png,,,,,,,,,,,,,,,dried meat,,,,,,,,,,,,,,,,,,,,,,,,,,,,,,,,,,,,,,,,,,,,,,,,,,,,,,false,,,,,,,,,185448.4999999986,185448.05500000075,180914.503,180928.25000001176,180931.169,185447.899,,,,
rating_loop,flow.Loop,2_4_3_1,2021-01-14T18:57:19.544Z,,,,,,,,,,,,,,,,,,,,,,,,,,,,,,,,,,,,,,,,,,,,,,,,,,,,,,,,,,,,,,,,,,,,,,,,,,,,,,,,,,,,,,,,,,,,,,,,,,,,,,,,,,,,,,,,,,,58517.21100000075,,completion,,,,,,,,,,,,,,,,,,,,,,,,,,,,,,,,,,,,,,,,,,,,,,,,,,,,,,,,,,,,,,,,,,,,,,,,,,,false,,,,,,,,,185448.7300000037,185448.05500000075,126914.178,126913.98000001209,126930.844,185447.899,,,,
data_transmission,html.Screen,2_4_3_2,2021-01-14T18:57:19.549Z,,,,,,,,,,,,,,,,,,,,,,,,,,,,,,,,,,,,,,,,,,,,,,,,,,,,,,,,,,,,,,,,,,,,,,,,,,,,,,,,,,,,,,,,,,,,,,,,,,,,,,,,,,,,,,,,,,,NaN,,no compatible backend,,,,,,,,,,,,,,,Transferring data,,,,,,,,,,,,,,,,,,,,,,,,,,,,,,,,,,,,,,,,,,,,,,,,,,,,,,,,,,,,false,,,Please wait a second…,,,,,,185453.6300000036,185453.48000001104,,185448.84500000626,,185447.899,,,,
instructions,html.Screen,2_4_3_3,2021-01-14T18:57:33.677Z,,,,,,,,,,,,,,,,,,,,,,,,,,,,,,,,,,,,,,,,,,,,,,,,,,,,,,,,,,,,,,,,,,,,,,,,,,,,,,,,,,,,,,,,,,,,,,,,,,,,,,,,,,,,,,,,,,,14133.661000005988,,done,,,,,,,,,,,,,,,,,,,,,,,,,,,,,,,,,,,,,,,,,,,,,,,,,,,,,,,,,,,,,,,,,,,,,,,,,,,false,,,,,,,,,199581.7900000111,199581.560000006,185431.233,185453.76000000397,185447.899,199597.86,,,,
Q1,html.Screen,2_4_3_4_0,2021-01-14T18:57:38.967Z,,,,,,,,,,,,,,,,,,,,,,,,,,,,,,,,,,,,,,,,,,,,,,,,,,,,,,,,,,,,,,,,,,,,,,,,,,,,,,,,,,,,,,,,,,,,,,,,,,,,,,,,,,,,,,,false,input_Q1==3,,,5273.1650000003865,,response,,,,,,,,,,,,,,,,,,,,,,,,,Q1_i1,Q1_i2,Q1_i3,Q1_i4,1,2,3,4,false,false,correct,false,,,,,,,,,,,,,,,,,,,,,,,,,,,,,,,,,,,,,,click #Q1_i3,false,,,,,,,,,204871.93500000285,204871.02500000037,199581.194,199581.92500000587,199597.86,204881.353,,,,
Q1_correct,html.Screen,2_4_3_4_1,2021-01-14T18:57:40.039Z,,,,,,,,,,,,,,,,,,,,,,,,,,,,,,,,,,,,,,,,,,,,,,,,,,,,,,,,,,,,,,,,,,,,,,,,,,,,,,,,,,,,,,,,,,,,,,,,,,,,,,,,,,,,,,,,,,,1061.7920000120066,,response,,,,,,,,,,,,,,,,,,,,,,,,,,,,,,,,,,,,,,,,,,,,,,,,,,,,,,,,,,,,,,,,,,,,,,,,,,keypress,false,,,,,,,,,205943.71500000125,205943.145000012,204864.687,204872.0949999988,204881.353,205948.035,,,,
Q2,html.Screen,2_4_3_4_2,2021-01-14T18:57:42.974Z,,,,,,,,,,,,,,,,,,,,,,,,,,,,,,,,,,,,,,,,,,,,,,,,,,,,,,,,,,,,,,,,,,,,,,,,,,,,,,,,,,,,,,,,,,,,,,,,,,,,,,,,,,,,,,,,,,,2930.7050000001036,,response,,,,,,,,,,,,,,,,,,,,,,,,,,,,,,,,,,,,,Q2_i3,Q2_i2,Q2_i1,Same amount,Option 2,Option 1,same,opt2,correct,,,,,,,,,,,,,,,,,,,,,,,,,,,,,click #Q2_i1,false,,,,,,,,,208879.41500000306,208878.7400000001,205931.369,205943.81000001158,205948.035,208881.237,,,,
Q2_correct,html.Screen,2_4_3_4_3,2021-01-14T18:57:43.876Z,,,,,,,,,,,,,,,,,,,,,,,,,,,,,,,,,,,,,,,,,,,,,,,,,,,,,,,,,,,,,,,,,,,,,,,,,,,,,,,,,,,,,,,,,,,,,,,,,,,,,,,,,,,,,,,,,,,899.343000006018,,response,,,,,,,,,,,,,,,,,,,,,,,,,,,,,,,,,,,,,,,,,,,,,,,,,,,,,,,,,,,,,,,,,,,,,,,,,,keypress,false,,,,,,,,,209781.10000000743,209780.580000006,208864.571,208879.5550000068,208881.237,209781.249,,,,
Q4,html.Screen,2_4_3_4_4,2021-01-14T18:57:48.847Z,,,,,,,,,,,,,,,,,,,,,,,,,,,,,,,,,,,,,,,,,,,,,,,,,,,,,,,,,,,,,,,,,,,,,,,,,,,,,,,,,,,,,,,,,,,,,,,,,,,,,,,,,,,,,,,,,,,4969.746000009414,,response,,,,,,,,,,,,,,,,,,,,,,,,,,,,,,,,,,,,,,,,,,,,,,Q4_i4,Q4_i1,Q4_i2,Q4_i3,Press the space key,Press the arrow key that corresponds with the snack option I prefer,Indicate the number of food items in each snack option,Press the arrow key that corresponds with the snack option with more food items,pressspace,correct,indicate,morefood,,,,,,,,,,,,,,,,,click #Q4_i1,false,,,,,,,,,214751.82499999937,214750.99500000942,209764.583,209781.1800000054,209781.249,214764.641,,,,
Q4_correct,html.Screen,2_4_3_4_5,2021-01-14T18:57:49.858Z,,,,,,,,,,,,,,,,,,,,,,,,,,,,,,,,,,,,,,,,,,,,,,,,,,,,,,,,,,,,,,,,,,,,,,,,,,,,,,,,,,,,,,,,,,,,,,,,,,,,,,,,,,,,,,,,,,,997.6240000121179,,response,,,,,,,,,,,,,,,,,,,,,,,,,,,,,,,,,,,,,,,,,,,,,,,,,,,,,,,,,,,,,,,,,,,,,,,,,,keypress,false,,,,,,,,,215762.9300000117,215762.26500001212,214747.975,214751.9650000031,214764.641,215764.676,,,,
Q5,html.Screen,2_4_3_4_6,2021-01-14T18:57:53.231Z,,,,,,,,,,,,,,,,,,,,,,,,,,,,,,,,,,,,,,,,,,,,,,,,,,,,,,,,,,,,,,,,,,,,,,,,,,,,,,,,,,,,,,,,,,,,,,,,,,,,,,,,,,,,,,,,,,,3370.414000010671,,response,,,,,,,,,,,,,,,,,,,,,,,,,,,,,,,,,,,,,,,,,,,,,,,,,,,,,,,,,,Q5_i2,Q5_i3,Q5_i4,Q5_i1,There are more pieces of chocolate in snack Option 2,There are more slices of kiwi in snack Option 1,Snack Option 1 has been chosen,Snack Option 2 has been chosen,morechoc2,morekiwi1,chose1,correct,,,,,click #Q5_i1,false,,,,,,,,,219135.9100000118,219135.09000001068,215748.01,215763.10999999987,215764.676,219147.986,,,,
Q5_correct,html.Screen,2_4_3_4_7,2021-01-14T18:57:53.940Z,,,,,,,,,,,,,,,,,,,,,,,,,,,,,,,,,,,,,,,,,,,,,,,,,,,,,,,,,,,,,,,,,,,,,,,,,,,,,,,,,,,,,,,,,,,,,,,,,,,,,,,,,,,,,,,,,,,696.2940000047965,,response,,,,,,,,,,,,,,,,,,,,,,,,,,,,,,,,,,,,,,,,,,,,,,,,,,,,,,,,,,,,,,,,,,,,,,,,,,keypress,false,,,,,,,,,219844.8500000086,219844.2800000048,219131.32,219136.06000000436,219147.986,219848.294,,,,
practice_sequence,flow.Sequence,2_4_3_4,2021-01-14T18:57:53.940Z,,,,,,,,,,,,,,,,,,,,,,,,,,,,,,,,,,,,,,,,,,,,,,,,,,,,,,,,,,,,,,,,,,,,,,,,,,,,,,,,,,,,,,,,,,,,,,,,,,,,,,,,,,,,,,,,,,,20246.420000004815,,completion,,,,,,,,,,,,,,,,,,,,,,,,,,,,,,,,,,,,,,,,,,,,,,,,,,,,,,,,,,,,,,,,,,,,,,,,,,,false,,,,,,,,,219845.00500001013,219844.2800000048,199581.194,199581.89500001026,199597.86,219848.294,,,,
final_instru,html.Screen,2_4_3_5,2021-01-14T18:57:58.337Z,,,,,,,,,,,,,,,,,,,,,,,,,,,,,,,,,,,,,,,,,,,,,,,,,,,,,,,,,,,,,,,,,,,,,,,,,,,,,,,,,,,,,,,,,,,,,,,,,,,,,,,,,,,,,,,,,,,4393.936000003479,,done,,,,,,,,,,,,,,,,,,,,,,,,,,,,,,,,,,,,,,,,,,,,,,,,,,,,,,,,,,,,,,,,,,,,,,,,,,,false,,,,,,,,,224242.37500000163,224242.23000000347,219831.628,219845.09000000253,219848.294,224248.112,,,,
blank_screen,canvas.Screen,2_4_3_6_0,2021-01-14T18:58:00.328Z,,,,,,,,,,,,,,,,,,,,,,,,,,,,,,,,,,,,,,,,,,,,,,,,,,,,,,,,,,,,,,,,,,,,,,,,,,,,,,,,,,,,,,,,,,,,,,,,,,,,,,,,,,,,,,,,,,,2016.5260000000126,,timeout,,,,,,,,,,,,,,,,,,,,,,,,,,,,,,,,,,,,,,,,,,,,,,,,,,,,,,,,,,,,,,,,,,,,,,,,,,,false,,,,,,,,,226232.81000000134,226231.306,224231.446,224242.52500000875,224248.112,226264.638,,,,
fixCross,canvas.Screen,2_4_3_6_1_0_0_0_0_0_0,2021-01-14T18:58:00.644Z,,,blank.png,blank.png,blank.png,blank.png,blank.png,blank.png,blank.png,"[""frie.png""]",blank.png,blank.png,blank.png,blank.png,blank.png,,,,,,,,,,,,,,,,,,,,,,,,,,,,,"[""frie.png""]","[""carrot.png""]",PB18.png,,,,,,,,,,,0,6,"[""carrot.png""]","[""carrot.png""]","[""carrot.png""]","[""carrot.png""]","[""carrot.png""]","[""carrot.png""]",blank.png,PB18.png,PB15.png,"[""carrot.png""]","[""carrot.png""]","[""carrot.png""]","[""carrot.png""]","[""carrot.png""]","[""carrot.png""]","[""carrot.png""]","[""carrot.png""]","[""carrot.png""]","[""carrot.png""]",blank.png,blank.png,1,"[""frie.png""]",blank.png,blank.png,blank.png,4,"[""carrot.png""]","[""carrot.png""]","[""carrot.png""]","[""carrot.png""]",blank.png,blank.png,PB15.png,,,,,,,,,,,1,,,,,,,,,,,,649.9599999999919,,timeout,,,,,,,,,,,,,4,,,,,,,,,,,,,,,,,,,,,,,,,,,,,,,,,,,,,,,,,,,,,,,,,,,,,,,,,"[""carrot.png""]","[""frie.png""]",4,,,false,,1,,,,,,,226549.12999999942,226547.946,226231.306,226263.55500001227,226264.638,226914.598,1,,,
timeout,canvas.Screen,2_4_3_6_1_0_0_0_0_0_1,2021-01-14T18:58:01.494Z,,,blank.png,blank.png,blank.png,blank.png,blank.png,blank.png,blank.png,"[""frie.png""]",blank.png,blank.png,blank.png,blank.png,blank.png,,,,,,,,,,,,,,,,,,,,,,,,,,,,,"[""frie.png""]","[""carrot.png""]",PB18.png,,,,,,,,,,,0,6,"[""carrot.png""]","[""carrot.png""]","[""carrot.png""]","[""carrot.png""]","[""carrot.png""]","[""carrot.png""]",blank.png,PB18.png,PB15.png,"[""carrot.png""]","[""carrot.png""]","[""carrot.png""]","[""carrot.png""]","[""carrot.png""]","[""carrot.png""]","[""carrot.png""]","[""carrot.png""]","[""carrot.png""]","[""carrot.png""]",blank.png,blank.png,1,"[""frie.png""]",blank.png,blank.png,blank.png,4,"[""carrot.png""]","[""carrot.png""]","[""carrot.png""]","[""carrot.png""]",blank.png,blank.png,PB15.png,,,,,,,,,,,1,,,,,,,,,,,,950.2220000000088,,timeout,,,,,,,,,,,,,4,,,,,,,,,,,,,,,,,,,,,,,,,,,,,,,,,,,,,,,,,,,,,,,,,,,,,,,,,"[""carrot.png""]","[""frie.png""]",4,,,false,,1,,,,,,,227399.13499999966,227398.172,226547.946,226989.8600000015,226914.598,227864.82,,,,
choice,canvas.Screen,2_4_3_6_1_0_0_0_0_0_2,2021-01-14T18:58:03.155Z,,,blank.png,blank.png,blank.png,blank.png,blank.png,blank.png,blank.png,"[""frie.png""]",blank.png,blank.png,blank.png,blank.png,blank.png,,,,,,,,,,,,,,,,,,,,,,,,,,,,,"[""frie.png""]","[""carrot.png""]",PB18.png,,,,,,,,,,,0,6,"[""carrot.png""]","[""carrot.png""]","[""carrot.png""]","[""carrot.png""]","[""carrot.png""]","[""carrot.png""]",blank.png,PB18.png,PB15.png,"[""carrot.png""]","[""carrot.png""]","[""carrot.png""]","[""carrot.png""]","[""carrot.png""]","[""carrot.png""]","[""carrot.png""]","[""carrot.png""]","[""carrot.png""]","[""carrot.png""]",blank.png,blank.png,1,"[""frie.png""]",blank.png,blank.png,blank.png,4,"[""carrot.png""]","[""carrot.png""]","[""carrot.png""]","[""carrot.png""]",blank.png,blank.png,PB15.png,,,,,,,,,,,1,,,,,,,,,,,,1194.5850000072387,,response,,,,,,,,,,,,,4,,,,,,,,,,,,,,,,,,,,,,,,,,,,,,,,,,,,,,,,,,,,,,,,,,,,,,,,,"[""carrot.png""]","[""frie.png""]",4,right,keydown(ArrowRight),false,,1,,,,,,,229060.33500000194,229059.40500000725,227398.172,227873.1550000084,227864.82,229497.921,,1,,
square,canvas.Screen,2_4_3_6_1_0_0_0_0_0_3,2021-01-14T18:58:04.577Z,,,blank.png,blank.png,blank.png,blank.png,blank.png,blank.png,blank.png,"[""frie.png""]",blank.png,blank.png,blank.png,blank.png,blank.png,,,,,,,,,,,,,,,,,,,,,,,,,,,,,"[""frie.png""]","[""carrot.png""]",PB18.png,,,,,,,,,,,0,6,"[""carrot.png""]","[""carrot.png""]","[""carrot.png""]","[""carrot.png""]","[""carrot.png""]","[""carrot.png""]",blank.png,PB18.png,PB15.png,"[""carrot.png""]","[""carrot.png""]","[""carrot.png""]","[""carrot.png""]","[""carrot.png""]","[""carrot.png""]","[""carrot.png""]","[""carrot.png""]","[""carrot.png""]","[""carrot.png""]",blank.png,blank.png,1,"[""frie.png""]",blank.png,blank.png,blank.png,4,"[""carrot.png""]","[""carrot.png""]","[""carrot.png""]","[""carrot.png""]",blank.png,blank.png,PB15.png,,,,,,,,,,,1,,#808080,#33ff3f,,,,,,,,,1000.0279999999912,,timeout,,,,,,,,,,,,,4,,,,,,,,,,,,,,,,,,,,,,,,,,,,,,,,,,,,,,,,,,,,,,,,,,,,,,,,,"[""carrot.png""]","[""frie.png""]",4,,,false,,1,,,,,white,black,230482.3250000045,230481.283,229464.589,229474.90500001004,229497.921,230497.949,,,,
ITI_late,canvas.Screen,2_4_3_6_1_0_0_0_0_0_4,2021-01-14T18:58:05.327Z,,,blank.png,blank.png,blank.png,blank.png,blank.png,blank.png,blank.png,"[""frie.png""]",blank.png,blank.png,blank.png,blank.png,blank.png,,,,,,,,,,,,,,,,,,,,,,,,,,,,,"[""frie.png""]","[""carrot.png""]",PB18.png,,,,,,,,,,,0,6,"[""carrot.png""]","[""carrot.png""]","[""carrot.png""]","[""carrot.png""]","[""carrot.png""]","[""carrot.png""]",blank.png,PB18.png,PB15.png,"[""carrot.png""]","[""carrot.png""]","[""carrot.png""]","[""carrot.png""]","[""carrot.png""]","[""carrot.png""]","[""carrot.png""]","[""carrot.png""]","[""carrot.png""]","[""carrot.png""]",blank.png,blank.png,1,"[""frie.png""]",blank.png,blank.png,blank.png,4,"[""carrot.png""]","[""carrot.png""]","[""carrot.png""]","[""carrot.png""]",blank.png,blank.png,PB15.png,,,,,,,,,,,1,,,,,,,,,,,,750.0530000000144,,timeout,,,,,,,,,,,,white,4,,,,,,,,,,,,,,,,,,,,,,,,,,,,,,,,,,,,,,,,,,,,,,,,,,,,,,,,,"[""carrot.png""]","[""frie.png""]",4,,,false,,1,,,,,,,231232.27500000212,231231.336,230481.283,230483.86000000755,230497.949,231248.002,,,,
choice_sequence,flow.Sequence,2_4_3_6_1_0_0_0_0_0,2021-01-14T18:58:05.328Z,,,blank.png,blank.png,blank.png,blank.png,blank.png,blank.png,blank.png,"[""frie.png""]",blank.png,blank.png,blank.png,blank.png,blank.png,,,,,,,,,,,,,,,,,,,,,,,,,,,,,"[""frie.png""]","[""carrot.png""]",PB18.png,,,,,,,,,,,0,6,"[""carrot.png""]","[""carrot.png""]","[""carrot.png""]","[""carrot.png""]","[""carrot.png""]","[""carrot.png""]",blank.png,PB18.png,PB15.png,"[""carrot.png""]","[""carrot.png""]","[""carrot.png""]","[""carrot.png""]","[""carrot.png""]","[""carrot.png""]","[""carrot.png""]","[""carrot.png""]","[""carrot.png""]","[""carrot.png""]",blank.png,blank.png,1,"[""frie.png""]",blank.png,blank.png,blank.png,4,"[""carrot.png""]","[""carrot.png""]","[""carrot.png""]","[""carrot.png""]",blank.png,blank.png,PB15.png,,,,,,,,,,,1,,,,,,,,,,,,4966.698000000004,,completion,,,,,,,,,,,,,4,,,,,,,,,,,,,,,,,,,,,,,,,,,,,,,,,,,,,,,,,,,,,,,,,,,,,,,,,"[""carrot.png""]","[""frie.png""]",4,,,false,,1,,,,,,,231232.75999999896,231231.336,226231.306,226262.54999999946,226264.638,231248.002,,,,
fixCross,canvas.Screen,2_4_3_6_1_0_0_0_0_1_0,2021-01-14T18:58:05.778Z,,,blank.png,blank.png,blank.png,blank.png,blank.png,blank.png,blank.png,"[""frie.png""]",blank.png,blank.png,blank.png,blank.png,blank.png,,,,,,,,,,,,,,,,,,,,,,,,,,,,,"[""frie.png""]","[""carrot.png""]",PB18.png,,,,,,,,,,,0,6,"[""carrot.png""]","[""carrot.png""]","[""carrot.png""]","[""carrot.png""]","[""carrot.png""]","[""carrot.png""]",blank.png,PB18.png,PB12.png,"[""carrot.png""]","[""carrot.png""]","[""carrot.png""]","[""carrot.png""]","[""carrot.png""]","[""carrot.png""]","[""carrot.png""]","[""carrot.png""]",blank.png,blank.png,blank.png,blank.png,1,"[""frie.png""]",blank.png,blank.png,blank.png,2,"[""carrot.png""]","[""carrot.png""]",blank.png,blank.png,blank.png,blank.png,PB12.png,,,,,,,,,,,1,,,,,,,,,,,,816.8029999999853,,timeout,,,,,,,,,,,,,4,,,,,,,,,,,,,,,,,,,,,,,,,,,,,,,,,,,,,,,,,,,,,,,,,,,,,,,,,"[""carrot.png""]","[""frie.png""]",4,,,false,,1,,,,,,,231683.27500000305,231681.487,231231.336,231239.07999999938,231248.002,232064.805,2,,,
timeout,canvas.Screen,2_4_3_6_1_0_0_0_0_1_1,2021-01-14T18:58:06.644Z,,,blank.png,blank.png,blank.png,blank.png,blank.png,blank.png,blank.png,"[""frie.png""]",blank.png,blank.png,blank.png,blank.png,blank.png,,,,,,,,,,,,,,,,,,,,,,,,,,,,,"[""frie.png""]","[""carrot.png""]",PB18.png,,,,,,,,,,,0,6,"[""carrot.png""]","[""carrot.png""]","[""carrot.png""]","[""carrot.png""]","[""carrot.png""]","[""carrot.png""]",blank.png,PB18.png,PB12.png,"[""carrot.png""]","[""carrot.png""]","[""carrot.png""]","[""carrot.png""]","[""carrot.png""]","[""carrot.png""]","[""carrot.png""]","[""carrot.png""]",blank.png,blank.png,blank.png,blank.png,1,"[""frie.png""]",blank.png,blank.png,blank.png,2,"[""carrot.png""]","[""carrot.png""]",blank.png,blank.png,blank.png,blank.png,PB12.png,,,,,,,,,,,1,,,,,,,,,,,,883.2080000000133,,timeout,,,,,,,,,,,,,4,,,,,,,,,,,,,,,,,,,,,,,,,,,,,,,,,,,,,,,,,,,,,,,,,,,,,,,,,"[""carrot.png""]","[""frie.png""]",4,,,false,,1,,,,,,,232549.3700000079,232548.029,231681.487,232069.0450000111,232064.805,232948.013,,,,
choice,canvas.Screen,2_4_3_6_1_0_0_0_0_1_2,2021-01-14T18:58:08.119Z,,,blank.png,blank.png,blank.png,blank.png,blank.png,blank.png,blank.png,"[""frie.png""]",blank.png,blank.png,blank.png,blank.png,blank.png,,,,,,,,,,,,,,,,,,,,,,,,,,,,,"[""frie.png""]","[""carrot.png""]",PB18.png,,,,,,,,,,,0,6,"[""carrot.png""]","[""carrot.png""]","[""carrot.png""]","[""carrot.png""]","[""carrot.png""]","[""carrot.png""]",blank.png,PB18.png,PB12.png,"[""carrot.png""]","[""carrot.png""]","[""carrot.png""]","[""carrot.png""]","[""carrot.png""]","[""carrot.png""]","[""carrot.png""]","[""carrot.png""]",blank.png,blank.png,blank.png,blank.png,1,"[""frie.png""]",blank.png,blank.png,blank.png,2,"[""carrot.png""]","[""carrot.png""]",blank.png,blank.png,blank.png,blank.png,PB12.png,,,,,,,,,,,1,,,,,,,,,,,,1075.2570000051346,,response,,,,,,,,,,,,,4,,,,,,,,,,,,,,,,,,,,,,,,,,,,,,,,,,,,,,,,,,,,,,,,,,,,,,,,,"[""carrot.png""]","[""frie.png""]",4,left,keydown(ArrowLeft),false,,1,,,,,,,234024.2050000088,234023.27000000514,232548.029,232930.67000000156,232948.013,234397.961,,2,,
square,canvas.Screen,2_4_3_6_1_0_0_0_0_1_3,2021-01-14T18:58:09.479Z,,,blank.png,blank.png,blank.png,blank.png,blank.png,blank.png,blank.png,"[""frie.png""]",blank.png,blank.png,blank.png,blank.png,blank.png,,,,,,,,,,,,,,,,,,,,,,,,,,,,,"[""frie.png""]","[""carrot.png""]",PB18.png,,,,,,,,,,,0,6,"[""carrot.png""]","[""carrot.png""]","[""carrot.png""]","[""carrot.png""]","[""carrot.png""]","[""carrot.png""]",blank.png,PB18.png,PB12.png,"[""carrot.png""]","[""carrot.png""]","[""carrot.png""]","[""carrot.png""]","[""carrot.png""]","[""carrot.png""]","[""carrot.png""]","[""carrot.png""]",blank.png,blank.png,blank.png,blank.png,1,"[""frie.png""]",blank.png,blank.png,blank.png,2,"[""carrot.png""]","[""carrot.png""]",blank.png,blank.png,blank.png,blank.png,PB12.png,,,,,,,,,,,1,,#33ff3f,#808080,,,,,,,,,1000.0460000000021,,timeout,,,,,,,,,,,,,4,,,,,,,,,,,,,,,,,,,,,,,,,,,,,,,,,,,,,,,,,,,,,,,,,,,,,,,,,"[""carrot.png""]","[""frie.png""]",4,,,false,,1,,,,,black,white,235383.57000000542,235381.341,234381.295,234383.50500000524,234397.961,235398.007,,,,
ITI_late,canvas.Screen,2_4_3_6_1_0_0_0_0_1_4,2021-01-14T18:58:10.478Z,,,blank.png,blank.png,blank.png,blank.png,blank.png,blank.png,blank.png,"[""frie.png""]",blank.png,blank.png,blank.png,blank.png,blank.png,,,,,,,,,,,,,,,,,,,,,,,,,,,,,"[""frie.png""]","[""carrot.png""]",PB18.png,,,,,,,,,,,0,6,"[""carrot.png""]","[""carrot.png""]","[""carrot.png""]","[""carrot.png""]","[""carrot.png""]","[""carrot.png""]",blank.png,PB18.png,PB12.png,"[""carrot.png""]","[""carrot.png""]","[""carrot.png""]","[""carrot.png""]","[""carrot.png""]","[""carrot.png""]","[""carrot.png""]","[""carrot.png""]",blank.png,blank.png,blank.png,blank.png,1,"[""frie.png""]",blank.png,blank.png,blank.png,2,"[""carrot.png""]","[""carrot.png""]",blank.png,blank.png,blank.png,blank.png,PB12.png,,,,,,,,,,,1,,,,,,,,,,,,1000.0270000000019,,timeout,,,,,,,,,,,,white,4,,,,,,,,,,,,,,,,,,,,,,,,,,,,,,,,,,,,,,,,,,,,,,,,,,,,,,,,,"[""carrot.png""]","[""frie.png""]",4,,,false,,1,,,,,,,236383.2650000113,236381.368,235381.341,235385.1399999985,235398.007,236398.034,,,,
choice_sequence,flow.Sequence,2_4_3_6_1_0_0_0_0_1,2021-01-14T18:58:10.479Z,,,blank.png,blank.png,blank.png,blank.png,blank.png,blank.png,blank.png,"[""frie.png""]",blank.png,blank.png,blank.png,blank.png,blank.png,,,,,,,,,,,,,,,,,,,,,,,,,,,,,"[""frie.png""]","[""carrot.png""]",PB18.png,,,,,,,,,,,0,6,"[""carrot.png""]","[""carrot.png""]","[""carrot.png""]","[""carrot.png""]","[""carrot.png""]","[""carrot.png""]",blank.png,PB18.png,PB12.png,"[""carrot.png""]","[""carrot.png""]","[""carrot.png""]","[""carrot.png""]","[""carrot.png""]","[""carrot.png""]","[""carrot.png""]","[""carrot.png""]",blank.png,blank.png,blank.png,blank.png,1,"[""frie.png""]",blank.png,blank.png,blank.png,2,"[""carrot.png""]","[""carrot.png""]",blank.png,blank.png,blank.png,blank.png,PB12.png,,,,,,,,,,,1,,,,,,,,,,,,5133.36599999998,,completion,,,,,,,,,,,,,4,,,,,,,,,,,,,,,,,,,,,,,,,,,,,,,,,,,,,,,,,,,,,,,,,,,,,,,,,"[""carrot.png""]","[""frie.png""]",4,,,false,,1,,,,,,,236383.75500000257,236381.368,231231.336,231238.16500000248,231248.002,236398.034,,,,
fixCross,canvas.Screen,2_4_3_6_1_0_0_0_0_2_0,2021-01-14T18:58:10.879Z,,,blank.png,blank.png,blank.png,blank.png,blank.png,blank.png,blank.png,"[""frie.png""]",blank.png,blank.png,blank.png,blank.png,blank.png,,,,,,,,,,,,,,,,,,,,,,,,,,,,,"[""frie.png""]","[""carrot.png""]",PB18.png,,,,,,,,,,,0,6,"[""carrot.png""]","[""carrot.png""]","[""carrot.png""]","[""carrot.png""]","[""carrot.png""]","[""carrot.png""]",blank.png,PB18.png,PB14.png,"[""carrot.png""]","[""carrot.png""]","[""carrot.png""]","[""carrot.png""]","[""carrot.png""]","[""carrot.png""]","[""carrot.png""]","[""carrot.png""]","[""carrot.png""]",blank.png,blank.png,blank.png,1,"[""frie.png""]",blank.png,blank.png,blank.png,3,"[""carrot.png""]","[""carrot.png""]","[""carrot.png""]",blank.png,blank.png,blank.png,PB14.png,,,,,,,,,,,1,,,,,,,,,,,,800.3319999999949,,timeout,,,,,,,,,,,,,4,,,,,,,,,,,,,,,,,,,,,,,,,,,,,,,,,,,,,,,,,,,,,,,,,,,,,,,,,"[""carrot.png""]","[""frie.png""]",4,,,false,,1,,,,,,,236784.23499999917,236781.716,236381.368,236388.5900000023,236398.034,237198.366,3,,,
timeout,canvas.Screen,2_4_3_6_1_0_0_0_0_2_1,2021-01-14T18:58:11.777Z,,,blank.png,blank.png,blank.png,blank.png,blank.png,blank.png,blank.png,"[""frie.png""]",blank.png,blank.png,blank.png,blank.png,blank.png,,,,,,,,,,,,,,,,,,,,,,,,,,,,,"[""frie.png""]","[""carrot.png""]",PB18.png,,,,,,,,,,,0,6,"[""carrot.png""]","[""carrot.png""]","[""carrot.png""]","[""carrot.png""]","[""carrot.png""]","[""carrot.png""]",blank.png,PB18.png,PB14.png,"[""carrot.png""]","[""carrot.png""]","[""carrot.png""]","[""carrot.png""]","[""carrot.png""]","[""carrot.png""]","[""carrot.png""]","[""carrot.png""]","[""carrot.png""]",blank.png,blank.png,blank.png,1,"[""frie.png""]",blank.png,blank.png,blank.png,3,"[""carrot.png""]","[""carrot.png""]","[""carrot.png""]",blank.png,blank.png,blank.png,PB14.png,,,,,,,,,,,1,,,,,,,,,,,,866.3340000000026,,timeout,,,,,,,,,,,,,4,,,,,,,,,,,,,,,,,,,,,,,,,,,,,,,,,,,,,,,,,,,,,,,,,,,,,,,,,"[""carrot.png""]","[""frie.png""]",4,,,false,,1,,,,,,,237682.0250000019,237681.382,236781.716,237210.50000000105,237198.366,238064.7,,,,
choice,canvas.Screen,2_4_3_6_1_0_0_0_0_2_2,2021-01-14T18:58:12.383Z,,,blank.png,blank.png,blank.png,blank.png,blank.png,blank.png,blank.png,"[""frie.png""]",blank.png,blank.png,blank.png,blank.png,blank.png,,,,,,,,,,,,,,,,,,,,,,,,,,,,,"[""frie.png""]","[""carrot.png""]",PB18.png,,,,,,,,,,,0,6,"[""carrot.png""]","[""carrot.png""]","[""carrot.png""]","[""carrot.png""]","[""carrot.png""]","[""carrot.png""]",blank.png,PB18.png,PB14.png,"[""carrot.png""]","[""carrot.png""]","[""carrot.png""]","[""carrot.png""]","[""carrot.png""]","[""carrot.png""]","[""carrot.png""]","[""carrot.png""]","[""carrot.png""]",blank.png,blank.png,blank.png,1,"[""frie.png""]",blank.png,blank.png,blank.png,3,"[""carrot.png""]","[""carrot.png""]","[""carrot.png""]",blank.png,blank.png,blank.png,PB14.png,,,,,,,,,,,1,,,,,,,,,,,,222.08000000944594,,response,,,,,,,,,,,,,4,,,,,,,,,,,,,,,,,,,,,,,,,,,,,,,,,,,,,,,,,,,,,,,,,,,,,,,,,"[""carrot.png""]","[""frie.png""]",4,left,keydown(ArrowLeft),false,,1,,,,,,,238287.89000000688,238286.78000000946,237681.382,238077.68000000215,238064.7,238714.75,,3,,
square,canvas.Screen,2_4_3_6_1_0_0_0_0_2_3,2021-01-14T18:58:13.795Z,,,blank.png,blank.png,blank.png,blank.png,blank.png,blank.png,blank.png,"[""frie.png""]",blank.png,blank.png,blank.png,blank.png,blank.png,,,,,,,,,,,,,,,,,,,,,,,,,,,,,"[""frie.png""]","[""carrot.png""]",PB18.png,,,,,,,,,,,0,6,"[""carrot.png""]","[""carrot.png""]","[""carrot.png""]","[""carrot.png""]","[""carrot.png""]","[""carrot.png""]",blank.png,PB18.png,PB14.png,"[""carrot.png""]","[""carrot.png""]","[""carrot.png""]","[""carrot.png""]","[""carrot.png""]","[""carrot.png""]","[""carrot.png""]","[""carrot.png""]","[""carrot.png""]",blank.png,blank.png,blank.png,1,"[""frie.png""]",blank.png,blank.png,blank.png,3,"[""carrot.png""]","[""carrot.png""]","[""carrot.png""]",blank.png,blank.png,blank.png,PB14.png,,,,,,,,,,,1,,#33ff3f,#808080,,,,,,,,,1000.0989999999874,,timeout,,,,,,,,,,,,,4,,,,,,,,,,,,,,,,,,,,,,,,,,,,,,,,,,,,,,,,,,,,,,,,,,,,,,,,,"[""carrot.png""]","[""frie.png""]",4,,,false,,1,,,,,black,white,239699.63500001177,239698.183,238698.084,238698.23000000906,238714.75,239714.849,,,,
ITI_late,canvas.Screen,2_4_3_6_1_0_0_0_0_2_4,2021-01-14T18:58:14.044Z,,,blank.png,blank.png,blank.png,blank.png,blank.png,blank.png,blank.png,"[""frie.png""]",blank.png,blank.png,blank.png,blank.png,blank.png,,,,,,,,,,,,,,,,,,,,,,,,,,,,,"[""frie.png""]","[""carrot.png""]",PB18.png,,,,,,,,,,,0,6,"[""carrot.png""]","[""carrot.png""]","[""carrot.png""]","[""carrot.png""]","[""carrot.png""]","[""carrot.png""]",blank.png,PB18.png,PB14.png,"[""carrot.png""]","[""carrot.png""]","[""carrot.png""]","[""carrot.png""]","[""carrot.png""]","[""carrot.png""]","[""carrot.png""]","[""carrot.png""]","[""carrot.png""]",blank.png,blank.png,blank.png,1,"[""frie.png""]",blank.png,blank.png,blank.png,3,"[""carrot.png""]","[""carrot.png""]","[""carrot.png""]",blank.png,blank.png,blank.png,PB14.png,,,,,,,,,,,1,,,,,,,,,,,,249.91200000001118,,timeout,,,,,,,,,,,,white,4,,,,,,,,,,,,,,,,,,,,,,,,,,,,,,,,,,,,,,,,,,,,,,,,,,,,,,,,,"[""carrot.png""]","[""frie.png""]",4,,,false,,1,,,,,,,239949.45000000007,239948.095,239698.183,239701.18499999808,239714.849,239964.761,,,,
choice_sequence,flow.Sequence,2_4_3_6_1_0_0_0_0_2,2021-01-14T18:58:14.045Z,,,blank.png,blank.png,blank.png,blank.png,blank.png,blank.png,blank.png,"[""frie.png""]",blank.png,blank.png,blank.png,blank.png,blank.png,,,,,,,,,,,,,,,,,,,,,,,,,,,,,"[""frie.png""]","[""carrot.png""]",PB18.png,,,,,,,,,,,0,6,"[""carrot.png""]","[""carrot.png""]","[""carrot.png""]","[""carrot.png""]","[""carrot.png""]","[""carrot.png""]",blank.png,PB18.png,PB14.png,"[""carrot.png""]","[""carrot.png""]","[""carrot.png""]","[""carrot.png""]","[""carrot.png""]","[""carrot.png""]","[""carrot.png""]","[""carrot.png""]","[""carrot.png""]",blank.png,blank.png,blank.png,1,"[""frie.png""]",blank.png,blank.png,blank.png,3,"[""carrot.png""]","[""carrot.png""]","[""carrot.png""]",blank.png,blank.png,blank.png,PB14.png,,,,,,,,,,,1,,,,,,,,,,,,3550.060999999987,,completion,,,,,,,,,,,,,4,,,,,,,,,,,,,,,,,,,,,,,,,,,,,,,,,,,,,,,,,,,,,,,,,,,,,,,,,"[""carrot.png""]","[""frie.png""]",4,,,false,,1,,,,,,,239949.95000000927,239948.095,236381.368,236387.57500000065,236398.034,239964.761,,,,
fixCross,canvas.Screen,2_4_3_6_1_0_0_0_0_3_0,2021-01-14T18:58:14.694Z,,,blank.png,blank.png,blank.png,blank.png,blank.png,blank.png,blank.png,"[""frie.png""]",blank.png,blank.png,blank.png,blank.png,blank.png,,,,,,,,,,,,,,,,,,,,,,,,,,,,,"[""frie.png""]","[""carrot.png""]",PB18.png,,,,,,,,,,,0,6,"[""carrot.png""]","[""carrot.png""]","[""carrot.png""]","[""carrot.png""]","[""carrot.png""]","[""carrot.png""]",blank.png,PB18.png,PB16.png,"[""carrot.png""]","[""carrot.png""]","[""carrot.png""]","[""carrot.png""]","[""carrot.png""]","[""carrot.png""]","[""carrot.png""]","[""carrot.png""]","[""carrot.png""]","[""carrot.png""]","[""carrot.png""]",blank.png,1,"[""frie.png""]",blank.png,blank.png,blank.png,5,"[""carrot.png""]","[""carrot.png""]","[""carrot.png""]","[""carrot.png""]","[""carrot.png""]",blank.png,PB16.png,,,,,,,,,,,1,,,,,,,,,,,,1083.2179999999935,,timeout,,,,,,,,,,,,,4,,,,,,,,,,,,,,,,,,,,,,,,,,,,,,,,,,,,,,,,,,,,,,,,,,,,,,,,,"[""carrot.png""]","[""frie.png""]",4,,,false,,1,,,,,,,240599.08500000893,240597.997,239948.095,239953.77500000177,239964.761,241047.979,4,,,
timeout,canvas.Screen,2_4_3_6_1_0_0_0_0_3_1,2021-01-14T18:58:15.628Z,,,blank.png,blank.png,blank.png,blank.png,blank.png,blank.png,blank.png,"[""frie.png""]",blank.png,blank.png,blank.png,blank.png,blank.png,,,,,,,,,,,,,,,,,,,,,,,,,,,,,"[""frie.png""]","[""carrot.png""]",PB18.png,,,,,,,,,,,0,6,"[""carrot.png""]","[""carrot.png""]","[""carrot.png""]","[""carrot.png""]","[""carrot.png""]","[""carrot.png""]",blank.png,PB18.png,PB16.png,"[""carrot.png""]","[""carrot.png""]","[""carrot.png""]","[""carrot.png""]","[""carrot.png""]","[""carrot.png""]","[""carrot.png""]","[""carrot.png""]","[""carrot.png""]","[""carrot.png""]","[""carrot.png""]",blank.png,1,"[""frie.png""]",blank.png,blank.png,blank.png,5,"[""carrot.png""]","[""carrot.png""]","[""carrot.png""]","[""carrot.png""]","[""carrot.png""]",blank.png,PB16.png,,,,,,,,,,,1,,,,,,,,,,,,916.6540000000095,,timeout,,,,,,,,,,,,,4,,,,,,,,,,,,,,,,,,,,,,,,,,,,,,,,,,,,,,,,,,,,,,,,,,,,,,,,,"[""carrot.png""]","[""frie.png""]",4,,,false,,1,,,,,,,241533.11000000394,241531.317,240597.997,241053.02500000107,241047.979,241964.633,,,,
choice,canvas.Screen,2_4_3_6_1_0_0_0_0_3_2,2021-01-14T18:58:17.831Z,,,blank.png,blank.png,blank.png,blank.png,blank.png,blank.png,blank.png,"[""frie.png""]",blank.png,blank.png,blank.png,blank.png,blank.png,,,,,,,,,,,,,,,,,,,,,,,,,,,,,"[""frie.png""]","[""carrot.png""]",PB18.png,,,,,,,,,,,0,6,"[""carrot.png""]","[""carrot.png""]","[""carrot.png""]","[""carrot.png""]","[""carrot.png""]","[""carrot.png""]",blank.png,PB18.png,PB16.png,"[""carrot.png""]","[""carrot.png""]","[""carrot.png""]","[""carrot.png""]","[""carrot.png""]","[""carrot.png""]","[""carrot.png""]","[""carrot.png""]","[""carrot.png""]","[""carrot.png""]","[""carrot.png""]",blank.png,1,"[""frie.png""]",blank.png,blank.png,blank.png,5,"[""carrot.png""]","[""carrot.png""]","[""carrot.png""]","[""carrot.png""]","[""carrot.png""]",blank.png,PB16.png,,,,,,,,,,,1,,,,,,,,,,,,1770.6819999980798,,response,,,,,,,,,,,,,4,,,,,,,,,,,,,,,,,,,,,,,,,,,,,,,,,,,,,,,,,,,,,,,,,,,,,,,,,"[""carrot.png""]","[""frie.png""]",4,right,keydown(ArrowRight),false,,1,,,,,,,243736.45000001125,243735.31499999808,241531.317,241967.88500000548,241964.633,244164.694,,4,,
square,canvas.Screen,2_4_3_6_1_0_0_0_0_3_3,2021-01-14T18:58:19.244Z,,,blank.png,blank.png,blank.png,blank.png,blank.png,blank.png,blank.png,"[""frie.png""]",blank.png,blank.png,blank.png,blank.png,blank.png,,,,,,,,,,,,,,,,,,,,,,,,,,,,,"[""frie.png""]","[""carrot.png""]",PB18.png,,,,,,,,,,,0,6,"[""carrot.png""]","[""carrot.png""]","[""carrot.png""]","[""carrot.png""]","[""carrot.png""]","[""carrot.png""]",blank.png,PB18.png,PB16.png,"[""carrot.png""]","[""carrot.png""]","[""carrot.png""]","[""carrot.png""]","[""carrot.png""]","[""carrot.png""]","[""carrot.png""]","[""carrot.png""]","[""carrot.png""]","[""carrot.png""]","[""carrot.png""]",blank.png,1,"[""frie.png""]",blank.png,blank.png,blank.png,5,"[""carrot.png""]","[""carrot.png""]","[""carrot.png""]","[""carrot.png""]","[""carrot.png""]",blank.png,PB16.png,,,,,,,,,,,1,,#808080,#33ff3f,,,,,,,,,999.9990000000107,,timeout,,,,,,,,,,,,,4,,,,,,,,,,,,,,,,,,,,,,,,,,,,,,,,,,,,,,,,,,,,,,,,,,,,,,,,,"[""carrot.png""]","[""frie.png""]",4,,,false,,1,,,,,white,black,245149.29500001017,245148.027,244148.028,244159.1100000078,244164.694,245164.693,,,,
ITI_late,canvas.Screen,2_4_3_6_1_0_0_0_0_3_4,2021-01-14T18:58:20.494Z,,,blank.png,blank.png,blank.png,blank.png,blank.png,blank.png,blank.png,"[""frie.png""]",blank.png,blank.png,blank.png,blank.png,blank.png,,,,,,,,,,,,,,,,,,,,,,,,,,,,,"[""frie.png""]","[""carrot.png""]",PB18.png,,,,,,,,,,,0,6,"[""carrot.png""]","[""carrot.png""]","[""carrot.png""]","[""carrot.png""]","[""carrot.png""]","[""carrot.png""]",blank.png,PB18.png,PB16.png,"[""carrot.png""]","[""carrot.png""]","[""carrot.png""]","[""carrot.png""]","[""carrot.png""]","[""carrot.png""]","[""carrot.png""]","[""carrot.png""]","[""carrot.png""]","[""carrot.png""]","[""carrot.png""]",blank.png,1,"[""frie.png""]",blank.png,blank.png,blank.png,5,"[""carrot.png""]","[""carrot.png""]","[""carrot.png""]","[""carrot.png""]","[""carrot.png""]",blank.png,PB16.png,,,,,,,,,,,1,,,,,,,,,,,,1250.0050000000047,,timeout,,,,,,,,,,,,white,4,,,,,,,,,,,,,,,,,,,,,,,,,,,,,,,,,,,,,,,,,,,,,,,,,,,,,,,,,"[""carrot.png""]","[""frie.png""]",4,,,false,,1,,,,,,,246399.0449999983,246398.032,245148.027,245150.7050000073,245164.693,246414.698,,,,
choice_sequence,flow.Sequence,2_4_3_6_1_0_0_0_0_3,2021-01-14T18:58:20.494Z,,,blank.png,blank.png,blank.png,blank.png,blank.png,blank.png,blank.png,"[""frie.png""]",blank.png,blank.png,blank.png,blank.png,blank.png,,,,,,,,,,,,,,,,,,,,,,,,,,,,,"[""frie.png""]","[""carrot.png""]",PB18.png,,,,,,,,,,,0,6,"[""carrot.png""]","[""carrot.png""]","[""carrot.png""]","[""carrot.png""]","[""carrot.png""]","[""carrot.png""]",blank.png,PB18.png,PB16.png,"[""carrot.png""]","[""carrot.png""]","[""carrot.png""]","[""carrot.png""]","[""carrot.png""]","[""carrot.png""]","[""carrot.png""]","[""carrot.png""]","[""carrot.png""]","[""carrot.png""]","[""carrot.png""]",blank.png,1,"[""frie.png""]",blank.png,blank.png,blank.png,5,"[""carrot.png""]","[""carrot.png""]","[""carrot.png""]","[""carrot.png""]","[""carrot.png""]",blank.png,PB16.png,,,,,,,,,,,1,,,,,,,,,,,,6433.271000000008,,completion,,,,,,,,,,,,,4,,,,,,,,,,,,,,,,,,,,,,,,,,,,,,,,,,,,,,,,,,,,,,,,,,,,,,,,,"[""carrot.png""]","[""frie.png""]",4,,,false,,1,,,,,,,246399.38500001153,246398.032,239948.095,239953.07500001218,239964.761,246414.698,,,,
fixCross,canvas.Screen,2_4_3_6_1_0_0_0_0_4_0,2021-01-14T18:58:20.994Z,,,blank.png,blank.png,blank.png,blank.png,blank.png,blank.png,blank.png,"[""frie.png""]",blank.png,blank.png,blank.png,blank.png,blank.png,,,,,,,,,,,,,,,,,,,,,,,,,,,,,"[""frie.png""]","[""carrot.png""]",PB18.png,,,,,,,,,,,0,6,"[""carrot.png""]","[""carrot.png""]","[""carrot.png""]","[""carrot.png""]","[""carrot.png""]","[""carrot.png""]",blank.png,PB18.png,PB01.png,"[""carrot.png""]","[""carrot.png""]","[""carrot.png""]","[""carrot.png""]","[""carrot.png""]","[""carrot.png""]",blank.png,blank.png,blank.png,blank.png,blank.png,blank.png,1,"[""frie.png""]",blank.png,blank.png,blank.png,0,blank.png,blank.png,blank.png,blank.png,blank.png,blank.png,PB01.png,,,,,,,,,,,1,,,,,,,,,,,,833.3319999999949,,timeout,,,,,,,,,,,,,4,,,,,,,,,,,,,,,,,,,,,,,,,,,,,,,,,,,,,,,,,,,,,,,,,,,,,,,,,"[""carrot.png""]","[""frie.png""]",4,,,false,,1,,,,,,,246899.40000000934,246898.044,246398.032,246402.93500000553,246414.698,247248.03,5,,,
timeout,canvas.Screen,2_4_3_6_1_0_0_0_0_4_1,2021-01-14T18:58:21.828Z,,,blank.png,blank.png,blank.png,blank.png,blank.png,blank.png,blank.png,"[""frie.png""]",blank.png,blank.png,blank.png,blank.png,blank.png,,,,,,,,,,,,,,,,,,,,,,,,,,,,,"[""frie.png""]","[""carrot.png""]",PB18.png,,,,,,,,,,,0,6,"[""carrot.png""]","[""carrot.png""]","[""carrot.png""]","[""carrot.png""]","[""carrot.png""]","[""carrot.png""]",blank.png,PB18.png,PB01.png,"[""carrot.png""]","[""carrot.png""]","[""carrot.png""]","[""carrot.png""]","[""carrot.png""]","[""carrot.png""]",blank.png,blank.png,blank.png,blank.png,blank.png,blank.png,1,"[""frie.png""]",blank.png,blank.png,blank.png,0,blank.png,blank.png,blank.png,blank.png,blank.png,blank.png,PB01.png,,,,,,,,,,,1,,,,,,,,,,,,833.3580000000075,,timeout,,,,,,,,,,,,,4,,,,,,,,,,,,,,,,,,,,,,,,,,,,,,,,,,,,,,,,,,,,,,,,,,,,,,,,,"[""carrot.png""]","[""frie.png""]",4,,,false,,1,,,,,,,247732.66500000318,247731.402,246898.044,247251.91000000632,247248.03,248081.388,,,,
choice,canvas.Screen,2_4_3_6_1_0_0_0_0_4_2,2021-01-14T18:58:22.639Z,,,blank.png,blank.png,blank.png,blank.png,blank.png,blank.png,blank.png,"[""frie.png""]",blank.png,blank.png,blank.png,blank.png,blank.png,,,,,,,,,,,,,,,,,,,,,,,,,,,,,"[""frie.png""]","[""carrot.png""]",PB18.png,,,,,,,,,,,0,6,"[""carrot.png""]","[""carrot.png""]","[""carrot.png""]","[""carrot.png""]","[""carrot.png""]","[""carrot.png""]",blank.png,PB18.png,PB01.png,"[""carrot.png""]","[""carrot.png""]","[""carrot.png""]","[""carrot.png""]","[""carrot.png""]","[""carrot.png""]",blank.png,blank.png,blank.png,blank.png,blank.png,blank.png,1,"[""frie.png""]",blank.png,blank.png,blank.png,0,blank.png,blank.png,blank.png,blank.png,blank.png,blank.png,PB01.png,,,,,,,,,,,1,,,,,,,,,,,,462.27200001027086,,response,,,,,,,,,,,,,4,,,,,,,,,,,,,,,,,,,,,,,,,,,,,,,,,,,,,,,,,,,,,,,,,,,,,,,,,"[""carrot.png""]","[""frie.png""]",4,left,keydown(ArrowLeft),false,,1,,,,,,,248544.37500001222,248543.66000001028,247731.402,248078.02000000083,248081.388,248881.426,,5,,
square,canvas.Screen,2_4_3_6_1_0_0_0_0_4_3,2021-01-14T18:58:23.961Z,,,blank.png,blank.png,blank.png,blank.png,blank.png,blank.png,blank.png,"[""frie.png""]",blank.png,blank.png,blank.png,blank.png,blank.png,,,,,,,,,,,,,,,,,,,,,,,,,,,,,"[""frie.png""]","[""carrot.png""]",PB18.png,,,,,,,,,,,0,6,"[""carrot.png""]","[""carrot.png""]","[""carrot.png""]","[""carrot.png""]","[""carrot.png""]","[""carrot.png""]",blank.png,PB18.png,PB01.png,"[""carrot.png""]","[""carrot.png""]","[""carrot.png""]","[""carrot.png""]","[""carrot.png""]","[""carrot.png""]",blank.png,blank.png,blank.png,blank.png,blank.png,blank.png,1,"[""frie.png""]",blank.png,blank.png,blank.png,0,blank.png,blank.png,blank.png,blank.png,blank.png,blank.png,PB01.png,,,,,,,,,,,1,,#33ff3f,#808080,,,,,,,,,1000.0219999999972,,timeout,,,,,,,,,,,,,4,,,,,,,,,,,,,,,,,,,,,,,,,,,,,,,,,,,,,,,,,,,,,,,,,,,,,,,,,"[""carrot.png""]","[""frie.png""]",4,,,false,,1,,,,,black,white,249866.1950000096,249864.782,248864.76,248865.6650000048,248881.426,249881.448,,,,
ITI_late,canvas.Screen,2_4_3_6_1_0_0_0_0_4_4,2021-01-14T18:58:25.211Z,,,blank.png,blank.png,blank.png,blank.png,blank.png,blank.png,blank.png,"[""frie.png""]",blank.png,blank.png,blank.png,blank.png,blank.png,,,,,,,,,,,,,,,,,,,,,,,,,,,,,"[""frie.png""]","[""carrot.png""]",PB18.png,,,,,,,,,,,0,6,"[""carrot.png""]","[""carrot.png""]","[""carrot.png""]","[""carrot.png""]","[""carrot.png""]","[""carrot.png""]",blank.png,PB18.png,PB01.png,"[""carrot.png""]","[""carrot.png""]","[""carrot.png""]","[""carrot.png""]","[""carrot.png""]","[""carrot.png""]",blank.png,blank.png,blank.png,blank.png,blank.png,blank.png,1,"[""frie.png""]",blank.png,blank.png,blank.png,0,blank.png,blank.png,blank.png,blank.png,blank.png,blank.png,PB01.png,,,,,,,,,,,1,,,,,,,,,,,,1250.1110000000044,,timeout,,,,,,,,,,,,white,4,,,,,,,,,,,,,,,,,,,,,,,,,,,,,,,,,,,,,,,,,,,,,,,,,,,,,,,,,"[""carrot.png""]","[""frie.png""]",4,,,false,,1,,,,,,,251115.7749999984,251114.893,249864.782,249867.78500000946,249881.448,251131.559,,,,
choice_sequence,flow.Sequence,2_4_3_6_1_0_0_0_0_4,2021-01-14T18:58:25.211Z,,,blank.png,blank.png,blank.png,blank.png,blank.png,blank.png,blank.png,"[""frie.png""]",blank.png,blank.png,blank.png,blank.png,blank.png,,,,,,,,,,,,,,,,,,,,,,,,,,,,,"[""frie.png""]","[""carrot.png""]",PB18.png,,,,,,,,,,,0,6,"[""carrot.png""]","[""carrot.png""]","[""carrot.png""]","[""carrot.png""]","[""carrot.png""]","[""carrot.png""]",blank.png,PB18.png,PB01.png,"[""carrot.png""]","[""carrot.png""]","[""carrot.png""]","[""carrot.png""]","[""carrot.png""]","[""carrot.png""]",blank.png,blank.png,blank.png,blank.png,blank.png,blank.png,1,"[""frie.png""]",blank.png,blank.png,blank.png,0,blank.png,blank.png,blank.png,blank.png,blank.png,blank.png,PB01.png,,,,,,,,,,,1,,,,,,,,,,,,4700.195000000007,,completion,,,,,,,,,,,,,4,,,,,,,,,,,,,,,,,,,,,,,,,,,,,,,,,,,,,,,,,,,,,,,,,,,,,,,,,"[""carrot.png""]","[""frie.png""]",4,,,false,,1,,,,,,,251116.1800000118,251114.893,246398.032,246402.27500000037,246414.698,251131.559,,,,
fixCross,canvas.Screen,2_4_3_6_1_0_0_0_0_5_0,2021-01-14T18:58:25.661Z,,,blank.png,"[""frie.png""]",blank.png,blank.png,blank.png,blank.png,blank.png,blank.png,blank.png,blank.png,blank.png,blank.png,blank.png,,,,,,,,,,,,,,,,,,,,,,,,,,,,,"[""frie.png""]","[""carrot.png""]",PB17.png,,,,,,,,,,,0,6,"[""carrot.png""]","[""carrot.png""]","[""carrot.png""]","[""carrot.png""]","[""carrot.png""]","[""carrot.png""]",blank.png,PB18.png,PB18.png,"[""carrot.png""]","[""carrot.png""]","[""carrot.png""]","[""carrot.png""]","[""carrot.png""]","[""carrot.png""]","[""carrot.png""]","[""carrot.png""]","[""carrot.png""]","[""carrot.png""]","[""carrot.png""]","[""carrot.png""]",1,"[""frie.png""]",blank.png,blank.png,blank.png,6,"[""carrot.png""]","[""carrot.png""]","[""carrot.png""]","[""carrot.png""]","[""carrot.png""]","[""carrot.png""]",PB17.png,,,,,,,,,,,1,,,,,,,,,,,,916.734999999986,,timeout,,,,,,,,,,,,,3,,,,,,,,,,,,,,,,,,,,,,,,,,,,,,,,,,,,,,,,,,,,,,,,,,,,,,,,,"[""carrot.png""]","[""frie.png""]",4,,,false,,1,,,,,,,251566.18500000332,251564.98,251114.893,251120.55000000692,251131.559,252048.294,6,,,
timeout,canvas.Screen,2_4_3_6_1_0_0_0_0_5_1,2021-01-14T18:58:26.627Z,,,blank.png,"[""frie.png""]",blank.png,blank.png,blank.png,blank.png,blank.png,blank.png,blank.png,blank.png,blank.png,blank.png,blank.png,,,,,,,,,,,,,,,,,,,,,,,,,,,,,"[""frie.png""]","[""carrot.png""]",PB17.png,,,,,,,,,,,0,6,"[""carrot.png""]","[""carrot.png""]","[""carrot.png""]","[""carrot.png""]","[""carrot.png""]","[""carrot.png""]",blank.png,PB18.png,PB18.png,"[""carrot.png""]","[""carrot.png""]","[""carrot.png""]","[""carrot.png""]","[""carrot.png""]","[""carrot.png""]","[""carrot.png""]","[""carrot.png""]","[""carrot.png""]","[""carrot.png""]","[""carrot.png""]","[""carrot.png""]",1,"[""frie.png""]",blank.png,blank.png,blank.png,6,"[""carrot.png""]","[""carrot.png""]","[""carrot.png""]","[""carrot.png""]","[""carrot.png""]","[""carrot.png""]",PB17.png,,,,,,,,,,,1,,,,,,,,,,,,966.5240000000049,,timeout,,,,,,,,,,,,,3,,,,,,,,,,,,,,,,,,,,,,,,,,,,,,,,,,,,,,,,,,,,,,,,,,,,,,,,,"[""carrot.png""]","[""frie.png""]",4,,,false,,1,,,,,,,252532.51000000455,252531.504,251564.98,252057.55000001227,252048.294,253014.818,,,,
choice,canvas.Screen,2_4_3_6_1_0_0_0_0_5_2,2021-01-14T18:58:27.117Z,,,blank.png,"[""frie.png""]",blank.png,blank.png,blank.png,blank.png,blank.png,blank.png,blank.png,blank.png,blank.png,blank.png,blank.png,,,,,,,,,,,,,,,,,,,,,,,,,,,,,"[""frie.png""]","[""carrot.png""]",PB17.png,,,,,,,,,,,0,6,"[""carrot.png""]","[""carrot.png""]","[""carrot.png""]","[""carrot.png""]","[""carrot.png""]","[""carrot.png""]",blank.png,PB18.png,PB18.png,"[""carrot.png""]","[""carrot.png""]","[""carrot.png""]","[""carrot.png""]","[""carrot.png""]","[""carrot.png""]","[""carrot.png""]","[""carrot.png""]","[""carrot.png""]","[""carrot.png""]","[""carrot.png""]","[""carrot.png""]",1,"[""frie.png""]",blank.png,blank.png,blank.png,6,"[""carrot.png""]","[""carrot.png""]","[""carrot.png""]","[""carrot.png""]","[""carrot.png""]","[""carrot.png""]",PB17.png,,,,,,,,,,,1,,,,,,,,,,,,339.6410000119067,,response,,,,,,,,,,,,,3,,,,,,,,,,,,,,,,,,,,,,,,,,,,,,,,,,,,,,,,,,,,,,,,,,,,,,,,,"[""carrot.png""]","[""frie.png""]",4,left,keydown(ArrowLeft),false,,1,,,,,,,253022.2250000079,252871.1450000119,252531.504,253012.9450000095,,253481.485,,6,,
square,canvas.Screen,2_4_3_6_1_0_0_0_0_5_3,2021-01-14T18:58:28.561Z,,,blank.png,"[""frie.png""]",blank.png,blank.png,blank.png,blank.png,blank.png,blank.png,blank.png,blank.png,blank.png,blank.png,blank.png,,,,,,,,,,,,,,,,,,,,,,,,,,,,,"[""frie.png""]","[""carrot.png""]",PB17.png,,,,,,,,,,,0,6,"[""carrot.png""]","[""carrot.png""]","[""carrot.png""]","[""carrot.png""]","[""carrot.png""]","[""carrot.png""]",blank.png,PB18.png,PB18.png,"[""carrot.png""]","[""carrot.png""]","[""carrot.png""]","[""carrot.png""]","[""carrot.png""]","[""carrot.png""]","[""carrot.png""]","[""carrot.png""]","[""carrot.png""]","[""carrot.png""]","[""carrot.png""]","[""carrot.png""]",1,"[""frie.png""]",blank.png,blank.png,blank.png,6,"[""carrot.png""]","[""carrot.png""]","[""carrot.png""]","[""carrot.png""]","[""carrot.png""]","[""carrot.png""]",PB17.png,,,,,,,,,,,1,,#33ff3f,#808080,,,,,,,,,1000.0830000000133,,timeout,,,,,,,,,,,,,3,,,,,,,,,,,,,,,,,,,,,,,,,,,,,,,,,,,,,,,,,,,,,,,,,,,,,,,,,"[""carrot.png""]","[""frie.png""]",4,,,false,,1,,,,,black,white,254466.29500000563,254464.902,253014.818,253484.8800000036,253481.485,254481.568,,,,
ITI_late,canvas.Screen,2_4_3_6_1_0_0_0_0_5_4,2021-01-14T18:58:29.560Z,,,blank.png,"[""frie.png""]",blank.png,blank.png,blank.png,blank.png,blank.png,blank.png,blank.png,blank.png,blank.png,blank.png,blank.png,,,,,,,,,,,,,,,,,,,,,,,,,,,,,"[""frie.png""]","[""carrot.png""]",PB17.png,,,,,,,,,,,0,6,"[""carrot.png""]","[""carrot.png""]","[""carrot.png""]","[""carrot.png""]","[""carrot.png""]","[""carrot.png""]",blank.png,PB18.png,PB18.png,"[""carrot.png""]","[""carrot.png""]","[""carrot.png""]","[""carrot.png""]","[""carrot.png""]","[""carrot.png""]","[""carrot.png""]","[""carrot.png""]","[""carrot.png""]","[""carrot.png""]","[""carrot.png""]","[""carrot.png""]",1,"[""frie.png""]",blank.png,blank.png,blank.png,6,"[""carrot.png""]","[""carrot.png""]","[""carrot.png""]","[""carrot.png""]","[""carrot.png""]","[""carrot.png""]",PB17.png,,,,,,,,,,,1,,,,,,,,,,,,999.9619999999995,,timeout,,,,,,,,,,,,white,3,,,,,,,,,,,,,,,,,,,,,,,,,,,,,,,,,,,,,,,,,,,,,,,,,,,,,,,,,"[""carrot.png""]","[""frie.png""]",4,,,false,,1,,,,,,,255465.38500000315,255464.864,254464.902,254468.42499999912,254481.568,255481.53,,,,
choice_sequence,flow.Sequence,2_4_3_6_1_0_0_0_0_5,2021-01-14T18:58:29.561Z,,,blank.png,"[""frie.png""]",blank.png,blank.png,blank.png,blank.png,blank.png,blank.png,blank.png,blank.png,blank.png,blank.png,blank.png,,,,,,,,,,,,,,,,,,,,,,,,,,,,,"[""frie.png""]","[""carrot.png""]",PB17.png,,,,,,,,,,,0,6,"[""carrot.png""]","[""carrot.png""]","[""carrot.png""]","[""carrot.png""]","[""carrot.png""]","[""carrot.png""]",blank.png,PB18.png,PB18.png,"[""carrot.png""]","[""carrot.png""]","[""carrot.png""]","[""carrot.png""]","[""carrot.png""]","[""carrot.png""]","[""carrot.png""]","[""carrot.png""]","[""carrot.png""]","[""carrot.png""]","[""carrot.png""]","[""carrot.png""]",1,"[""frie.png""]",blank.png,blank.png,blank.png,6,"[""carrot.png""]","[""carrot.png""]","[""carrot.png""]","[""carrot.png""]","[""carrot.png""]","[""carrot.png""]",PB17.png,,,,,,,,,,,1,,,,,,,,,,,,4333.304999999993,,completion,,,,,,,,,,,,,3,,,,,,,,,,,,,,,,,,,,,,,,,,,,,,,,,,,,,,,,,,,,,,,,,,,,,,,,,"[""carrot.png""]","[""frie.png""]",4,,,false,,1,,,,,,,255465.80499999982,255464.864,251114.893,251119.8149999982,251131.559,255481.53,,,,
fixCross,canvas.Screen,2_4_3_6_1_0_0_0_0_6_0,2021-01-14T18:58:30.161Z,,,blank.png,blank.png,blank.png,blank.png,blank.png,blank.png,blank.png,"[""frie.png""]",blank.png,blank.png,blank.png,blank.png,blank.png,,,,,,,,,,,,,,,,,,,,,,,,,,,,,"[""frie.png""]","[""carrot.png""]",PB18.png,,,,,,,,,,,0,6,"[""carrot.png""]","[""carrot.png""]","[""carrot.png""]","[""carrot.png""]","[""carrot.png""]","[""carrot.png""]",blank.png,PB18.png,PB07.png,"[""carrot.png""]","[""carrot.png""]","[""carrot.png""]","[""carrot.png""]","[""carrot.png""]","[""carrot.png""]","[""carrot.png""]",blank.png,blank.png,blank.png,blank.png,blank.png,1,"[""frie.png""]",blank.png,blank.png,blank.png,1,"[""carrot.png""]",blank.png,blank.png,blank.png,blank.png,blank.png,PB07.png,,,,,,,,,,,1,,,,,,,,,,,,966.5370000000112,,timeout,,,,,,,,,,,,,4,,,,,,,,,,,,,,,,,,,,,,,,,,,,,,,,,,,,,,,,,,,,,,,,,,,,,,,,,"[""carrot.png""]","[""frie.png""]",4,,,false,,1,,,,,,,256066.1800000089,256064.749,255464.864,255470.88500000245,255481.53,256448.067,7,,,
timeout,canvas.Screen,2_4_3_6_1_0_0_0_0_6_1,2021-01-14T18:58:31.029Z,,,blank.png,blank.png,blank.png,blank.png,blank.png,blank.png,blank.png,"[""frie.png""]",blank.png,blank.png,blank.png,blank.png,blank.png,,,,,,,,,,,,,,,,,,,,,,,,,,,,,"[""frie.png""]","[""carrot.png""]",PB18.png,,,,,,,,,,,0,6,"[""carrot.png""]","[""carrot.png""]","[""carrot.png""]","[""carrot.png""]","[""carrot.png""]","[""carrot.png""]",blank.png,PB18.png,PB07.png,"[""carrot.png""]","[""carrot.png""]","[""carrot.png""]","[""carrot.png""]","[""carrot.png""]","[""carrot.png""]","[""carrot.png""]",blank.png,blank.png,blank.png,blank.png,blank.png,1,"[""frie.png""]",blank.png,blank.png,blank.png,1,"[""carrot.png""]",blank.png,blank.png,blank.png,blank.png,blank.png,PB07.png,,,,,,,,,,,1,,,,,,,,,,,,850.1449999999895,,timeout,,,,,,,,,,,,,4,,,,,,,,,,,,,,,,,,,,,,,,,,,,,,,,,,,,,,,,,,,,,,,,,,,,,,,,,"[""carrot.png""]","[""frie.png""]",4,,,false,,1,,,,,,,256934.01500000618,256931.56,256064.749,256451.9650000002,256448.067,257298.212,,,,
choice,canvas.Screen,2_4_3_6_1_0_0_0_0_6_2,2021-01-14T18:58:31.396Z,,,blank.png,blank.png,blank.png,blank.png,blank.png,blank.png,blank.png,"[""frie.png""]",blank.png,blank.png,blank.png,blank.png,blank.png,,,,,,,,,,,,,,,,,,,,,,,,,,,,,"[""frie.png""]","[""carrot.png""]",PB18.png,,,,,,,,,,,0,6,"[""carrot.png""]","[""carrot.png""]","[""carrot.png""]","[""carrot.png""]","[""carrot.png""]","[""carrot.png""]",blank.png,PB18.png,PB07.png,"[""carrot.png""]","[""carrot.png""]","[""carrot.png""]","[""carrot.png""]","[""carrot.png""]","[""carrot.png""]","[""carrot.png""]",blank.png,blank.png,blank.png,blank.png,blank.png,1,"[""frie.png""]",blank.png,blank.png,blank.png,1,"[""carrot.png""]",blank.png,blank.png,blank.png,blank.png,blank.png,PB07.png,,,,,,,,,,,1,,,,,,,,,,,,352.0700000053621,,response,,,,,,,,,,,,,4,,,,,,,,,,,,,,,,,,,,,,,,,,,,,,,,,,,,,,,,,,,,,,,,,,,,,,,,,"[""carrot.png""]","[""frie.png""]",4,left,keydown(ArrowLeft),false,,1,,,,,,,257301.2149999995,257283.63000000536,256931.56,257295.03500000283,,257648.172,,7,,
square,canvas.Screen,2_4_3_6_1_0_0_0_0_6_3,2021-01-14T18:58:32.729Z,,,blank.png,blank.png,blank.png,blank.png,blank.png,blank.png,blank.png,"[""frie.png""]",blank.png,blank.png,blank.png,blank.png,blank.png,,,,,,,,,,,,,,,,,,,,,,,,,,,,,"[""frie.png""]","[""carrot.png""]",PB18.png,,,,,,,,,,,0,6,"[""carrot.png""]","[""carrot.png""]","[""carrot.png""]","[""carrot.png""]","[""carrot.png""]","[""carrot.png""]",blank.png,PB18.png,PB07.png,"[""carrot.png""]","[""carrot.png""]","[""carrot.png""]","[""carrot.png""]","[""carrot.png""]","[""carrot.png""]","[""carrot.png""]",blank.png,blank.png,blank.png,blank.png,blank.png,1,"[""frie.png""]",blank.png,blank.png,blank.png,1,"[""carrot.png""]",blank.png,blank.png,blank.png,blank.png,blank.png,PB07.png,,,,,,,,,,,1,,#33ff3f,#808080,,,,,,,,,999.9300000000221,,timeout,,,,,,,,,,,,,4,,,,,,,,,,,,,,,,,,,,,,,,,,,,,,,,,,,,,,,,,,,,,,,,,,,,,,,,,"[""carrot.png""]","[""frie.png""]",4,,,false,,1,,,,,black,white,258633.6500000034,258631.436,257298.212,257658.46000000602,257648.172,258648.102,,,,
ITI_late,canvas.Screen,2_4_3_6_1_0_0_0_0_6_4,2021-01-14T18:58:33.727Z,,,blank.png,blank.png,blank.png,blank.png,blank.png,blank.png,blank.png,"[""frie.png""]",blank.png,blank.png,blank.png,blank.png,blank.png,,,,,,,,,,,,,,,,,,,,,,,,,,,,,"[""frie.png""]","[""carrot.png""]",PB18.png,,,,,,,,,,,0,6,"[""carrot.png""]","[""carrot.png""]","[""carrot.png""]","[""carrot.png""]","[""carrot.png""]","[""carrot.png""]",blank.png,PB18.png,PB07.png,"[""carrot.png""]","[""carrot.png""]","[""carrot.png""]","[""carrot.png""]","[""carrot.png""]","[""carrot.png""]","[""carrot.png""]",blank.png,blank.png,blank.png,blank.png,blank.png,1,"[""frie.png""]",blank.png,blank.png,blank.png,1,"[""carrot.png""]",blank.png,blank.png,blank.png,blank.png,blank.png,PB07.png,,,,,,,,,,,1,,,,,,,,,,,,1016.6239999999816,,timeout,,,,,,,,,,,,white,4,,,,,,,,,,,,,,,,,,,,,,,,,,,,,,,,,,,,,,,,,,,,,,,,,,,,,,,,,"[""carrot.png""]","[""frie.png""]",4,,,false,,1,,,,,,,259632.1050000115,259631.394,258631.436,258634.99500000034,258648.102,259664.726,,,,
choice_sequence,flow.Sequence,2_4_3_6_1_0_0_0_0_6,2021-01-14T18:58:33.727Z,,,blank.png,blank.png,blank.png,blank.png,blank.png,blank.png,blank.png,"[""frie.png""]",blank.png,blank.png,blank.png,blank.png,blank.png,,,,,,,,,,,,,,,,,,,,,,,,,,,,,"[""frie.png""]","[""carrot.png""]",PB18.png,,,,,,,,,,,0,6,"[""carrot.png""]","[""carrot.png""]","[""carrot.png""]","[""carrot.png""]","[""carrot.png""]","[""carrot.png""]",blank.png,PB18.png,PB07.png,"[""carrot.png""]","[""carrot.png""]","[""carrot.png""]","[""carrot.png""]","[""carrot.png""]","[""carrot.png""]","[""carrot.png""]",blank.png,blank.png,blank.png,blank.png,blank.png,1,"[""frie.png""]",blank.png,blank.png,blank.png,1,"[""carrot.png""]",blank.png,blank.png,blank.png,blank.png,blank.png,PB07.png,,,,,,,,,,,1,,,,,,,,,,,,4149.864000000001,,completion,,,,,,,,,,,,,4,,,,,,,,,,,,,,,,,,,,,,,,,,,,,,,,,,,,,,,,,,,,,,,,,,,,,,,,,"[""carrot.png""]","[""frie.png""]",4,,,false,,1,,,,,,,259632.48500000918,259631.394,255464.864,255469.97499999998,255481.53,259664.726,,,,
choice_loop,flow.Loop,2_4_3_6_1_0_0_0_0,2021-01-14T18:58:33.728Z,,,,,,,,,,,,,,,,,,,,,,,,,,,,,,,,,,,,,,,,,,,,"[""frie.png""]","[""carrot.png""]",,,,,,,,,,,,,,,,,,,,,,,,,,,,,,,,,,,,,,,,,,,,,,,,,,,,,,,,,,,,,,,,,,,,,,33366.755999999994,,completion,,,,,,,,,,,,,,,,,,,,,,,,,,,,,,,,,,,,,,,,,,,,,,,,,,,,,,,,,,,,,,,,,,,,,,"[""carrot.png""]","[""frie.png""]",4,,,false,,,,,,,,,259632.7650000021,259631.394,226231.306,226259.57500000368,226264.638,259664.726,,,,
choice_frame,html.Frame,2_4_3_6_1_0_0_0,2021-01-14T18:58:33.729Z,,,,,,,,,,,,,,,,,,,,,,,,,,,,,,,,,,,,,,,,,,,,,,,,,,,,,,,,,,,,,,,,,,,,,,,,,,,,,,,,,,,,,,,,,,,,,,,,,,,,,,,,,,,,,,,,,,,33369.341999998695,,,,,,,,,,,,,,,,,,,,,,,,,,,,,,,,,,,,,,,,,,,,,,,,,,,,,,,,,,,,,,,,,,,,,,,,,,4,,,false,,,,,,,,,259634.12000000244,259633.9799999987,226231.306,226233.02500000864,226264.638,259681.392,,,,
sublock_1,flow.Sequence,2_4_3_6_1_0_0,2021-01-14T18:58:33.729Z,,,,,,,,,,,,,,,,,,,,,,,,,,,,,,,,,,,,,,,,,,,,,,,,,,,,,,,,,,,,,,,,,,,,,,,,,,,,,,,,,,,,,,,,,,,,,,,,,,,,,,,,,,,,,,,,,,,33369.341999998695,,completion,,,,,,,,,,,,,,,,,,,,,,,,,,,,,,,,,,,,,,,,,,,,,,,,,,,,,,,,,,,,,,,,,,,,,,,,4,,,false,,,,,,,,,259634.23000001058,259633.9799999987,226231.306,226232.99499999848,226264.638,259681.392,,,,
fixCross,canvas.Screen,2_4_3_6_1_0_1_0_0_0_0,2021-01-14T18:58:34.161Z,,,blank.png,"[""frie.png""]",blank.png,blank.png,blank.png,blank.png,blank.png,blank.png,blank.png,blank.png,blank.png,blank.png,blank.png,,,,,,,,,,,,,,,,,,,,,,,,,,,,,"[""frie.png""]","[""carrot.png""]",PB14.png,,,,,,,,,,,0,6,"[""carrot.png""]","[""carrot.png""]","[""carrot.png""]","[""carrot.png""]","[""carrot.png""]","[""carrot.png""]",blank.png,PB18.png,PB18.png,"[""carrot.png""]","[""carrot.png""]","[""carrot.png""]",blank.png,blank.png,blank.png,"[""carrot.png""]","[""carrot.png""]","[""carrot.png""]","[""carrot.png""]","[""carrot.png""]","[""carrot.png""]",1,"[""frie.png""]",blank.png,blank.png,blank.png,3,"[""carrot.png""]","[""carrot.png""]","[""carrot.png""]",blank.png,blank.png,blank.png,PB14.png,,,,,,,,,,,1,,,,,,,,,,,,766.8500000000058,,timeout,,,,,,,,,,,,,3,,,,,,,,,,,,,,,,,,,,,,,,,,,,,,,,,,,,,,,,,,,,,,,,,,,,,,,,,"[""carrot.png""]","[""frie.png""]",3,,,false,,1,,,,,,,260066.4950000064,260064.924,259664.726,259663.6950000102,259681.392,260448.242,8,,,
timeout,canvas.Screen,2_4_3_6_1_0_1_0_0_0_1,2021-01-14T18:58:35.027Z,,,blank.png,"[""frie.png""]",blank.png,blank.png,blank.png,blank.png,blank.png,blank.png,blank.png,blank.png,blank.png,blank.png,blank.png,,,,,,,,,,,,,,,,,,,,,,,,,,,,,"[""frie.png""]","[""carrot.png""]",PB14.png,,,,,,,,,,,0,6,"[""carrot.png""]","[""carrot.png""]","[""carrot.png""]","[""carrot.png""]","[""carrot.png""]","[""carrot.png""]",blank.png,PB18.png,PB18.png,"[""carrot.png""]","[""carrot.png""]","[""carrot.png""]",blank.png,blank.png,blank.png,"[""carrot.png""]","[""carrot.png""]","[""carrot.png""]","[""carrot.png""]","[""carrot.png""]","[""carrot.png""]",1,"[""frie.png""]",blank.png,blank.png,blank.png,3,"[""carrot.png""]","[""carrot.png""]","[""carrot.png""]",blank.png,blank.png,blank.png,PB14.png,,,,,,,,,,,1,,,,,,,,,,,,900.0260000000126,,timeout,,,,,,,,,,,,,3,,,,,,,,,,,,,,,,,,,,,,,,,,,,,,,,,,,,,,,,,,,,,,,,,,,,,,,,,"[""carrot.png""]","[""frie.png""]",3,,,false,,1,,,,,,,260932.50999999873,260931.618,260064.924,260451.17500000924,260448.242,261348.268,,,,
choice,canvas.Screen,2_4_3_6_1_0_1_0_0_0_2,2021-01-14T18:58:35.454Z,,,blank.png,"[""frie.png""]",blank.png,blank.png,blank.png,blank.png,blank.png,blank.png,blank.png,blank.png,blank.png,blank.png,blank.png,,,,,,,,,,,,,,,,,,,,,,,,,,,,,"[""frie.png""]","[""carrot.png""]",PB14.png,,,,,,,,,,,0,6,"[""carrot.png""]","[""carrot.png""]","[""carrot.png""]","[""carrot.png""]","[""carrot.png""]","[""carrot.png""]",blank.png,PB18.png,PB18.png,"[""carrot.png""]","[""carrot.png""]","[""carrot.png""]",blank.png,blank.png,blank.png,"[""carrot.png""]","[""carrot.png""]","[""carrot.png""]","[""carrot.png""]","[""carrot.png""]","[""carrot.png""]",1,"[""frie.png""]",blank.png,blank.png,blank.png,3,"[""carrot.png""]","[""carrot.png""]","[""carrot.png""]",blank.png,blank.png,blank.png,PB14.png,,,,,,,,,,,1,,,,,,,,,,,,341.512000001414,,response,,,,,,,,,,,,,3,,,,,,,,,,,,,,,,,,,,,,,,,,,,,,,,,,,,,,,,,,,,,,,,,,,,,,,,,"[""carrot.png""]","[""frie.png""]",3,left,keydown(ArrowLeft),false,,1,,,,,,,261359.16000000725,261273.1300000014,260931.618,261351.12500000105,,261748.144,,8,,
square,canvas.Screen,2_4_3_6_1_0_1_0_0_0_3,2021-01-14T18:58:36.828Z,,,blank.png,"[""frie.png""]",blank.png,blank.png,blank.png,blank.png,blank.png,blank.png,blank.png,blank.png,blank.png,blank.png,blank.png,,,,,,,,,,,,,,,,,,,,,,,,,,,,,"[""frie.png""]","[""carrot.png""]",PB14.png,,,,,,,,,,,0,6,"[""carrot.png""]","[""carrot.png""]","[""carrot.png""]","[""carrot.png""]","[""carrot.png""]","[""carrot.png""]",blank.png,PB18.png,PB18.png,"[""carrot.png""]","[""carrot.png""]","[""carrot.png""]",blank.png,blank.png,blank.png,"[""carrot.png""]","[""carrot.png""]","[""carrot.png""]","[""carrot.png""]","[""carrot.png""]","[""carrot.png""]",1,"[""frie.png""]",blank.png,blank.png,blank.png,3,"[""carrot.png""]","[""carrot.png""]","[""carrot.png""]",blank.png,blank.png,blank.png,PB14.png,,,,,,,,,,,1,,#33ff3f,#808080,,,,,,,,,999.9669999999751,,timeout,,,,,,,,,,,,,3,,,,,,,,,,,,,,,,,,,,,,,,,,,,,,,,,,,,,,,,,,,,,,,,,,,,,,,,,"[""carrot.png""]","[""frie.png""]",3,,,false,,1,,,,,black,white,262733.1050000066,262731.445,261348.268,261753.1799999997,261748.144,262748.111,,,,
ITI_late,canvas.Screen,2_4_3_6_1_0_1_0_0_0_4,2021-01-14T18:58:37.077Z,,,blank.png,"[""frie.png""]",blank.png,blank.png,blank.png,blank.png,blank.png,blank.png,blank.png,blank.png,blank.png,blank.png,blank.png,,,,,,,,,,,,,,,,,,,,,,,,,,,,,"[""frie.png""]","[""carrot.png""]",PB14.png,,,,,,,,,,,0,6,"[""carrot.png""]","[""carrot.png""]","[""carrot.png""]","[""carrot.png""]","[""carrot.png""]","[""carrot.png""]",blank.png,PB18.png,PB18.png,"[""carrot.png""]","[""carrot.png""]","[""carrot.png""]",blank.png,blank.png,blank.png,"[""carrot.png""]","[""carrot.png""]","[""carrot.png""]","[""carrot.png""]","[""carrot.png""]","[""carrot.png""]",1,"[""frie.png""]",blank.png,blank.png,blank.png,3,"[""carrot.png""]","[""carrot.png""]","[""carrot.png""]",blank.png,blank.png,blank.png,PB14.png,,,,,,,,,,,1,,,,,,,,,,,,250.03900000004796,,timeout,,,,,,,,,,,,white,3,,,,,,,,,,,,,,,,,,,,,,,,,,,,,,,,,,,,,,,,,,,,,,,,,,,,,,,,,"[""carrot.png""]","[""frie.png""]",3,,,false,,1,,,,,,,262982.4200000003,262981.484,262731.445,262734.27000000083,262748.111,262998.15,,,,
choice_sequence,flow.Sequence,2_4_3_6_1_0_1_0_0_0,2021-01-14T18:58:37.078Z,,,blank.png,"[""frie.png""]",blank.png,blank.png,blank.png,blank.png,blank.png,blank.png,blank.png,blank.png,blank.png,blank.png,blank.png,,,,,,,,,,,,,,,,,,,,,,,,,,,,,"[""frie.png""]","[""carrot.png""]",PB14.png,,,,,,,,,,,0,6,"[""carrot.png""]","[""carrot.png""]","[""carrot.png""]","[""carrot.png""]","[""carrot.png""]","[""carrot.png""]",blank.png,PB18.png,PB18.png,"[""carrot.png""]","[""carrot.png""]","[""carrot.png""]",blank.png,blank.png,blank.png,"[""carrot.png""]","[""carrot.png""]","[""carrot.png""]","[""carrot.png""]","[""carrot.png""]","[""carrot.png""]",1,"[""frie.png""]",blank.png,blank.png,blank.png,3,"[""carrot.png""]","[""carrot.png""]","[""carrot.png""]",blank.png,blank.png,blank.png,PB14.png,,,,,,,,,,,1,,,,,,,,,,,,3300.092000000004,,completion,,,,,,,,,,,,,3,,,,,,,,,,,,,,,,,,,,,,,,,,,,,,,,,,,,,,,,,,,,,,,,,,,,,,,,,"[""carrot.png""]","[""frie.png""]",3,,,false,,1,,,,,,,262982.7500000101,262981.484,259664.726,259663.02500000165,259681.392,262998.15,,,,
fixCross,canvas.Screen,2_4_3_6_1_0_1_0_0_1_0,2021-01-14T18:58:37.677Z,,,blank.png,"[""frie.png""]",blank.png,blank.png,blank.png,blank.png,blank.png,blank.png,blank.png,blank.png,blank.png,blank.png,blank.png,,,,,,,,,,,,,,,,,,,,,,,,,,,,,"[""frie.png""]","[""carrot.png""]",PB01.png,,,,,,,,,,,0,6,"[""carrot.png""]","[""carrot.png""]","[""carrot.png""]","[""carrot.png""]","[""carrot.png""]","[""carrot.png""]",blank.png,PB18.png,PB18.png,blank.png,blank.png,blank.png,blank.png,blank.png,blank.png,"[""carrot.png""]","[""carrot.png""]","[""carrot.png""]","[""carrot.png""]","[""carrot.png""]","[""carrot.png""]",1,"[""frie.png""]",blank.png,blank.png,blank.png,0,blank.png,blank.png,blank.png,blank.png,blank.png,blank.png,PB01.png,,,,,,,,,,,1,,,,,,,,,,,,900.3539999999921,,timeout,,,,,,,,,,,,,3,,,,,,,,,,,,,,,,,,,,,,,,,,,,,,,,,,,,,,,,,,,,,,,,,,,,,,,,,"[""carrot.png""]","[""frie.png""]",3,,,false,,1,,,,,,,263582.4200000061,263581.85,262981.484,262985.93999999866,262998.15,263898.504,9,,,
timeout,canvas.Screen,2_4_3_6_1_0_1_0_0_1_1,2021-01-14T18:58:38.478Z,,,blank.png,"[""frie.png""]",blank.png,blank.png,blank.png,blank.png,blank.png,blank.png,blank.png,blank.png,blank.png,blank.png,blank.png,,,,,,,,,,,,,,,,,,,,,,,,,,,,,"[""frie.png""]","[""carrot.png""]",PB01.png,,,,,,,,,,,0,6,"[""carrot.png""]","[""carrot.png""]","[""carrot.png""]","[""carrot.png""]","[""carrot.png""]","[""carrot.png""]",blank.png,PB18.png,PB18.png,blank.png,blank.png,blank.png,blank.png,blank.png,blank.png,"[""carrot.png""]","[""carrot.png""]","[""carrot.png""]","[""carrot.png""]","[""carrot.png""]","[""carrot.png""]",1,"[""frie.png""]",blank.png,blank.png,blank.png,0,blank.png,blank.png,blank.png,blank.png,blank.png,blank.png,PB01.png,,,,,,,,,,,1,,,,,,,,,,,,833.0939999999828,,timeout,,,,,,,,,,,,,3,,,,,,,,,,,,,,,,,,,,,,,,,,,,,,,,,,,,,,,,,,,,,,,,,,,,,,,,,"[""carrot.png""]","[""frie.png""]",3,,,false,,1,,,,,,,264383.0200000084,264381.612,263581.85,263910.6150000007,263898.504,264731.598,,,,
choice,canvas.Screen,2_4_3_6_1_0_1_0_0_1_2,2021-01-14T18:58:38.839Z,,,blank.png,"[""frie.png""]",blank.png,blank.png,blank.png,blank.png,blank.png,blank.png,blank.png,blank.png,blank.png,blank.png,blank.png,,,,,,,,,,,,,,,,,,,,,,,,,,,,,"[""frie.png""]","[""carrot.png""]",PB01.png,,,,,,,,,,,0,6,"[""carrot.png""]","[""carrot.png""]","[""carrot.png""]","[""carrot.png""]","[""carrot.png""]","[""carrot.png""]",blank.png,PB18.png,PB18.png,blank.png,blank.png,blank.png,blank.png,blank.png,blank.png,"[""carrot.png""]","[""carrot.png""]","[""carrot.png""]","[""carrot.png""]","[""carrot.png""]","[""carrot.png""]",1,"[""frie.png""]",blank.png,blank.png,blank.png,0,blank.png,blank.png,blank.png,blank.png,blank.png,blank.png,PB01.png,,,,,,,,,,,1,,,,,,,,,,,,239.263000007777,,response,,,,,,,,,,,,,3,,,,,,,,,,,,,,,,,,,,,,,,,,,,,,,,,,,,,,,,,,,,,,,,,,,,,,,,,"[""carrot.png""]","[""frie.png""]",3,right,keydown(ArrowRight),false,,1,,,,,,,264744.5149999985,264620.8750000078,264381.612,264739.47000000044,,265081.538,,9,,
square,canvas.Screen,2_4_3_6_1_0_1_0_0_1_3,2021-01-14T18:58:40.161Z,,,blank.png,"[""frie.png""]",blank.png,blank.png,blank.png,blank.png,blank.png,blank.png,blank.png,blank.png,blank.png,blank.png,blank.png,,,,,,,,,,,,,,,,,,,,,,,,,,,,,"[""frie.png""]","[""carrot.png""]",PB01.png,,,,,,,,,,,0,6,"[""carrot.png""]","[""carrot.png""]","[""carrot.png""]","[""carrot.png""]","[""carrot.png""]","[""carrot.png""]",blank.png,PB18.png,PB18.png,blank.png,blank.png,blank.png,blank.png,blank.png,blank.png,"[""carrot.png""]","[""carrot.png""]","[""carrot.png""]","[""carrot.png""]","[""carrot.png""]","[""carrot.png""]",1,"[""frie.png""]",blank.png,blank.png,blank.png,0,blank.png,blank.png,blank.png,blank.png,blank.png,blank.png,PB01.png,,,,,,,,,,,1,,#808080,#33ff3f,,,,,,,,,1000.125,,timeout,,,,,,,,,,,,,3,,,,,,,,,,,,,,,,,,,,,,,,,,,,,,,,,,,,,,,,,,,,,,,,,,,,,,,,,"[""carrot.png""]","[""frie.png""]",3,,,false,,1,,,,,white,black,266066.35000000824,266064.997,264731.598,265084.7950000025,265081.538,266081.663,,,,
ITI_late,canvas.Screen,2_4_3_6_1_0_1_0_0_1_4,2021-01-14T18:58:41.162Z,,,blank.png,"[""frie.png""]",blank.png,blank.png,blank.png,blank.png,blank.png,blank.png,blank.png,blank.png,blank.png,blank.png,blank.png,,,,,,,,,,,,,,,,,,,,,,,,,,,,,"[""frie.png""]","[""carrot.png""]",PB01.png,,,,,,,,,,,0,6,"[""carrot.png""]","[""carrot.png""]","[""carrot.png""]","[""carrot.png""]","[""carrot.png""]","[""carrot.png""]",blank.png,PB18.png,PB18.png,blank.png,blank.png,blank.png,blank.png,blank.png,blank.png,"[""carrot.png""]","[""carrot.png""]","[""carrot.png""]","[""carrot.png""]","[""carrot.png""]","[""carrot.png""]",1,"[""frie.png""]",blank.png,blank.png,blank.png,0,blank.png,blank.png,blank.png,blank.png,blank.png,blank.png,PB01.png,,,,,,,,,,,1,,,,,,,,,,,,999.9160000000265,,timeout,,,,,,,,,,,,white,3,,,,,,,,,,,,,,,,,,,,,,,,,,,,,,,,,,,,,,,,,,,,,,,,,,,,,,,,,"[""carrot.png""]","[""frie.png""]",3,,,false,,1,,,,,,,267067.0900000114,267064.913,266064.997,266067.90999999794,266081.663,267081.579,,,,
choice_sequence,flow.Sequence,2_4_3_6_1_0_1_0_0_1,2021-01-14T18:58:41.163Z,,,blank.png,"[""frie.png""]",blank.png,blank.png,blank.png,blank.png,blank.png,blank.png,blank.png,blank.png,blank.png,blank.png,blank.png,,,,,,,,,,,,,,,,,,,,,,,,,,,,,"[""frie.png""]","[""carrot.png""]",PB01.png,,,,,,,,,,,0,6,"[""carrot.png""]","[""carrot.png""]","[""carrot.png""]","[""carrot.png""]","[""carrot.png""]","[""carrot.png""]",blank.png,PB18.png,PB18.png,blank.png,blank.png,blank.png,blank.png,blank.png,blank.png,"[""carrot.png""]","[""carrot.png""]","[""carrot.png""]","[""carrot.png""]","[""carrot.png""]","[""carrot.png""]",1,"[""frie.png""]",blank.png,blank.png,blank.png,0,blank.png,blank.png,blank.png,blank.png,blank.png,blank.png,PB01.png,,,,,,,,,,,1,,,,,,,,,,,,4066.762999999977,,completion,,,,,,,,,,,,,3,,,,,,,,,,,,,,,,,,,,,,,,,,,,,,,,,,,,,,,,,,,,,,,,,,,,,,,,,"[""carrot.png""]","[""frie.png""]",3,,,false,,1,,,,,,,267067.73000000976,267064.913,262981.484,262985.2350000001,262998.15,267081.579,,,,
fixCross,canvas.Screen,2_4_3_6_1_0_1_0_0_2_0,2021-01-14T18:58:41.861Z,,,blank.png,"[""frie.png""]",blank.png,blank.png,blank.png,blank.png,blank.png,blank.png,blank.png,blank.png,blank.png,blank.png,blank.png,,,,,,,,,,,,,,,,,,,,,,,,,,,,,"[""frie.png""]","[""carrot.png""]",PB12.png,,,,,,,,,,,0,6,"[""carrot.png""]","[""carrot.png""]","[""carrot.png""]","[""carrot.png""]","[""carrot.png""]","[""carrot.png""]",blank.png,PB18.png,PB18.png,"[""carrot.png""]","[""carrot.png""]",blank.png,blank.png,blank.png,blank.png,"[""carrot.png""]","[""carrot.png""]","[""carrot.png""]","[""carrot.png""]","[""carrot.png""]","[""carrot.png""]",1,"[""frie.png""]",blank.png,blank.png,blank.png,2,"[""carrot.png""]","[""carrot.png""]",blank.png,blank.png,blank.png,blank.png,PB12.png,,,,,,,,,,,1,,,,,,,,,,,,1066.5619999999763,,timeout,,,,,,,,,,,,,3,,,,,,,,,,,,,,,,,,,,,,,,,,,,,,,,,,,,,,,,,,,,,,,,,,,,,,,,,"[""carrot.png""]","[""frie.png""]",3,,,false,,1,,,,,,,267765.96000000427,267764.823,267064.913,267072.53499999933,267081.579,268148.141,10,,,
timeout,canvas.Screen,2_4_3_6_1_0_1_0_0_2_1,2021-01-14T18:58:42.727Z,,,blank.png,"[""frie.png""]",blank.png,blank.png,blank.png,blank.png,blank.png,blank.png,blank.png,blank.png,blank.png,blank.png,blank.png,,,,,,,,,,,,,,,,,,,,,,,,,,,,,"[""frie.png""]","[""carrot.png""]",PB12.png,,,,,,,,,,,0,6,"[""carrot.png""]","[""carrot.png""]","[""carrot.png""]","[""carrot.png""]","[""carrot.png""]","[""carrot.png""]",blank.png,PB18.png,PB18.png,"[""carrot.png""]","[""carrot.png""]",blank.png,blank.png,blank.png,blank.png,"[""carrot.png""]","[""carrot.png""]","[""carrot.png""]","[""carrot.png""]","[""carrot.png""]","[""carrot.png""]",1,"[""frie.png""]",blank.png,blank.png,blank.png,2,"[""carrot.png""]","[""carrot.png""]",blank.png,blank.png,blank.png,blank.png,PB12.png,,,,,,,,,,,1,,,,,,,,,,,,866.7569999999832,,timeout,,,,,,,,,,,,,3,,,,,,,,,,,,,,,,,,,,,,,,,,,,,,,,,,,,,,,,,,,,,,,,,,,,,,,,,"[""carrot.png""]","[""frie.png""]",3,,,false,,1,,,,,,,268632.3550000088,268631.58,267764.823,268159.2349999992,268148.141,269014.898,,,,
choice,canvas.Screen,2_4_3_6_1_0_1_0_0_2_2,2021-01-14T18:58:43.574Z,,,blank.png,"[""frie.png""]",blank.png,blank.png,blank.png,blank.png,blank.png,blank.png,blank.png,blank.png,blank.png,blank.png,blank.png,,,,,,,,,,,,,,,,,,,,,,,,,,,,,"[""frie.png""]","[""carrot.png""]",PB12.png,,,,,,,,,,,0,6,"[""carrot.png""]","[""carrot.png""]","[""carrot.png""]","[""carrot.png""]","[""carrot.png""]","[""carrot.png""]",blank.png,PB18.png,PB18.png,"[""carrot.png""]","[""carrot.png""]",blank.png,blank.png,blank.png,blank.png,"[""carrot.png""]","[""carrot.png""]","[""carrot.png""]","[""carrot.png""]","[""carrot.png""]","[""carrot.png""]",1,"[""frie.png""]",blank.png,blank.png,blank.png,2,"[""carrot.png""]","[""carrot.png""]",blank.png,blank.png,blank.png,blank.png,PB12.png,,,,,,,,,,,1,,,,,,,,,,,,463.5470000006608,,response,,,,,,,,,,,,,3,,,,,,,,,,,,,,,,,,,,,,,,,,,,,,,,,,,,,,,,,,,,,,,,,,,,,,,,,"[""carrot.png""]","[""frie.png""]",3,right,keydown(ArrowRight),false,,1,,,,,,,269479.2549999984,269478.44500000065,268631.58,269010.88000000163,269014.898,269848.212,,10,,
square,canvas.Screen,2_4_3_6_1_0_1_0_0_2_3,2021-01-14T18:58:44.928Z,,,blank.png,"[""frie.png""]",blank.png,blank.png,blank.png,blank.png,blank.png,blank.png,blank.png,blank.png,blank.png,blank.png,blank.png,,,,,,,,,,,,,,,,,,,,,,,,,,,,,"[""frie.png""]","[""carrot.png""]",PB12.png,,,,,,,,,,,0,6,"[""carrot.png""]","[""carrot.png""]","[""carrot.png""]","[""carrot.png""]","[""carrot.png""]","[""carrot.png""]",blank.png,PB18.png,PB18.png,"[""carrot.png""]","[""carrot.png""]",blank.png,blank.png,blank.png,blank.png,"[""carrot.png""]","[""carrot.png""]","[""carrot.png""]","[""carrot.png""]","[""carrot.png""]","[""carrot.png""]",1,"[""frie.png""]",blank.png,blank.png,blank.png,2,"[""carrot.png""]","[""carrot.png""]",blank.png,blank.png,blank.png,blank.png,PB12.png,,,,,,,,,,,1,,#808080,#33ff3f,,,,,,,,,999.9430000000284,,timeout,,,,,,,,,,,,,3,,,,,,,,,,,,,,,,,,,,,,,,,,,,,,,,,,,,,,,,,,,,,,,,,,,,,,,,,"[""carrot.png""]","[""frie.png""]",3,,,false,,1,,,,,white,black,270833.41500000097,270831.489,269831.546,269844.65500000806,269848.212,270848.155,,,,
ITI_late,canvas.Screen,2_4_3_6_1_0_1_0_0_2_4,2021-01-14T18:58:45.927Z,,,blank.png,"[""frie.png""]",blank.png,blank.png,blank.png,blank.png,blank.png,blank.png,blank.png,blank.png,blank.png,blank.png,blank.png,,,,,,,,,,,,,,,,,,,,,,,,,,,,,"[""frie.png""]","[""carrot.png""]",PB12.png,,,,,,,,,,,0,6,"[""carrot.png""]","[""carrot.png""]","[""carrot.png""]","[""carrot.png""]","[""carrot.png""]","[""carrot.png""]",blank.png,PB18.png,PB18.png,"[""carrot.png""]","[""carrot.png""]",blank.png,blank.png,blank.png,blank.png,"[""carrot.png""]","[""carrot.png""]","[""carrot.png""]","[""carrot.png""]","[""carrot.png""]","[""carrot.png""]",1,"[""frie.png""]",blank.png,blank.png,blank.png,2,"[""carrot.png""]","[""carrot.png""]",blank.png,blank.png,blank.png,blank.png,PB12.png,,,,,,,,,,,1,,,,,,,,,,,,1000.0949999999721,,timeout,,,,,,,,,,,,white,3,,,,,,,,,,,,,,,,,,,,,,,,,,,,,,,,,,,,,,,,,,,,,,,,,,,,,,,,,"[""carrot.png""]","[""frie.png""]",3,,,false,,1,,,,,,,271832.27500000794,271831.553,270831.489,270834.64000000095,270848.155,271848.25,,,,
choice_sequence,flow.Sequence,2_4_3_6_1_0_1_0_0_2,2021-01-14T18:58:45.928Z,,,blank.png,"[""frie.png""]",blank.png,blank.png,blank.png,blank.png,blank.png,blank.png,blank.png,blank.png,blank.png,blank.png,blank.png,,,,,,,,,,,,,,,,,,,,,,,,,,,,,"[""frie.png""]","[""carrot.png""]",PB12.png,,,,,,,,,,,0,6,"[""carrot.png""]","[""carrot.png""]","[""carrot.png""]","[""carrot.png""]","[""carrot.png""]","[""carrot.png""]",blank.png,PB18.png,PB18.png,"[""carrot.png""]","[""carrot.png""]",blank.png,blank.png,blank.png,blank.png,"[""carrot.png""]","[""carrot.png""]","[""carrot.png""]","[""carrot.png""]","[""carrot.png""]","[""carrot.png""]",1,"[""frie.png""]",blank.png,blank.png,blank.png,2,"[""carrot.png""]","[""carrot.png""]",blank.png,blank.png,blank.png,blank.png,PB12.png,,,,,,,,,,,1,,,,,,,,,,,,4749.973999999987,,completion,,,,,,,,,,,,,3,,,,,,,,,,,,,,,,,,,,,,,,,,,,,,,,,,,,,,,,,,,,,,,,,,,,,,,,,"[""carrot.png""]","[""frie.png""]",3,,,false,,1,,,,,,,271832.665000009,271831.553,267064.913,267071.4650000009,267081.579,271848.25,,,,
