sender,sender_type,sender_id,timestamp,meta,,Blank,DownLeft1,DownLeft2,DownLeft3,DownLeft4,DownLeft5,DownLeft6,DownRight1,DownRight2,DownRight3,DownRight4,DownRight5,DownRight6,FoodHabits_Fru_item1,FoodHabits_Fru_item2,FoodHabits_Fru_item3,FoodHabits_Fru_item4,FoodHabits_Fru_item5,FoodHabits_Fru_item6,FoodHabits_Fru_item7,FoodHabits_Meat_item1,FoodHabits_Meat_item2,FoodHabits_Meat_item3,FoodHabits_Meat_item4,FoodHabits_Meat_item5,FoodHabits_Meat_item6,FoodHabits_Meat_item7,FoodHabits_Swe_item1,FoodHabits_Swe_item2,FoodHabits_Swe_item3,FoodHabits_Swe_item4,FoodHabits_Swe_item5,FoodHabits_Swe_item6,FoodHabits_Swe_item7,FoodHabits_Veg_item1,FoodHabits_Veg_item2,FoodHabits_Veg_item3,FoodHabits_Veg_item4,FoodHabits_Veg_item5,FoodHabits_Veg_item6,FoodHabits_Veg_item7,ImgA,ImgB,LeftBar,PSS_item01,PSS_item02,PSS_item03,PSS_item04,PSS_item05,PSS_item06,PSS_item07,PSS_item08,PSS_item09,PSS_item10,RefA,RefB,RefB1,RefB2,RefB3,RefB4,RefB5,RefB6,RefB7,Ref_PB,RightBar,UpLeft1,UpLeft2,UpLeft3,UpLeft4,UpLeft5,UpLeft6,UpRight1,UpRight2,UpRight3,UpRight4,UpRight5,UpRight6,VarA,VarA1,VarA2,VarA3,VarA4,VarB,VarB1,VarB2,VarB3,VarB4,VarB5,VarB6,Var_PB,attCheck_fileA,attCheck_fileB,attCheck_fileC,attCheck_fileD,attCheck_options,attCheck_valueA,attCheck_valueB,attCheck_valueC,attCheck_valueD,attention_check,block,break1,browser_name,choseL,choseR,consent_form1,consent_form2,consentconfirmation_form1,consentconfirmation_form2,correct,correctResponse,diet,disorder,duration,edu,ended_on,enjoy,full_version,gender,group,hunger,img,imgTask,input_age,input_meal,input_occ,input_remark,lateRespFeed,list,major_version,message,mixQ_item1,mixQ_item2,mixQ_item3,mixQ_item4,mixQ_item5,name,navigator_appName,navigator_userAgent,os,pracQ1_IDa,pracQ1_IDb,pracQ1_IDc,pracQ1_IDd,pracQ1_optionA,pracQ1_optionB,pracQ1_optionC,pracQ1_optionD,pracQ1_valueA,pracQ1_valueB,pracQ1_valueC,pracQ1_valueD,pracQ2_IDa,pracQ2_IDb,pracQ2_IDc,pracQ2_optionA,pracQ2_optionB,pracQ2_optionC,pracQ2_valueA,pracQ2_valueB,pracQ2_valueC,pracQ4_IDa,pracQ4_IDb,pracQ4_IDc,pracQ4_IDd,pracQ4_optionA,pracQ4_optionB,pracQ4_optionC,pracQ4_optionD,pracQ4_valueA,pracQ4_valueB,pracQ4_valueC,pracQ4_valueD,pracQ5_IDa,pracQ5_IDb,pracQ5_IDc,pracQ5_IDd,pracQ5_optionA,pracQ5_optionB,pracQ5_optionC,pracQ5_optionD,pracQ5_valueA,pracQ5_valueB,pracQ5_valueC,pracQ5_valueD,prefHealty,prefUnhealthy,prolific_ID,psessionID,pstudyID,rep,response,response_action,skip,snack,sublock,subtitle,task_difficulty,task_engagement,task_focus,textL,textR,time_commit,time_end,time_render,time_run,time_show,time_switch,trial_count,trial_countO,url,valence
Title,html.Page,0,2021-05-24T17:45:25.074Z,"{""labjs_version"":""20.2.2"",""labjs_build"":{""flavor"":""production"",""commit"":""a25486e0c714a0ae2ce03ff94b7bb6896854dcfa""},""location"":""https://run.pavlovia.org/E3lab/rebund/html/?PROLIFIC_PID=60a90be1be2d42fba2368523&STUDY_ID=60008f34cd719d13b0d706dd&SESSION_ID=60abe6203ecbf4f071f532bb"",""userAgent"":""Mozilla/5.0 (Windows NT 10.0; Win64; x64) AppleWebKit/537.36 (KHTML, like Gecko) Chrome/90.0.4430.93 Safari/537.36 OPR/76.0.4017.123"",""platform"":""Win32"",""language"":""en-GB"",""locale"":""pl"",""timeZone"":""Europe/Warsaw"",""timezoneOffset"":-120,""screen_width"":1280,""screen_height"":720,""scroll_width"":1280,""scroll_height"":579,""window_innerWidth"":1280,""window_innerHeight"":579,""devicePixelRatio"":1.5}",,,,,,,,,,,,,,,,,,,,,,,,,,,,,,,,,,,,,,,,,,,,,,,,,,,,,,,,,,,,,,,,,,,,,,,,,,,,,,,,,,,,,,,,,,,,,,,,,,,,,,,,,,,,,,,,,,,3781.5149999528376,,form submission,,,,,,,,,,,,,,,,,,,,,,,,,,,,,,,,,,,,,,,,,,,,,,,,,,,,,,,,,,,,,,,,,,,,,,,,,,,,,,,,,,,,,,,5738.08000003919,5737.609999952838,1939.373,1923.4850000357255,1956.095,5761.405,,,"{""PROLIFIC_PID"":""60a90be1be2d42fba2368523"",""STUDY_ID"":""60008f34cd719d13b0d706dd"",""SESSION_ID"":""60abe6203ecbf4f071f532bb""}",
get_systemInfo,canvas.Screen,1,2021-05-24T17:45:25.099Z,,,,,,,,,,,,,,,,,,,,,,,,,,,,,,,,,,,,,,,,,,,,,,,,,,,,,,,,,,,,,,,,,,,,,,,,,,,,,,,,,,,,,,,,,,,,,,,,,,,,,,,,,Opera,,,,,,,,,,,4490.580000000001,,timeout,,76.0.4017.123,,,,,,,,,,,,76,,,,,,,,Netscape,"Mozilla/5.0 (Windows NT 10.0; Win64; x64) AppleWebKit/537.36 (KHTML, like Gecko) Chrome/90.0.4430.93 Safari/537.36 OPR/76.0.4017.123",Windows,,,,,,,,,,,,,,,,,,,,,,,,,,,,,,,,,,,,,,,,,,,,,,,,60a90be1be2d42fba2368523,,60008f34cd719d13b0d706dd,,,,,,,,,,,,,5762.265000026673,5761.930000036955,5720.879,5738.855000003241,5761.405,10251.985,,,,
ConsentForm,html.Form,2_0,2021-05-24T17:47:05.497Z,,,,,,,,,,,,,,,,,,,,,,,,,,,,,,,,,,,,,,,,,,,,,,,,,,,,,,,,,,,,,,,,,,,,,,,,,,,,,,,,,,,,,,,,,,,,,,,,,,,,,,,,,,,,true,true,,,,,,,95909.26500000466,,form submission,,,,,,,,,,,,,,,,,,,,,,,,,,,,,,,,,,,,,,,,,,,,,,,,,,,,,,,,,,,,,,,,,,,,,,,,,,,,,,,,,,,,,,,106161.47499997169,106161.25000000466,5761.930000036955,10257.184999994934,10251.985,106171.285,,,,
PepTalk,html.Page,2_1,2021-05-24T17:47:20.073Z,,,,,,,,,,,,,,,,,,,,,,,,,,,,,,,,,,,,,,,,,,,,,,,,,,,,,,,,,,,,,,,,,,,,,,,,,,,,,,,,,,,,,,,,,,,,,,,,,,,,,,,,,,,,,,,,,,,,14565.779999993887,,form submission,,,,,,,,,,,,,,,,,,,,,,,,,,,,,,,,,,,,,,,,,,,,,,,,,,,,,,,,,,,,,,,,,,,,,,,,,,,,,,,,,,,,,,,120737.26500000339,120737.06499999389,106154.663,106161.57500003465,106171.285,120747.435,,,,
Demographics,html.Form,2_2,2021-05-24T17:47:30.978Z,,,,,,,,,,,,,,,,,,,,,,,,,,,,,,,,,,,,,,,,,,,,,,,,,,,,,,,,,,,,,,,,,,,,,,,,,,,,,,,,,,,,,,,,,,,,,,,,,,,,,,,,,,,,,,,,,,,,10893.900000051188,2,form submission,,,2,,,,,21,,Student,,,,,,,,,,,,,,,,,,,,,,,,,,,,,,,,,,,,,,,,,,,,,,,,,,,,,,,,,,,,,,,,,,,,,,,,,,,,,131641.68999996036,131641.3350000512,120730.818,120737.34500003047,120747.435,131658.746,,,,
InclusionCrit,html.Form,2_3,2021-05-24T17:47:47.162Z,,,,,,,,,,,,,,,,,,,,,,,,,,,,,,,,,,,,,,,,,,,,,,,,,,,,,,,,,,,,,,,,,,,,,,,,,,,,,,,,,,,,,,,,,,,,,,,,,,,,,,,,,,,,,,,,,,1,0,16166.638999974617,,form submission,1,,,,,,,,,,,,,,,,,,,,,,,,,,,,,,,,,,,,,,,,,,,,,,,,,,,,,,,,,,,,,,,,,,,,,,,,,,,,,,,,,,,,,,147825.58000006247,147825.38499997463,131642.016,131641.78499998525,131658.746,147834.122,,,,
Selection,html.Page,2_4_0,2021-05-24T17:47:54.738Z,,,,,,,,,,,,,,,,,,,,,,,,,,,,,,,,,,,,,,,,,,,,,,,,,,,,,,,,,,,,,,,,,,,,,,,,,,,,,,,,,,,,,,,,,,,,,,,,,,,,,,,,,,,,,,,,,,,,7566.957999981445,,form submission,,,,,,,,,,,,,,,,,,,,,,,,,,,,,,,,,,,,,,,,,,,,,,,,,,,,,,,,,,,,,,,,,,,,,,,,,,,,,,,1,,,,,,,,155401.27000003122,155401.07999998145,147817.424,147825.7150000427,147834.122,155413.734,,,,
Load,html.Page,2_4_1,2021-05-24T17:47:54.751Z,,,,,,,,,,,,,,,,,,,,,,,,,,,,,,,,,,,,,,,,,,,,,,,,,,,,,,,,,,,,,,,,,,,,,,,,,,,,,,,,,,,,,,,,,,,,,,,,,,,,,,,,,,,,,,,,,,,,8612.366999999998,,timeout,,,,,,,,,,,,,,,,,,,,,,,,,,,,,,,,,,,,,,,,,,,,,,,,,,,,,,,,,,,,,,,,,,,,,,,,,,,,,,,,,,,,,,,155414.48999999557,155414.05000002123,155397.055,155401.36000001803,155413.734,164026.101,,,,
SequenceSweet,flow.Sequence,2_4_2,2021-05-24T17:47:58.885Z,,,,,,,,,,,,,,,,,,,,,,,,,,,,,,,,,,,,,,,,,,,,,,,,,,,,,,,,,,,,,,,,,,,,,,,,,,,,,,,,,,,,,,,,,,,,,,,,,,,,,,,,,,,,,,,,,,,,NaN,,skipped,,,,,,,,,,,,,,,,,,,,,,,,,,,,,,,,,,,,,,,,,,,,,,,,,,,,,,,,,,,,,,,,,,,,,,,,,,,,,,true,,,,,,,,,159548.7799999537,155414.05000002123,,159548.1650000438,,164026.101,0,0,,
ratings_instructions,html.Screen,2_4_3_0,2021-05-24T17:48:17.902Z,,,,,,,,,,,,,,,,,,,,,,,,,,,,,,,,,,,,,,,,,,,,,,,,,,,,,,,,,,,,,,,,,,,,,,,,,,,,,,,,,,,,,,,,,,,,,,,,,,,,,,,,,,,,,,,,,,,,14537.358999975753,,response,,,,,,,,,,,,,,,,,,,,,,,,,,,,,,,,,,,,,,,,,,,,,,,,,,,,,,,,,,,,,,,,,,,,,,,,,,,,continue,keypress(Space),false,,,,,,,,,178565.2649999829,178563.45999997575,155414.05000002123,164036.16500005592,164026.101,178568.927,0,0,,
fixCross,canvas.Screen,2_4_3_1_0_0,2021-05-24T17:48:18.389Z,,,,,,,,,,,,,,,,,,,,,,,,,,,,,,,,,,,,,,,,,,,,,,,,,,,,,,,,,,,,,,,,,,,,,,,,,,,,,,,,,,,,,,,,,,,,,,,,,,,,,,,,,,,,,,,,,,,,499.7719999999972,,timeout,,,,healthy,,celery.png,,,,,,,,,,,,,,,celery,,,,,,,,,,,,,,,,,,,,,,,,,,,,,,,,,,,,,,,,,,,,,,,,,,,,,,,,,false,,,,,,,,,179052.6499999687,179052.005,178552.263,178565.62999996822,178568.927,179068.699,,,,
Rating,html.Form,2_4_3_1_0_1,2021-05-24T17:48:37.651Z,,,,,,,,,,,,,,,,,,,,,,,,,,,,,,,,,,,,,,,,,,,,,,,,,,,,,,,,,,,,,,,,,,,,,,,,,,,,,,,,,,,,,,,,,,,,,,,,,,,,,,,,,,,,,,,,,,,,19245.81599997639,,form submission,,,,healthy,,celery.png,,,,,,,,,,,,,,,celery,,,,,,,,,,,,,,,,,,,,,,,,,,,,,,,,,,,,,,,,,,,,,,,,,,,,,,,,,false,,,,,,,,,198314.69000002835,198314.51499997638,179052.005,179052.80000006314,179068.699,198325.891,,,,10
rating_sequence,flow.Sequence,2_4_3_1_0,2021-05-24T17:48:37.651Z,,,,,,,,,,,,,,,,,,,,,,,,,,,,,,,,,,,,,,,,,,,,,,,,,,,,,,,,,,,,,,,,,,,,,,,,,,,,,,,,,,,,,,,,,,,,,,,,,,,,,,,,,,,,,,,,,,,,19745.587999976386,,completion,,,,healthy,,celery.png,,,,,,,,,,,,,,,celery,,,,,,,,,,,,,,,,,,,,,,,,,,,,,,,,,,,,,,,,,,,,,,,,,,,,,,,,,false,,,,,,,,,198314.8649999639,198314.51499997638,178552.263,178565.59999997262,178568.927,198325.891,,,,
fixCross,canvas.Screen,2_4_3_1_1_0,2021-05-24T17:48:38.146Z,,,,,,,,,,,,,,,,,,,,,,,,,,,,,,,,,,,,,,,,,,,,,,,,,,,,,,,,,,,,,,,,,,,,,,,,,,,,,,,,,,,,,,,,,,,,,,,,,,,,,,,,,,,,,,,,,,,,499.70799999998417,,timeout,,,,unhealthy,,peanut_cracker.png,,,,,,,,,,,,,,,peanut chip,,,,,,,,,,,,,,,,,,,,,,,,,,,,,,,,,,,,,,,,,,,,,,,,,,,,,,,,,false,,,,,,,,,198809.61999995634,198808.965,198309.212,198314.95000002906,198325.891,198825.599,,,,
Rating,html.Form,2_4_3_1_1_1,2021-05-24T17:48:41.922Z,,,,,,,,,,,,,,,,,,,,,,,,,,,,,,,,,,,,,,,,,,,,,,,,,,,,,,,,,,,,,,,,,,,,,,,,,,,,,,,,,,,,,,,,,,,,,,,,,,,,,,,,,,,,,,,,,,,,3759.5610000169254,,form submission,,,,unhealthy,,peanut_cracker.png,,,,,,,,,,,,,,,peanut chip,,,,,,,,,,,,,,,,,,,,,,,,,,,,,,,,,,,,,,,,,,,,,,,,,,,,,,,,,false,,,,,,,,,202585.3450000286,202585.1600000169,198808.965,198809.69500006177,198825.599,202590.435,,,,37
rating_sequence,flow.Sequence,2_4_3_1_1,2021-05-24T17:48:41.922Z,,,,,,,,,,,,,,,,,,,,,,,,,,,,,,,,,,,,,,,,,,,,,,,,,,,,,,,,,,,,,,,,,,,,,,,,,,,,,,,,,,,,,,,,,,,,,,,,,,,,,,,,,,,,,,,,,,,,4259.26900001691,,completion,,,,unhealthy,,peanut_cracker.png,,,,,,,,,,,,,,,peanut chip,,,,,,,,,,,,,,,,,,,,,,,,,,,,,,,,,,,,,,,,,,,,,,,,,,,,,,,,,false,,,,,,,,,202585.49500000663,202585.1600000169,198309.212,198314.9249999551,198325.891,202590.435,,,,
fixCross,canvas.Screen,2_4_3_1_2_0,2021-05-24T17:48:42.411Z,,,,,,,,,,,,,,,,,,,,,,,,,,,,,,,,,,,,,,,,,,,,,,,,,,,,,,,,,,,,,,,,,,,,,,,,,,,,,,,,,,,,,,,,,,,,,,,,,,,,,,,,,,,,,,,,,,,,499.7360000000044,,timeout,,,,healthy,,radish.png,,,,,,,,,,,,,,,radish,,,,,,,,,,,,,,,,,,,,,,,,,,,,,,,,,,,,,,,,,,,,,,,,,,,,,,,,,false,,,,,,,,,203074.2199999513,203073.52,202573.739,202585.57999995537,202590.435,203090.171,,,,
Rating,html.Form,2_4_3_1_2_1,2021-05-24T17:48:46.034Z,,,,,,,,,,,,,,,,,,,,,,,,,,,,,,,,,,,,,,,,,,,,,,,,,,,,,,,,,,,,,,,,,,,,,,,,,,,,,,,,,,,,,,,,,,,,,,,,,,,,,,,,,,,,,,,,,,,,3606.773999974219,,form submission,,,,healthy,,radish.png,,,,,,,,,,,,,,,radish,,,,,,,,,,,,,,,,,,,,,,,,,,,,,,,,,,,,,,,,,,,,,,,,,,,,,,,,,false,,,,,,,,,206697.17000005767,206696.94499997422,203073.52,203074.30500001647,203090.171,206705.067,,,,5
rating_sequence,flow.Sequence,2_4_3_1_2,2021-05-24T17:48:46.034Z,,,,,,,,,,,,,,,,,,,,,,,,,,,,,,,,,,,,,,,,,,,,,,,,,,,,,,,,,,,,,,,,,,,,,,,,,,,,,,,,,,,,,,,,,,,,,,,,,,,,,,,,,,,,,,,,,,,,4106.509999974223,,completion,,,,healthy,,radish.png,,,,,,,,,,,,,,,radish,,,,,,,,,,,,,,,,,,,,,,,,,,,,,,,,,,,,,,,,,,,,,,,,,,,,,,,,,false,,,,,,,,,206697.32999999542,206696.94499997422,202573.739,202585.5600000359,202590.435,206705.067,,,,
fixCross,canvas.Screen,2_4_3_1_3_0,2021-05-24T17:48:46.525Z,,,,,,,,,,,,,,,,,,,,,,,,,,,,,,,,,,,,,,,,,,,,,,,,,,,,,,,,,,,,,,,,,,,,,,,,,,,,,,,,,,,,,,,,,,,,,,,,,,,,,,,,,,,,,,,,,,,,499.7829999999958,,timeout,,,,unhealthy,,sausage.png,,,,,,,,,,,,,,,salami,,,,,,,,,,,,,,,,,,,,,,,,,,,,,,,,,,,,,,,,,,,,,,,,,,,,,,,,,false,,,,,,,,,207188.7600000482,207188.158,206688.416,206697.41999998223,206705.067,207204.85,,,,
Rating,html.Form,2_4_3_1_3_1,2021-05-24T17:48:49.090Z,,,,,,,,,,,,,,,,,,,,,,,,,,,,,,,,,,,,,,,,,,,,,,,,,,,,,,,,,,,,,,,,,,,,,,,,,,,,,,,,,,,,,,,,,,,,,,,,,,,,,,,,,,,,,,,,,,,,2548.20000005755,,form submission,,,,unhealthy,,sausage.png,,,,,,,,,,,,,,,salami,,,,,,,,,,,,,,,,,,,,,,,,,,,,,,,,,,,,,,,,,,,,,,,,,,,,,,,,,false,,,,,,,,,209753.2249999931,209753.05000005756,207188.158,207188.85999999475,207204.85,209770.24,,,,33
rating_sequence,flow.Sequence,2_4_3_1_3,2021-05-24T17:48:49.090Z,,,,,,,,,,,,,,,,,,,,,,,,,,,,,,,,,,,,,,,,,,,,,,,,,,,,,,,,,,,,,,,,,,,,,,,,,,,,,,,,,,,,,,,,,,,,,,,,,,,,,,,,,,,,,,,,,,,,3047.9830000575457,,completion,,,,unhealthy,,sausage.png,,,,,,,,,,,,,,,salami,,,,,,,,,,,,,,,,,,,,,,,,,,,,,,,,,,,,,,,,,,,,,,,,,,,,,,,,,false,,,,,,,,,209753.35500005167,209753.05000005756,206688.416,206697.40000006277,206705.067,209770.24,,,,
fixCross,canvas.Screen,2_4_3_1_4_0,2021-05-24T17:48:49.591Z,,,,,,,,,,,,,,,,,,,,,,,,,,,,,,,,,,,,,,,,,,,,,,,,,,,,,,,,,,,,,,,,,,,,,,,,,,,,,,,,,,,,,,,,,,,,,,,,,,,,,,,,,,,,,,,,,,,,499.73200000001816,,timeout,,,,unhealthy,,chips.png,,,,,,,,,,,,,,,potato chip,,,,,,,,,,,,,,,,,,,,,,,,,,,,,,,,,,,,,,,,,,,,,,,,,,,,,,,,,false,,,,,,,,,210254.07500006258,210253.325,209753.497,209753.46499995794,209770.24,210269.972,,,,
Rating,html.Form,2_4_3_1_4_1,2021-05-24T17:48:51.858Z,,,,,,,,,,,,,,,,,,,,,,,,,,,,,,,,,,,,,,,,,,,,,,,,,,,,,,,,,,,,,,,,,,,,,,,,,,,,,,,,,,,,,,,,,,,,,,,,,,,,,,,,,,,,,,,,,,,,2251.058000061719,,form submission,,,,unhealthy,,chips.png,,,,,,,,,,,,,,,potato chip,,,,,,,,,,,,,,,,,,,,,,,,,,,,,,,,,,,,,,,,,,,,,,,,,,,,,,,,,false,,,,,,,,,212521.28500002436,212521.03000006173,210253.325,210254.19000000693,210269.972,212552.218,,,,61
rating_sequence,flow.Sequence,2_4_3_1_4,2021-05-24T17:48:51.858Z,,,,,,,,,,,,,,,,,,,,,,,,,,,,,,,,,,,,,,,,,,,,,,,,,,,,,,,,,,,,,,,,,,,,,,,,,,,,,,,,,,,,,,,,,,,,,,,,,,,,,,,,,,,,,,,,,,,,2750.7900000617374,,completion,,,,unhealthy,,chips.png,,,,,,,,,,,,,,,potato chip,,,,,,,,,,,,,,,,,,,,,,,,,,,,,,,,,,,,,,,,,,,,,,,,,,,,,,,,,false,,,,,,,,,212521.4149999665,212521.03000006173,209753.497,209753.40499996673,209770.24,212552.218,,,,
fixCross,canvas.Screen,2_4_3_1_5_0,2021-05-24T17:48:52.372Z,,,,,,,,,,,,,,,,,,,,,,,,,,,,,,,,,,,,,,,,,,,,,,,,,,,,,,,,,,,,,,,,,,,,,,,,,,,,,,,,,,,,,,,,,,,,,,,,,,,,,,,,,,,,,,,,,,,,499.7490000000107,,timeout,,,,healthy,,tomato.png,,,,,,,,,,,,,,,cherry tomato,,,,,,,,,,,,,,,,,,,,,,,,,,,,,,,,,,,,,,,,,,,,,,,,,,,,,,,,,false,,,,,,,,,213036.04000003543,213035.286,212535.464,212521.4949999936,212552.218,213051.967,,,,
Rating,html.Form,2_4_3_1_5_1,2021-05-24T17:48:54.714Z,,,,,,,,,,,,,,,,,,,,,,,,,,,,,,,,,,,,,,,,,,,,,,,,,,,,,,,,,,,,,,,,,,,,,,,,,,,,,,,,,,,,,,,,,,,,,,,,,,,,,,,,,,,,,,,,,,,,2325.0880000481266,,form submission,,,,healthy,,tomato.png,,,,,,,,,,,,,,,cherry tomato,,,,,,,,,,,,,,,,,,,,,,,,,,,,,,,,,,,,,,,,,,,,,,,,,,,,,,,,,false,,,,,,,,,215377.23500002176,215377.05500004813,213035.286,213036.13000002224,213051.967,215400.814,,,,63
rating_sequence,flow.Sequence,2_4_3_1_5,2021-05-24T17:48:54.714Z,,,,,,,,,,,,,,,,,,,,,,,,,,,,,,,,,,,,,,,,,,,,,,,,,,,,,,,,,,,,,,,,,,,,,,,,,,,,,,,,,,,,,,,,,,,,,,,,,,,,,,,,,,,,,,,,,,,,2824.8370000481373,,completion,,,,healthy,,tomato.png,,,,,,,,,,,,,,,cherry tomato,,,,,,,,,,,,,,,,,,,,,,,,,,,,,,,,,,,,,,,,,,,,,,,,,,,,,,,,,false,,,,,,,,,215377.3499999661,215377.05500004813,212535.464,212521.47499995772,212552.218,215400.814,,,,
fixCross,canvas.Screen,2_4_3_1_6_0,2021-05-24T17:48:55.221Z,,,,,,,,,,,,,,,,,,,,,,,,,,,,,,,,,,,,,,,,,,,,,,,,,,,,,,,,,,,,,,,,,,,,,,,,,,,,,,,,,,,,,,,,,,,,,,,,,,,,,,,,,,,,,,,,,,,,499.70799999998417,,timeout,,,,unhealthy,,frie.png,,,,,,,,,,,,,,,frie,,,,,,,,,,,,,,,,,,,,,,,,,,,,,,,,,,,,,,,,,,,,,,,,,,,,,,,,,false,,,,,,,,,215884.4500000123,215883.83,215384.101,215377.42999999318,215400.814,215900.522,,,,
Rating,html.Form,2_4_3_1_6_1,2021-05-24T17:48:58.146Z,,,,,,,,,,,,,,,,,,,,,,,,,,,,,,,,,,,,,,,,,,,,,,,,,,,,,,,,,,,,,,,,,,,,,,,,,,,,,,,,,,,,,,,,,,,,,,,,,,,,,,,,,,,,,,,,,,,,2908.423000055249,,form submission,,,,unhealthy,,frie.png,,,,,,,,,,,,,,,frie,,,,,,,,,,,,,,,,,,,,,,,,,,,,,,,,,,,,,,,,,,,,,,,,,,,,,,,,,false,,,,,,,,,218809.12500002887,218808.94500005525,215883.83,215884.5399999991,215900.522,218815.787,,,,73
rating_sequence,flow.Sequence,2_4_3_1_6,2021-05-24T17:48:58.146Z,,,,,,,,,,,,,,,,,,,,,,,,,,,,,,,,,,,,,,,,,,,,,,,,,,,,,,,,,,,,,,,,,,,,,,,,,,,,,,,,,,,,,,,,,,,,,,,,,,,,,,,,,,,,,,,,,,,,3408.131000055233,,completion,,,,unhealthy,,frie.png,,,,,,,,,,,,,,,frie,,,,,,,,,,,,,,,,,,,,,,,,,,,,,,,,,,,,,,,,,,,,,,,,,,,,,,,,,false,,,,,,,,,218809.2450000113,218808.94500005525,215384.101,215377.40500003565,215400.814,218815.787,,,,
fixCross,canvas.Screen,2_4_3_1_7_0,2021-05-24T17:48:58.637Z,,,,,,,,,,,,,,,,,,,,,,,,,,,,,,,,,,,,,,,,,,,,,,,,,,,,,,,,,,,,,,,,,,,,,,,,,,,,,,,,,,,,,,,,,,,,,,,,,,,,,,,,,,,,,,,,,,,,499.7619999999879,,timeout,,,,healthy,,cashew.png,,,,,,,,,,,,,,,cashew,,,,,,,,,,,,,,,,,,,,,,,,,,,,,,,,,,,,,,,,,,,,,,,,,,,,,,,,,false,,,,,,,,,219300.23000005167,219298.851,218799.099,218809.32500003837,218815.787,219315.549,,,,
Rating,html.Form,2_4_3_1_7_1,2021-05-24T17:49:01.610Z,,,,,,,,,,,,,,,,,,,,,,,,,,,,,,,,,,,,,,,,,,,,,,,,,,,,,,,,,,,,,,,,,,,,,,,,,,,,,,,,,,,,,,,,,,,,,,,,,,,,,,,,,,,,,,,,,,,,2957.610999982455,,form submission,,,,healthy,,cashew.png,,,,,,,,,,,,,,,cashew,,,,,,,,,,,,,,,,,,,,,,,,,,,,,,,,,,,,,,,,,,,,,,,,,,,,,,,,,false,,,,,,,,,222273.36500003003,222273.15999998245,219298.851,219300.30500004068,219315.549,222280.727,,,,100
rating_sequence,flow.Sequence,2_4_3_1_7,2021-05-24T17:49:01.610Z,,,,,,,,,,,,,,,,,,,,,,,,,,,,,,,,,,,,,,,,,,,,,,,,,,,,,,,,,,,,,,,,,,,,,,,,,,,,,,,,,,,,,,,,,,,,,,,,,,,,,,,,,,,,,,,,,,,,3457.3729999824427,,completion,,,,healthy,,cashew.png,,,,,,,,,,,,,,,cashew,,,,,,,,,,,,,,,,,,,,,,,,,,,,,,,,,,,,,,,,,,,,,,,,,,,,,,,,,false,,,,,,,,,222273.50000001024,222273.15999998245,218799.099,218809.29999996442,218815.787,222280.727,,,,
fixCross,canvas.Screen,2_4_3_1_8_0,2021-05-24T17:49:02.101Z,,,,,,,,,,,,,,,,,,,,,,,,,,,,,,,,,,,,,,,,,,,,,,,,,,,,,,,,,,,,,,,,,,,,,,,,,,,,,,,,,,,,,,,,,,,,,,,,,,,,,,,,,,,,,,,,,,,,499.77799999999115,,timeout,,,,unhealthy,,nacho.png,,,,,,,,,,,,,,,nacho,,,,,,,,,,,,,,,,,,,,,,,,,,,,,,,,,,,,,,,,,,,,,,,,,,,,,,,,,false,,,,,,,,,222764.45999997668,222763.823,222264.006,222273.57499999925,222280.727,222780.505,,,,
Rating,html.Form,2_4_3_1_8_1,2021-05-24T17:49:04.690Z,,,,,,,,,,,,,,,,,,,,,,,,,,,,,,,,,,,,,,,,,,,,,,,,,,,,,,,,,,,,,,,,,,,,,,,,,,,,,,,,,,,,,,,,,,,,,,,,,,,,,,,,,,,,,,,,,,,,2572.6050000254763,,form submission,,,,unhealthy,,nacho.png,,,,,,,,,,,,,,,nacho,,,,,,,,,,,,,,,,,,,,,,,,,,,,,,,,,,,,,,,,,,,,,,,,,,,,,,,,,false,,,,,,,,,225353.28000003938,225353.11000002548,222763.823,222764.5499999635,222780.505,225362.53,,,,83
rating_sequence,flow.Sequence,2_4_3_1_8,2021-05-24T17:49:04.690Z,,,,,,,,,,,,,,,,,,,,,,,,,,,,,,,,,,,,,,,,,,,,,,,,,,,,,,,,,,,,,,,,,,,,,,,,,,,,,,,,,,,,,,,,,,,,,,,,,,,,,,,,,,,,,,,,,,,,3072.3830000254675,,completion,,,,unhealthy,,nacho.png,,,,,,,,,,,,,,,nacho,,,,,,,,,,,,,,,,,,,,,,,,,,,,,,,,,,,,,,,,,,,,,,,,,,,,,,,,,false,,,,,,,,,225353.39499998372,225353.11000002548,222264.006,222273.55499996338,222280.727,225362.53,,,,
fixCross,canvas.Screen,2_4_3_1_9_0,2021-05-24T17:49:05.183Z,,,,,,,,,,,,,,,,,,,,,,,,,,,,,,,,,,,,,,,,,,,,,,,,,,,,,,,,,,,,,,,,,,,,,,,,,,,,,,,,,,,,,,,,,,,,,,,,,,,,,,,,,,,,,,,,,,,,499.7859999999928,,timeout,,,,healthy,,cucumber.png,,,,,,,,,,,,,,,cucumber,,,,,,,,,,,,,,,,,,,,,,,,,,,,,,,,,,,,,,,,,,,,,,,,,,,,,,,,,false,,,,,,,,,225846.20500006713,225845.628,225345.875,225353.46999997273,225362.53,225862.316,,,,
Rating,html.Form,2_4_3_1_9_1,2021-05-24T17:49:07.530Z,,,,,,,,,,,,,,,,,,,,,,,,,,,,,,,,,,,,,,,,,,,,,,,,,,,,,,,,,,,,,,,,,,,,,,,,,,,,,,,,,,,,,,,,,,,,,,,,,,,,,,,,,,,,,,,,,,,,2330.7289999636123,,form submission,,,,healthy,,cucumber.png,,,,,,,,,,,,,,,cucumber,,,,,,,,,,,,,,,,,,,,,,,,,,,,,,,,,,,,,,,,,,,,,,,,,,,,,,,,,false,,,,,,,,,228193.2149999775,228193.0449999636,225845.628,225846.2999999756,225862.316,228194.402,,,,59
rating_sequence,flow.Sequence,2_4_3_1_9,2021-05-24T17:49:07.530Z,,,,,,,,,,,,,,,,,,,,,,,,,,,,,,,,,,,,,,,,,,,,,,,,,,,,,,,,,,,,,,,,,,,,,,,,,,,,,,,,,,,,,,,,,,,,,,,,,,,,,,,,,,,,,,,,,,,,2830.514999963605,,completion,,,,healthy,,cucumber.png,,,,,,,,,,,,,,,cucumber,,,,,,,,,,,,,,,,,,,,,,,,,,,,,,,,,,,,,,,,,,,,,,,,,,,,,,,,,false,,,,,,,,,228193.33000003826,228193.0449999636,225345.875,225353.4450000152,225362.53,228194.402,,,,
fixCross,canvas.Screen,2_4_3_1_10_0,2021-05-24T17:49:08.015Z,,,,,,,,,,,,,,,,,,,,,,,,,,,,,,,,,,,,,,,,,,,,,,,,,,,,,,,,,,,,,,,,,,,,,,,,,,,,,,,,,,,,,,,,,,,,,,,,,,,,,,,,,,,,,,,,,,,,499.8489999999874,,timeout,,,,unhealthy,,dried_meat.png,,,,,,,,,,,,,,,dried meat,,,,,,,,,,,,,,,,,,,,,,,,,,,,,,,,,,,,,,,,,,,,,,,,,,,,,,,,,false,,,,,,,,,228678.30000002868,228677.567,228177.816,228193.40500002727,228194.402,228694.251,,,,
Rating,html.Form,2_4_3_1_10_1,2021-05-24T17:49:11.578Z,,,,,,,,,,,,,,,,,,,,,,,,,,,,,,,,,,,,,,,,,,,,,,,,,,,,,,,,,,,,,,,,,,,,,,,,,,,,,,,,,,,,,,,,,,,,,,,,,,,,,,,,,,,,,,,,,,,,3546.639000015508,,form submission,,,,unhealthy,,dried_meat.png,,,,,,,,,,,,,,,dried meat,,,,,,,,,,,,,,,,,,,,,,,,,,,,,,,,,,,,,,,,,,,,,,,,,,,,,,,,,false,,,,,,,,,232241.08499998692,232240.8900000155,228677.567,228678.4200000111,228694.251,232259.144,,,,26
rating_sequence,flow.Sequence,2_4_3_1_10,2021-05-24T17:49:11.578Z,,,,,,,,,,,,,,,,,,,,,,,,,,,,,,,,,,,,,,,,,,,,,,,,,,,,,,,,,,,,,,,,,,,,,,,,,,,,,,,,,,,,,,,,,,,,,,,,,,,,,,,,,,,,,,,,,,,,4046.4880000154953,,completion,,,,unhealthy,,dried_meat.png,,,,,,,,,,,,,,,dried meat,,,,,,,,,,,,,,,,,,,,,,,,,,,,,,,,,,,,,,,,,,,,,,,,,,,,,,,,,false,,,,,,,,,232241.20499996934,232240.8900000155,228177.816,228193.37999995332,228194.402,232259.144,,,,
fixCross,canvas.Screen,2_4_3_1_11_0,2021-05-24T17:49:12.079Z,,,,,,,,,,,,,,,,,,,,,,,,,,,,,,,,,,,,,,,,,,,,,,,,,,,,,,,,,,,,,,,,,,,,,,,,,,,,,,,,,,,,,,,,,,,,,,,,,,,,,,,,,,,,,,,,,,,,499.7630000000063,,timeout,,,,healthy,,carrot.png,,,,,,,,,,,,,,,carrot,,,,,,,,,,,,,,,,,,,,,,,,,,,,,,,,,,,,,,,,,,,,,,,,,,,,,,,,,false,,,,,,,,,232742.91999998968,232742.221,232242.426,232241.27999995835,232259.144,232758.907,,,,
Rating,html.Form,2_4_3_1_11_1,2021-05-24T17:49:14.378Z,,,,,,,,,,,,,,,,,,,,,,,,,,,,,,,,,,,,,,,,,,,,,,,,,,,,,,,,,,,,,,,,,,,,,,,,,,,,,,,,,,,,,,,,,,,,,,,,,,,,,,,,,,,,,,,,,,,,2282.043000053265,,form submission,,,,healthy,,carrot.png,,,,,,,,,,,,,,,carrot,,,,,,,,,,,,,,,,,,,,,,,,,,,,,,,,,,,,,,,,,,,,,,,,,,,,,,,,,false,,,,,,,,,235041.16500006057,235040.95000005327,232742.221,232743.01500001457,232758.907,235041.036,,,,79
rating_sequence,flow.Sequence,2_4_3_1_11,2021-05-24T17:49:14.378Z,,,,,,,,,,,,,,,,,,,,,,,,,,,,,,,,,,,,,,,,,,,,,,,,,,,,,,,,,,,,,,,,,,,,,,,,,,,,,,,,,,,,,,,,,,,,,,,,,,,,,,,,,,,,,,,,,,,,2781.8060000532714,,completion,,,,healthy,,carrot.png,,,,,,,,,,,,,,,carrot,,,,,,,,,,,,,,,,,,,,,,,,,,,,,,,,,,,,,,,,,,,,,,,,,,,,,,,,,false,,,,,,,,,235041.30499996245,235040.95000005327,232242.426,232241.2600000389,232259.144,235041.036,,,,
fixCross,canvas.Screen,2_4_3_1_12_0,2021-05-24T17:49:14.861Z,,,,,,,,,,,,,,,,,,,,,,,,,,,,,,,,,,,,,,,,,,,,,,,,,,,,,,,,,,,,,,,,,,,,,,,,,,,,,,,,,,,,,,,,,,,,,,,,,,,,,,,,,,,,,,,,,,,,499.8390000000072,,timeout,,,,healthy,,walnut.png,,,,,,,,,,,,,,,walnut,,,,,,,,,,,,,,,,,,,,,,,,,,,,,,,,,,,,,,,,,,,,,,,,,,,,,,,,,false,,,,,,,,,235524.71000002697,235524.114,235024.401,235041.38499998953,235041.036,235540.875,,,,
Rating,html.Form,2_4_3_1_12_1,2021-05-24T17:49:16.978Z,,,,,,,,,,,,,,,,,,,,,,,,,,,,,,,,,,,,,,,,,,,,,,,,,,,,,,,,,,,,,,,,,,,,,,,,,,,,,,,,,,,,,,,,,,,,,,,,,,,,,,,,,,,,,,,,,,,,2100.1400000592694,,form submission,,,,healthy,,walnut.png,,,,,,,,,,,,,,,walnut,,,,,,,,,,,,,,,,,,,,,,,,,,,,,,,,,,,,,,,,,,,,,,,,,,,,,,,,,false,,,,,,,,,237641.26499998383,237641.01500005927,235524.114,235524.77500005625,235540.875,237656.491,,,,78
rating_sequence,flow.Sequence,2_4_3_1_12,2021-05-24T17:49:16.978Z,,,,,,,,,,,,,,,,,,,,,,,,,,,,,,,,,,,,,,,,,,,,,,,,,,,,,,,,,,,,,,,,,,,,,,,,,,,,,,,,,,,,,,,,,,,,,,,,,,,,,,,,,,,,,,,,,,,,2599.9790000592766,,completion,,,,healthy,,walnut.png,,,,,,,,,,,,,,,walnut,,,,,,,,,,,,,,,,,,,,,,,,,,,,,,,,,,,,,,,,,,,,,,,,,,,,,,,,,false,,,,,,,,,237641.40500000212,237641.01500005927,235024.401,235041.360000032,235041.036,237656.491,,,,
fixCross,canvas.Screen,2_4_3_1_13_0,2021-05-24T17:49:17.477Z,,,,,,,,,,,,,,,,,,,,,,,,,,,,,,,,,,,,,,,,,,,,,,,,,,,,,,,,,,,,,,,,,,,,,,,,,,,,,,,,,,,,,,,,,,,,,,,,,,,,,,,,,,,,,,,,,,,,499.7360000000044,,timeout,,,,unhealthy,,ritz.png,,,,,,,,,,,,,,,cracker,,,,,,,,,,,,,,,,,,,,,,,,,,,,,,,,,,,,,,,,,,,,,,,,,,,,,,,,,false,,,,,,,,,238140.26500005275,238139.568,237639.803,237641.47499995306,237656.491,238156.227,,,,
Rating,html.Form,2_4_3_1_13_1,2021-05-24T17:49:20.554Z,,,,,,,,,,,,,,,,,,,,,,,,,,,,,,,,,,,,,,,,,,,,,,,,,,,,,,,,,,,,,,,,,,,,,,,,,,,,,,,,,,,,,,,,,,,,,,,,,,,,,,,,,,,,,,,,,,,,3060.882999968657,,form submission,,,,unhealthy,,ritz.png,,,,,,,,,,,,,,,cracker,,,,,,,,,,,,,,,,,,,,,,,,,,,,,,,,,,,,,,,,,,,,,,,,,,,,,,,,,false,,,,,,,,,241217.30999997817,241217.10999996867,238139.568,238140.3799999971,238156.227,241221.35,,,,59
rating_sequence,flow.Sequence,2_4_3_1_13,2021-05-24T17:49:20.554Z,,,,,,,,,,,,,,,,,,,,,,,,,,,,,,,,,,,,,,,,,,,,,,,,,,,,,,,,,,,,,,,,,,,,,,,,,,,,,,,,,,,,,,,,,,,,,,,,,,,,,,,,,,,,,,,,,,,,3560.6189999686612,,completion,,,,unhealthy,,ritz.png,,,,,,,,,,,,,,,cracker,,,,,,,,,,,,,,,,,,,,,,,,,,,,,,,,,,,,,,,,,,,,,,,,,,,,,,,,,false,,,,,,,,,241217.42500003893,241217.10999996867,237639.803,237641.4550000336,237656.491,241221.35,,,,
fixCross,canvas.Screen,2_4_3_1_14_0,2021-05-24T17:49:21.041Z,,,,,,,,,,,,,,,,,,,,,,,,,,,,,,,,,,,,,,,,,,,,,,,,,,,,,,,,,,,,,,,,,,,,,,,,,,,,,,,,,,,,,,,,,,,,,,,,,,,,,,,,,,,,,,,,,,,,499.7239999999874,,timeout,,,,unhealthy,,ham.png,,,,,,,,,,,,,,,ham,,,,,,,,,,,,,,,,,,,,,,,,,,,,,,,,,,,,,,,,,,,,,,,,,,,,,,,,,false,,,,,,,,,241704.92499996908,241704.477,241204.715,241217.50999998767,241221.35,241721.074,,,,
Rating,html.Form,2_4_3_1_14_1,2021-05-24T17:49:24.834Z,,,,,,,,,,,,,,,,,,,,,,,,,,,,,,,,,,,,,,,,,,,,,,,,,,,,,,,,,,,,,,,,,,,,,,,,,,,,,,,,,,,,,,,,,,,,,,,,,,,,,,,,,,,,,,,,,,,,3776.0759999519505,,form submission,,,,unhealthy,,ham.png,,,,,,,,,,,,,,,ham,,,,,,,,,,,,,,,,,,,,,,,,,,,,,,,,,,,,,,,,,,,,,,,,,,,,,,,,,false,,,,,,,,,245497.3100000061,245497.14999995194,241704.477,241705.10999998078,241721.074,245502.584,,,,72
rating_sequence,flow.Sequence,2_4_3_1_14,2021-05-24T17:49:24.834Z,,,,,,,,,,,,,,,,,,,,,,,,,,,,,,,,,,,,,,,,,,,,,,,,,,,,,,,,,,,,,,,,,,,,,,,,,,,,,,,,,,,,,,,,,,,,,,,,,,,,,,,,,,,,,,,,,,,,4275.799999951938,,completion,,,,unhealthy,,ham.png,,,,,,,,,,,,,,,ham,,,,,,,,,,,,,,,,,,,,,,,,,,,,,,,,,,,,,,,,,,,,,,,,,,,,,,,,,false,,,,,,,,,245497.42500006687,245497.14999995194,241204.715,241217.474999954,241221.35,245502.584,,,,
fixCross,canvas.Screen,2_4_3_1_15_0,2021-05-24T17:49:25.323Z,,,,,,,,,,,,,,,,,,,,,,,,,,,,,,,,,,,,,,,,,,,,,,,,,,,,,,,,,,,,,,,,,,,,,,,,,,,,,,,,,,,,,,,,,,,,,,,,,,,,,,,,,,,,,,,,,,,,499.73099999999977,,timeout,,,,healthy,,edamame.png,,,,,,,,,,,,,,,edamame,,,,,,,,,,,,,,,,,,,,,,,,,,,,,,,,,,,,,,,,,,,,,,,,,,,,,,,,,false,,,,,,,,,245986.5549999522,245985.695,245485.896,245497.4950000178,245502.584,246002.315,,,,
Rating,html.Form,2_4_3_1_15_1,2021-05-24T17:49:28.106Z,,,,,,,,,,,,,,,,,,,,,,,,,,,,,,,,,,,,,,,,,,,,,,,,,,,,,,,,,,,,,,,,,,,,,,,,,,,,,,,,,,,,,,,,,,,,,,,,,,,,,,,,,,,,,,,,,,,,2766.690000009199,,form submission,,,,healthy,,edamame.png,,,,,,,,,,,,,,,edamame,,,,,,,,,,,,,,,,,,,,,,,,,,,,,,,,,,,,,,,,,,,,,,,,,,,,,,,,,false,,,,,,,,,248769.1600000253,248769.0050000092,245985.695,245986.67000001296,246002.315,248784.266,,,,61
rating_sequence,flow.Sequence,2_4_3_1_15,2021-05-24T17:49:28.106Z,,,,,,,,,,,,,,,,,,,,,,,,,,,,,,,,,,,,,,,,,,,,,,,,,,,,,,,,,,,,,,,,,,,,,,,,,,,,,,,,,,,,,,,,,,,,,,,,,,,,,,,,,,,,,,,,,,,,3266.421000009199,,completion,,,,healthy,,edamame.png,,,,,,,,,,,,,,,edamame,,,,,,,,,,,,,,,,,,,,,,,,,,,,,,,,,,,,,,,,,,,,,,,,,,,,,,,,,false,,,,,,,,,248769.27499996964,248769.0050000092,245485.896,245497.47000006028,245502.584,248784.266,,,,
fixCross,canvas.Screen,2_4_3_1_16_0,2021-05-24T17:49:28.604Z,,,,,,,,,,,,,,,,,,,,,,,,,,,,,,,,,,,,,,,,,,,,,,,,,,,,,,,,,,,,,,,,,,,,,,,,,,,,,,,,,,,,,,,,,,,,,,,,,,,,,,,,,,,,,,,,,,,,499.7829999999958,,timeout,,,,healthy,,pickle.png,,,,,,,,,,,,,,,pickle,,,,,,,,,,,,,,,,,,,,,,,,,,,,,,,,,,,,,,,,,,,,,,,,,,,,,,,,,false,,,,,,,,,249267.95000000857,249267.367,248767.662,248769.33999999892,248784.266,249284.049,,,,
Rating,html.Form,2_4_3_1_16_1,2021-05-24T17:49:30.066Z,,,,,,,,,,,,,,,,,,,,,,,,,,,,,,,,,,,,,,,,,,,,,,,,,,,,,,,,,,,,,,,,,,,,,,,,,,,,,,,,,,,,,,,,,,,,,,,,,,,,,,,,,,,,,,,,,,,,1444.9360000524903,,form submission,,,,healthy,,pickle.png,,,,,,,,,,,,,,,pickle,,,,,,,,,,,,,,,,,,,,,,,,,,,,,,,,,,,,,,,,,,,,,,,,,,,,,,,,,false,,,,,,,,,250729.15500006638,250728.9850000525,249267.367,249268.0499999551,249284.049,250733.291,,,,62
rating_sequence,flow.Sequence,2_4_3_1_16,2021-05-24T17:49:30.066Z,,,,,,,,,,,,,,,,,,,,,,,,,,,,,,,,,,,,,,,,,,,,,,,,,,,,,,,,,,,,,,,,,,,,,,,,,,,,,,,,,,,,,,,,,,,,,,,,,,,,,,,,,,,,,,,,,,,,1944.719000052486,,completion,,,,healthy,,pickle.png,,,,,,,,,,,,,,,pickle,,,,,,,,,,,,,,,,,,,,,,,,,,,,,,,,,,,,,,,,,,,,,,,,,,,,,,,,,false,,,,,,,,,250729.2750000488,250728.9850000525,248767.662,248769.31999996305,248784.266,250733.291,,,,
fixCross,canvas.Screen,2_4_3_1_17_0,2021-05-24T17:49:30.553Z,,,,,,,,,,,,,,,,,,,,,,,,,,,,,,,,,,,,,,,,,,,,,,,,,,,,,,,,,,,,,,,,,,,,,,,,,,,,,,,,,,,,,,,,,,,,,,,,,,,,,,,,,,,,,,,,,,,,499.8379999999888,,timeout,,,,unhealthy,,bretzel.png,,,,,,,,,,,,,,,bretzel,,,,,,,,,,,,,,,,,,,,,,,,,,,,,,,,,,,,,,,,,,,,,,,,,,,,,,,,,false,,,,,,,,,251216.97499998845,251216.368,250716.654,250729.33999996167,250733.291,251233.129,,,,
Rating,html.Form,2_4_3_1_17_1,2021-05-24T17:49:32.682Z,,,,,,,,,,,,,,,,,,,,,,,,,,,,,,,,,,,,,,,,,,,,,,,,,,,,,,,,,,,,,,,,,,,,,,,,,,,,,,,,,,,,,,,,,,,,,,,,,,,,,,,,,,,,,,,,,,,,2111.866000050417,,form submission,,,,unhealthy,,bretzel.png,,,,,,,,,,,,,,,bretzel,,,,,,,,,,,,,,,,,,,,,,,,,,,,,,,,,,,,,,,,,,,,,,,,,,,,,,,,,false,,,,,,,,,253345.2250000555,253344.9950000504,251216.368,251217.0750000514,251233.129,253348.658,,,,53
rating_sequence,flow.Sequence,2_4_3_1_17,2021-05-24T17:49:32.682Z,,,,,,,,,,,,,,,,,,,,,,,,,,,,,,,,,,,,,,,,,,,,,,,,,,,,,,,,,,,,,,,,,,,,,,,,,,,,,,,,,,,,,,,,,,,,,,,,,,,,,,,,,,,,,,,,,,,,2611.7040000504057,,completion,,,,unhealthy,,bretzel.png,,,,,,,,,,,,,,,bretzel,,,,,,,,,,,,,,,,,,,,,,,,,,,,,,,,,,,,,,,,,,,,,,,,,,,,,,,,,false,,,,,,,,,253345.33499996178,253344.9950000504,250716.654,250729.3200000422,250733.291,253348.658,,,,
rating_loop,flow.Loop,2_4_3_1,2021-05-24T17:49:32.682Z,,,,,,,,,,,,,,,,,,,,,,,,,,,,,,,,,,,,,,,,,,,,,,,,,,,,,,,,,,,,,,,,,,,,,,,,,,,,,,,,,,,,,,,,,,,,,,,,,,,,,,,,,,,,,,,,,,,,74776.0680000504,,completion,,,,,,,,,,,,,,,,,,,,,,,,,,,,,,,,,,,,,,,,,,,,,,,,,,,,,,,,,,,,,,,,,,,,,,,,,,,,,,false,,,,,,,,,253345.425000065,253344.9950000504,178552.263,178565.56999997701,178568.927,253348.658,,,,
data_transmission,html.Screen,2_4_3_2,2021-05-24T17:49:32.689Z,,,,,,,,,,,,,,,,,,,,,,,,,,,,,,,,,,,,,,,,,,,,,,,,,,,,,,,,,,,,,,,,,,,,,,,,,,,,,,,,,,,,,,,,,,,,,,,,,,,,,,,,,,,,,,,,,,,,NaN,,no compatible backend,,,,,,,,,,,,,,,Transferring data,,,,,,,,,,,,,,,,,,,,,,,,,,,,,,,,,,,,,,,,,,,,,,,,,,,,,,,,,,,,,,,false,,,Please wait a second…,,,,,,253352.09499998018,253351.9549999619,,253345.4700000584,,253348.658,,,,
instructions,html.Screen,2_4_3_3,2021-05-24T17:51:07.460Z,,,,,,,,,,,,,,,,,,,,,,,,,,,,,,,,,,,,,,,,,,,,,,,,,,,,,,,,,,,,,,,,,,,,,,,,,,,,,,,,,,,,,,,,,,,,,,,,,,,,,,,,,,,,,,,,,,,,94774.50199995918,,done,,,,,,,,,,,,,,,,,,,,,,,,,,,,,,,,,,,,,,,,,,,,,,,,,,,,,,,,,,,,,,,,,,,,,,,,,,,,,,false,,,,,,,,,348123.27500001993,348123.15999995917,253332.045,253352.18000004534,253348.658,348135.279,,,,
Q1,html.Screen,2_4_3_4_0,2021-05-24T17:51:15.251Z,,,,,,,,,,,,,,,,,,,,,,,,,,,,,,,,,,,,,,,,,,,,,,,,,,,,,,,,,,,,,,,,,,,,,,,,,,,,,,,,,,,,,,,,,,,,,,,,,,,,,,,,,,,,,,,,false,input_Q1==3,,,7777.276000046288,,response,,,,,,,,,,,,,,,,,,,,,,,,,Q1_i1,Q1_i3,Q1_i4,Q1_i2,1,3,4,2,false,correct,false,false,,,,,,,,,,,,,,,,,,,,,,,,,,,,,,,,,,,,,,,,,click #Q1_i3,false,,,,,,,,,355914.17000000365,355912.55500004627,348118.351,348123.35999996867,348135.279,355914.751,,,,
Q1_correct,html.Screen,2_4_3_4_1,2021-05-24T17:51:16.495Z,,,,,,,,,,,,,,,,,,,,,,,,,,,,,,,,,,,,,,,,,,,,,,,,,,,,,,,,,,,,,,,,,,,,,,,,,,,,,,,,,,,,,,,,,,,,,,,,,,,,,,,,,,,,,,,,,,,,1242.8990000665071,,response,,,,,,,,,,,,,,,,,,,,,,,,,,,,,,,,,,,,,,,,,,,,,,,,,,,,,,,,,,,,,,,,,,,,,,,,,,,,,keypress,false,,,,,,,,,357158.0949999625,357157.6500000665,355898.138,355914.26500002854,355914.751,357164.141,,,,
Q2,html.Screen,2_4_3_4_2,2021-05-24T17:51:23.009Z,,,,,,,,,,,,,,,,,,,,,,,,,,,,,,,,,,,,,,,,,,,,,,,,,,,,,,,,,,,,,,,,,,,,,,,,,,,,,,,,,,,,,,,,,,,,,,,,,,,,,,,,,,,,,,,,,,,,6508.083999987517,,response,,,,,,,,,,,,,,,,,,,,,,,,,,,,,,,,,,,,,Q2_i1,Q2_i2,Q2_i3,Option 1,Option 2,Same amount,correct,opt2,same,,,,,,,,,,,,,,,,,,,,,,,,,,,,,,,,click #Q2_i1,false,,,,,,,,,363672.90000000503,363672.2249999875,357147.532,357158.2349999808,357164.141,363677.629,,,,
Q2_correct,html.Screen,2_4_3_4_3,2021-05-24T17:51:24.387Z,,,,,,,,,,,,,,,,,,,,,,,,,,,,,,,,,,,,,,,,,,,,,,,,,,,,,,,,,,,,,,,,,,,,,,,,,,,,,,,,,,,,,,,,,,,,,,,,,,,,,,,,,,,,,,,,,,,,1372.3309999748017,,response,,,,,,,,,,,,,,,,,,,,,,,,,,,,,,,,,,,,,,,,,,,,,,,,,,,,,,,,,,,,,,,,,,,,,,,,,,,,,keypress,false,,,,,,,,,365050.5000000121,365049.9599999748,363660.984,363673.00499998964,363677.629,365060.31,,,,
Q4,html.Screen,2_4_3_4_4,2021-05-24T17:51:39.137Z,,,,,,,,,,,,,,,,,,,,,,,,,,,,,,,,,,,,,,,,,,,,,,,,,,,,,,,,,,,,,,,,,,,,,,,,,,,,,,,,,,,,,,,,,,,,,,,,,,,,,,,,,,,,,,,,,,,,14739.965000045078,,response,,,,,,,,,,,,,,,,,,,,,,,,,,,,,,,,,,,,,,,,,,,,,,Q4_i3,Q4_i2,Q4_i1,Q4_i4,Press the arrow key that corresponds with the snack option with more food items,Indicate the number of food items in each snack option,Press the arrow key that corresponds with the snack option I prefer,Press the space key,morefood,indicate,correct,pressspace,,,,,,,,,,,,,,,,,,,,click #Q4_i1,false,,,,,,,,,379800.9600000223,379800.2750000451,365043.626,365050.6349999923,365060.31,379802.951,,,,
Q4_correct,html.Screen,2_4_3_4_5,2021-05-24T17:51:40.424Z,,,,,,,,,,,,,,,,,,,,,,,,,,,,,,,,,,,,,,,,,,,,,,,,,,,,,,,,,,,,,,,,,,,,,,,,,,,,,,,,,,,,,,,,,,,,,,,,,,,,,,,,,,,,,,,,,,,,1283.9890000665328,,response,,,,,,,,,,,,,,,,,,,,,,,,,,,,,,,,,,,,,,,,,,,,,,,,,,,,,,,,,,,,,,,,,,,,,,,,,,,,,keypress,false,,,,,,,,,381087.3300000094,381086.94000006653,379786.373,379801.05999996886,379802.951,381102.328,,,,
Q5,html.Screen,2_4_3_4_6,2021-05-24T17:51:53.241Z,,,,,,,,,,,,,,,,,,,,,,,,,,,,,,,,,,,,,,,,,,,,,,,,,,,,,,,,,,,,,,,,,,,,,,,,,,,,,,,,,,,,,,,,,,,,,,,,,,,,,,,,,,,,,,,,,,,,12802.077000037534,,response,,,,,,,,,,,,,,,,,,,,,,,,,,,,,,,,,,,,,,,,,,,,,,,,,,,,,,,,,,Q5_i4,Q5_i1,Q5_i3,Q5_i2,Snack Option 1 has been chosen,Snack Option 2 has been chosen,There are more slices of kiwi in snack Option 1,There are more pieces of chocolate in snack Option 2,chose1,correct,morekiwi1,morechoc2,,,,,,,,click #Q5_i1,false,,,,,,,,,393905.1899999613,393904.4050000375,381085.642,381087.4850000255,381102.328,393912.768,,,,
Q5_correct,html.Screen,2_4_3_4_7,2021-05-24T17:51:54.326Z,,,,,,,,,,,,,,,,,,,,,,,,,,,,,,,,,,,,,,,,,,,,,,,,,,,,,,,,,,,,,,,,,,,,,,,,,,,,,,,,,,,,,,,,,,,,,,,,,,,,,,,,,,,,,,,,,,,,1076.9170000368613,,response,,,,,,,,,,,,,,,,,,,,,,,,,,,,,,,,,,,,,,,,,,,,,,,,,,,,,,,,,,,,,,,,,,,,,,,,,,,,,keypress,false,,,,,,,,,394990.1649999665,394989.68500003684,393896.027,393905.3250000579,393912.768,395012.129,,,,
practice_sequence,flow.Sequence,2_4_3_4,2021-05-24T17:51:54.326Z,,,,,,,,,,,,,,,,,,,,,,,,,,,,,,,,,,,,,,,,,,,,,,,,,,,,,,,,,,,,,,,,,,,,,,,,,,,,,,,,,,,,,,,,,,,,,,,,,,,,,,,,,,,,,,,,,,,,46854.40600003686,,completion,,,,,,,,,,,,,,,,,,,,,,,,,,,,,,,,,,,,,,,,,,,,,,,,,,,,,,,,,,,,,,,,,,,,,,,,,,,,,,false,,,,,,,,,394990.26500002947,394989.68500003684,348118.351,348123.3400000492,348135.279,395012.129,,,,
final_instru,html.Screen,2_4_3_5,2021-05-24T17:52:32.632Z,,,,,,,,,,,,,,,,,,,,,,,,,,,,,,,,,,,,,,,,,,,,,,,,,,,,,,,,,,,,,,,,,,,,,,,,,,,,,,,,,,,,,,,,,,,,,,,,,,,,,,,,,,,,,,,,,,,,38284.01600002934,,done,,,,,,,,,,,,,,,,,,,,,,,,,,,,,,,,,,,,,,,,,,,,,,,,,,,,,,,,,,,,,,,,,,,,,,,,,,,,,,false,,,,,,,,,433296.25500005204,433296.14500002936,394995.512,394990.3100000229,395012.129,433309.973,,,,
blank_screen,canvas.Screen,2_4_3_6_0,2021-05-24T17:52:34.629Z,,,,,,,,,,,,,,,,,,,,,,,,,,,,,,,,,,,,,,,,,,,,,,,,,,,,,,,,,,,,,,,,,,,,,,,,,,,,,,,,,,,,,,,,,,,,,,,,,,,,,,,,,,,,,,,,,,,,2015.5889999999781,,timeout,,,,,,,,,,,,,,,,,,,,,,,,,,,,,,,,,,,,,,,,,,,,,,,,,,,,,,,,,,,,,,,,,,,,,,,,,,,,,,false,,,,,,,,,435292.81000001356,435292.317,433293.187,433296.34500003885,433309.973,435325.562,,,,
fixCross,canvas.Screen,2_4_3_6_1_0_0_0_0_0_0,2021-05-24T17:52:35.346Z,,,blank.png,blank.png,blank.png,blank.png,blank.png,blank.png,blank.png,"[""nacho.png""]",blank.png,blank.png,blank.png,blank.png,blank.png,,,,,,,,,,,,,,,,,,,,,,,,,,,,,"[""nacho.png""]","[""cashew.png""]",PB18.png,,,,,,,,,,,0,6,"[""cashew.png""]","[""cashew.png""]","[""cashew.png""]","[""cashew.png""]","[""cashew.png""]","[""cashew.png""]",blank.png,PB18.png,PB17.png,"[""cashew.png""]","[""cashew.png""]","[""cashew.png""]","[""cashew.png""]","[""cashew.png""]","[""cashew.png""]","[""cashew.png""]","[""cashew.png""]","[""cashew.png""]","[""cashew.png""]","[""cashew.png""]","[""cashew.png""]",1,"[""nacho.png""]",blank.png,blank.png,blank.png,6,"[""cashew.png""]","[""cashew.png""]","[""cashew.png""]","[""cashew.png""]","[""cashew.png""]","[""cashew.png""]",PB17.png,,,,,,,,,,,1,,,,,,,,,,,,,999.594000000041,,timeout,,,,,,,,,,,,,4,,,,,,,,,,,,,,,,,,,,,,,,,,,,,,,,,,,,,,,,,,,,,,,,,,,,,,,,,"[""cashew.png""]","[""nacho.png""]",,,,1,,,false,,1,,,,,,,436009.64000006206,436008.623,435292.317,435324.7399999527,435325.562,436325.156,1,,,
timeout,canvas.Screen,2_4_3_6_1_0_0_0_0_0_1,2021-05-24T17:52:36.145Z,,,blank.png,blank.png,blank.png,blank.png,blank.png,blank.png,blank.png,"[""nacho.png""]",blank.png,blank.png,blank.png,blank.png,blank.png,,,,,,,,,,,,,,,,,,,,,,,,,,,,,"[""nacho.png""]","[""cashew.png""]",PB18.png,,,,,,,,,,,0,6,"[""cashew.png""]","[""cashew.png""]","[""cashew.png""]","[""cashew.png""]","[""cashew.png""]","[""cashew.png""]",blank.png,PB18.png,PB17.png,"[""cashew.png""]","[""cashew.png""]","[""cashew.png""]","[""cashew.png""]","[""cashew.png""]","[""cashew.png""]","[""cashew.png""]","[""cashew.png""]","[""cashew.png""]","[""cashew.png""]","[""cashew.png""]","[""cashew.png""]",1,"[""nacho.png""]",blank.png,blank.png,blank.png,6,"[""cashew.png""]","[""cashew.png""]","[""cashew.png""]","[""cashew.png""]","[""cashew.png""]","[""cashew.png""]",PB17.png,,,,,,,,,,,1,,,,,,,,,,,,,866.2209999999614,,timeout,,,,,,,,,,,,,4,,,,,,,,,,,,,,,,,,,,,,,,,,,,,,,,,,,,,,,,,,,,,,,,,,,,,,,,,"[""cashew.png""]","[""nacho.png""]",,,,1,,,false,,1,,,,,,,436808.74500004575,436808.234,436008.623,436410.2300000377,436325.156,437191.377,,,,
choice,canvas.Screen,2_4_3_6_1_0_0_0_0_0_2,2021-05-24T17:52:38.749Z,,,blank.png,blank.png,blank.png,blank.png,blank.png,blank.png,blank.png,"[""nacho.png""]",blank.png,blank.png,blank.png,blank.png,blank.png,,,,,,,,,,,,,,,,,,,,,,,,,,,,,"[""nacho.png""]","[""cashew.png""]",PB18.png,,,,,,,,,,,0,6,"[""cashew.png""]","[""cashew.png""]","[""cashew.png""]","[""cashew.png""]","[""cashew.png""]","[""cashew.png""]",blank.png,PB18.png,PB17.png,"[""cashew.png""]","[""cashew.png""]","[""cashew.png""]","[""cashew.png""]","[""cashew.png""]","[""cashew.png""]","[""cashew.png""]","[""cashew.png""]","[""cashew.png""]","[""cashew.png""]","[""cashew.png""]","[""cashew.png""]",1,"[""nacho.png""]",blank.png,blank.png,blank.png,6,"[""cashew.png""]","[""cashew.png""]","[""cashew.png""]","[""cashew.png""]","[""cashew.png""]","[""cashew.png""]",PB17.png,,,,,,,,,,,1,,,,,,,,,,,,,2219.8679999666056,,response,,,,,,,,,,,,,4,,,,,,,,,,,,,,,,,,,,,,,,,,,,,,,,,,,,,,,,,,,,,,,,,,,,,,,,,"[""cashew.png""]","[""nacho.png""]",,,,1,left,keydown(ArrowLeft),false,,1,,,,,,,439412.64999995474,439411.2449999666,436808.234,437199.47500003036,437191.377,439773.362,,1,,
square,canvas.Screen,2_4_3_6_1_0_0_0_0_0_3,2021-05-24T17:52:40.093Z,,,blank.png,blank.png,blank.png,blank.png,blank.png,blank.png,blank.png,"[""nacho.png""]",blank.png,blank.png,blank.png,blank.png,blank.png,,,,,,,,,,,,,,,,,,,,,,,,,,,,,"[""nacho.png""]","[""cashew.png""]",PB18.png,,,,,,,,,,,0,6,"[""cashew.png""]","[""cashew.png""]","[""cashew.png""]","[""cashew.png""]","[""cashew.png""]","[""cashew.png""]",blank.png,PB18.png,PB17.png,"[""cashew.png""]","[""cashew.png""]","[""cashew.png""]","[""cashew.png""]","[""cashew.png""]","[""cashew.png""]","[""cashew.png""]","[""cashew.png""]","[""cashew.png""]","[""cashew.png""]","[""cashew.png""]","[""cashew.png""]",1,"[""nacho.png""]",blank.png,blank.png,blank.png,6,"[""cashew.png""]","[""cashew.png""]","[""cashew.png""]","[""cashew.png""]","[""cashew.png""]","[""cashew.png""]",PB17.png,,,,,,,,,,,1,,,#33ff3f,#808080,,,,,,,,,999.609999999986,,timeout,,,,,,,,,,,,,4,,,,,,,,,,,,,,,,,,,,,,,,,,,,,,,,,,,,,,,,,,,,,,,,,,,,,,,,,"[""cashew.png""]","[""nacho.png""]",,,,1,,,false,,1,,,,,black,white,440756.9800000638,440756.289,439756.734,439767.6399999764,439773.362,440772.972,,,,
ITI_late,canvas.Screen,2_4_3_6_1_0_0_0_0_0_4,2021-05-24T17:52:40.593Z,,,blank.png,blank.png,blank.png,blank.png,blank.png,blank.png,blank.png,"[""nacho.png""]",blank.png,blank.png,blank.png,blank.png,blank.png,,,,,,,,,,,,,,,,,,,,,,,,,,,,,"[""nacho.png""]","[""cashew.png""]",PB18.png,,,,,,,,,,,0,6,"[""cashew.png""]","[""cashew.png""]","[""cashew.png""]","[""cashew.png""]","[""cashew.png""]","[""cashew.png""]",blank.png,PB18.png,PB17.png,"[""cashew.png""]","[""cashew.png""]","[""cashew.png""]","[""cashew.png""]","[""cashew.png""]","[""cashew.png""]","[""cashew.png""]","[""cashew.png""]","[""cashew.png""]","[""cashew.png""]","[""cashew.png""]","[""cashew.png""]",1,"[""nacho.png""]",blank.png,blank.png,blank.png,6,"[""cashew.png""]","[""cashew.png""]","[""cashew.png""]","[""cashew.png""]","[""cashew.png""]","[""cashew.png""]",PB17.png,,,,,,,,,,,1,,,,,,,,,,,,,499.7019999999902,,timeout,,,,,,,,,,,,white,4,,,,,,,,,,,,,,,,,,,,,,,,,,,,,,,,,,,,,,,,,,,,,,,,,,,,,,,,,"[""cashew.png""]","[""nacho.png""]",,,,1,,,false,,1,,,,,,,441256.6200000001,441256.037,440756.289,440758.3400000585,440772.972,441272.674,,,,
choice_sequence,flow.Sequence,2_4_3_6_1_0_0_0_0_0,2021-05-24T17:52:40.593Z,,,blank.png,blank.png,blank.png,blank.png,blank.png,blank.png,blank.png,"[""nacho.png""]",blank.png,blank.png,blank.png,blank.png,blank.png,,,,,,,,,,,,,,,,,,,,,,,,,,,,,"[""nacho.png""]","[""cashew.png""]",PB18.png,,,,,,,,,,,0,6,"[""cashew.png""]","[""cashew.png""]","[""cashew.png""]","[""cashew.png""]","[""cashew.png""]","[""cashew.png""]",blank.png,PB18.png,PB17.png,"[""cashew.png""]","[""cashew.png""]","[""cashew.png""]","[""cashew.png""]","[""cashew.png""]","[""cashew.png""]","[""cashew.png""]","[""cashew.png""]","[""cashew.png""]","[""cashew.png""]","[""cashew.png""]","[""cashew.png""]",1,"[""nacho.png""]",blank.png,blank.png,blank.png,6,"[""cashew.png""]","[""cashew.png""]","[""cashew.png""]","[""cashew.png""]","[""cashew.png""]","[""cashew.png""]",PB17.png,,,,,,,,,,,1,,,,,,,,,,,,,5930.475000000035,,completion,,,,,,,,,,,,,4,,,,,,,,,,,,,,,,,,,,,,,,,,,,,,,,,,,,,,,,,,,,,,,,,,,,,,,,,"[""cashew.png""]","[""nacho.png""]",,,,1,,,false,,1,,,,,,,441256.93499995396,441256.037,435292.317,435323.7900000531,435325.562,441272.674,,,,
fixCross,canvas.Screen,2_4_3_6_1_0_0_0_0_1_0,2021-05-24T17:52:40.992Z,,,blank.png,"[""nacho.png""]",blank.png,blank.png,blank.png,blank.png,blank.png,blank.png,blank.png,blank.png,blank.png,blank.png,blank.png,,,,,,,,,,,,,,,,,,,,,,,,,,,,,"[""nacho.png""]","[""cashew.png""]",PB14.png,,,,,,,,,,,0,6,"[""cashew.png""]","[""cashew.png""]","[""cashew.png""]","[""cashew.png""]","[""cashew.png""]","[""cashew.png""]",blank.png,PB18.png,PB18.png,"[""cashew.png""]","[""cashew.png""]","[""cashew.png""]",blank.png,blank.png,blank.png,"[""cashew.png""]","[""cashew.png""]","[""cashew.png""]","[""cashew.png""]","[""cashew.png""]","[""cashew.png""]",1,"[""nacho.png""]",blank.png,blank.png,blank.png,3,"[""cashew.png""]","[""cashew.png""]","[""cashew.png""]",blank.png,blank.png,blank.png,PB14.png,,,,,,,,,,,1,,,,,,,,,,,,,716.2700000000186,,timeout,,,,,,,,,,,,,3,,,,,,,,,,,,,,,,,,,,,,,,,,,,,,,,,,,,,,,,,,,,,,,,,,,,,,,,,"[""cashew.png""]","[""nacho.png""]",,,,1,,,false,,1,,,,,,,441656.36500006076,441655.818,441256.037,441259.9300000584,441272.674,441988.944,2,,,
timeout,canvas.Screen,2_4_3_6_1_0_0_0_0_1_1,2021-05-24T17:52:41.809Z,,,blank.png,"[""nacho.png""]",blank.png,blank.png,blank.png,blank.png,blank.png,blank.png,blank.png,blank.png,blank.png,blank.png,blank.png,,,,,,,,,,,,,,,,,,,,,,,,,,,,,"[""nacho.png""]","[""cashew.png""]",PB14.png,,,,,,,,,,,0,6,"[""cashew.png""]","[""cashew.png""]","[""cashew.png""]","[""cashew.png""]","[""cashew.png""]","[""cashew.png""]",blank.png,PB18.png,PB18.png,"[""cashew.png""]","[""cashew.png""]","[""cashew.png""]",blank.png,blank.png,blank.png,"[""cashew.png""]","[""cashew.png""]","[""cashew.png""]","[""cashew.png""]","[""cashew.png""]","[""cashew.png""]",1,"[""nacho.png""]",blank.png,blank.png,blank.png,3,"[""cashew.png""]","[""cashew.png""]","[""cashew.png""]",blank.png,blank.png,blank.png,PB14.png,,,,,,,,,,,1,,,,,,,,,,,,,816.289999999979,,timeout,,,,,,,,,,,,,3,,,,,,,,,,,,,,,,,,,,,,,,,,,,,,,,,,,,,,,,,,,,,,,,,,,,,,,,,"[""cashew.png""]","[""nacho.png""]",,,,1,,,false,,1,,,,,,,442472.73999999743,442472.103,441655.818,441992.16999998316,441988.944,442805.234,,,,
choice,canvas.Screen,2_4_3_6_1_0_0_0_0_1_2,2021-05-24T17:52:43.627Z,,,blank.png,"[""nacho.png""]",blank.png,blank.png,blank.png,blank.png,blank.png,blank.png,blank.png,blank.png,blank.png,blank.png,blank.png,,,,,,,,,,,,,,,,,,,,,,,,,,,,,"[""nacho.png""]","[""cashew.png""]",PB14.png,,,,,,,,,,,0,6,"[""cashew.png""]","[""cashew.png""]","[""cashew.png""]","[""cashew.png""]","[""cashew.png""]","[""cashew.png""]",blank.png,PB18.png,PB18.png,"[""cashew.png""]","[""cashew.png""]","[""cashew.png""]",blank.png,blank.png,blank.png,"[""cashew.png""]","[""cashew.png""]","[""cashew.png""]","[""cashew.png""]","[""cashew.png""]","[""cashew.png""]",1,"[""nacho.png""]",blank.png,blank.png,blank.png,3,"[""cashew.png""]","[""cashew.png""]","[""cashew.png""]",blank.png,blank.png,blank.png,PB14.png,,,,,,,,,,,1,,,,,,,,,,,,,1484.820999990392,,response,,,,,,,,,,,,,3,,,,,,,,,,,,,,,,,,,,,,,,,,,,,,,,,,,,,,,,,,,,,,,,,,,,,,,,,"[""cashew.png""]","[""nacho.png""]",,,,1,right,keydown(ArrowRight),false,,1,,,,,,,444291.18499998003,444290.0549999904,442472.103,442798.1350000482,442805.234,444636.09,,2,,
square,canvas.Screen,2_4_3_6_1_0_0_0_0_1_3,2021-05-24T17:52:44.957Z,,,blank.png,"[""nacho.png""]",blank.png,blank.png,blank.png,blank.png,blank.png,blank.png,blank.png,blank.png,blank.png,blank.png,blank.png,,,,,,,,,,,,,,,,,,,,,,,,,,,,,"[""nacho.png""]","[""cashew.png""]",PB14.png,,,,,,,,,,,0,6,"[""cashew.png""]","[""cashew.png""]","[""cashew.png""]","[""cashew.png""]","[""cashew.png""]","[""cashew.png""]",blank.png,PB18.png,PB18.png,"[""cashew.png""]","[""cashew.png""]","[""cashew.png""]",blank.png,blank.png,blank.png,"[""cashew.png""]","[""cashew.png""]","[""cashew.png""]","[""cashew.png""]","[""cashew.png""]","[""cashew.png""]",1,"[""nacho.png""]",blank.png,blank.png,blank.png,3,"[""cashew.png""]","[""cashew.png""]","[""cashew.png""]",blank.png,blank.png,blank.png,PB14.png,,,,,,,,,,,1,,,#808080,#33ff3f,,,,,,,,,1001.1520000000019,,timeout,,,,,,,,,,,,,3,,,,,,,,,,,,,,,,,,,,,,,,,,,,,,,,,,,,,,,,,,,,,,,,,,,,,,,,,"[""cashew.png""]","[""nacho.png""]",,,,1,,,false,,1,,,,,white,black,445621.21000001207,445620.518,444587.654,444603.2399999676,444636.09,445637.242,,,,
ITI_late,canvas.Screen,2_4_3_6_1_0_0_0_0_1_4,2021-05-24T17:52:45.707Z,,,blank.png,"[""nacho.png""]",blank.png,blank.png,blank.png,blank.png,blank.png,blank.png,blank.png,blank.png,blank.png,blank.png,blank.png,,,,,,,,,,,,,,,,,,,,,,,,,,,,,"[""nacho.png""]","[""cashew.png""]",PB14.png,,,,,,,,,,,0,6,"[""cashew.png""]","[""cashew.png""]","[""cashew.png""]","[""cashew.png""]","[""cashew.png""]","[""cashew.png""]",blank.png,PB18.png,PB18.png,"[""cashew.png""]","[""cashew.png""]","[""cashew.png""]",blank.png,blank.png,blank.png,"[""cashew.png""]","[""cashew.png""]","[""cashew.png""]","[""cashew.png""]","[""cashew.png""]","[""cashew.png""]",1,"[""nacho.png""]",blank.png,blank.png,blank.png,3,"[""cashew.png""]","[""cashew.png""]","[""cashew.png""]",blank.png,blank.png,blank.png,PB14.png,,,,,,,,,,,1,,,,,,,,,,,,,749.670999999973,,timeout,,,,,,,,,,,,white,3,,,,,,,,,,,,,,,,,,,,,,,,,,,,,,,,,,,,,,,,,,,,,,,,,,,,,,,,,"[""cashew.png""]","[""nacho.png""]",,,,1,,,false,,1,,,,,,,446370.63000001945,446370.146,445620.518,445622.3450000398,445637.242,446386.913,,,,
choice_sequence,flow.Sequence,2_4_3_6_1_0_0_0_0_1,2021-05-24T17:52:45.707Z,,,blank.png,"[""nacho.png""]",blank.png,blank.png,blank.png,blank.png,blank.png,blank.png,blank.png,blank.png,blank.png,blank.png,blank.png,,,,,,,,,,,,,,,,,,,,,,,,,,,,,"[""nacho.png""]","[""cashew.png""]",PB14.png,,,,,,,,,,,0,6,"[""cashew.png""]","[""cashew.png""]","[""cashew.png""]","[""cashew.png""]","[""cashew.png""]","[""cashew.png""]",blank.png,PB18.png,PB18.png,"[""cashew.png""]","[""cashew.png""]","[""cashew.png""]",blank.png,blank.png,blank.png,"[""cashew.png""]","[""cashew.png""]","[""cashew.png""]","[""cashew.png""]","[""cashew.png""]","[""cashew.png""]",1,"[""nacho.png""]",blank.png,blank.png,blank.png,3,"[""cashew.png""]","[""cashew.png""]","[""cashew.png""]",blank.png,blank.png,blank.png,PB14.png,,,,,,,,,,,1,,,,,,,,,,,,,5097.472000000009,,completion,,,,,,,,,,,,,3,,,,,,,,,,,,,,,,,,,,,,,,,,,,,,,,,,,,,,,,,,,,,,,,,,,,,,,,,"[""cashew.png""]","[""nacho.png""]",,,,1,,,false,,1,,,,,,,446371.0049999645,446370.146,441256.037,441259.38000006136,441272.674,446386.913,,,,
fixCross,canvas.Screen,2_4_3_6_1_0_0_0_0_2_0,2021-05-24T17:52:46.306Z,,,blank.png,blank.png,blank.png,blank.png,blank.png,blank.png,blank.png,"[""nacho.png""]",blank.png,blank.png,blank.png,blank.png,blank.png,,,,,,,,,,,,,,,,,,,,,,,,,,,,,"[""nacho.png""]","[""cashew.png""]",PB18.png,,,,,,,,,,,0,6,"[""cashew.png""]","[""cashew.png""]","[""cashew.png""]","[""cashew.png""]","[""cashew.png""]","[""cashew.png""]",blank.png,PB18.png,PB12.png,"[""cashew.png""]","[""cashew.png""]","[""cashew.png""]","[""cashew.png""]","[""cashew.png""]","[""cashew.png""]","[""cashew.png""]","[""cashew.png""]",blank.png,blank.png,blank.png,blank.png,1,"[""nacho.png""]",blank.png,blank.png,blank.png,2,"[""cashew.png""]","[""cashew.png""]",blank.png,blank.png,blank.png,blank.png,PB12.png,,,,,,,,,,,1,,,,,,,,,,,,,899.4440000000177,,timeout,,,,,,,,,,,,,4,,,,,,,,,,,,,,,,,,,,,,,,,,,,,,,,,,,,,,,,,,,,,,,,,,,,,,,,,"[""cashew.png""]","[""nacho.png""]",,,,1,,,false,,1,,,,,,,446970.3000000445,446969.845,446370.146,446375.1349999802,446386.913,447286.357,3,,,
timeout,canvas.Screen,2_4_3_6_1_0_0_0_0_2_1,2021-05-24T17:52:47.106Z,,,blank.png,blank.png,blank.png,blank.png,blank.png,blank.png,blank.png,"[""nacho.png""]",blank.png,blank.png,blank.png,blank.png,blank.png,,,,,,,,,,,,,,,,,,,,,,,,,,,,,"[""nacho.png""]","[""cashew.png""]",PB18.png,,,,,,,,,,,0,6,"[""cashew.png""]","[""cashew.png""]","[""cashew.png""]","[""cashew.png""]","[""cashew.png""]","[""cashew.png""]",blank.png,PB18.png,PB12.png,"[""cashew.png""]","[""cashew.png""]","[""cashew.png""]","[""cashew.png""]","[""cashew.png""]","[""cashew.png""]","[""cashew.png""]","[""cashew.png""]",blank.png,blank.png,blank.png,blank.png,1,"[""nacho.png""]",blank.png,blank.png,blank.png,2,"[""cashew.png""]","[""cashew.png""]",blank.png,blank.png,blank.png,blank.png,PB12.png,,,,,,,,,,,1,,,,,,,,,,,,,799.630999999994,,timeout,,,,,,,,,,,,,4,,,,,,,,,,,,,,,,,,,,,,,,,,,,,,,,,,,,,,,,,,,,,,,,,,,,,,,,,"[""cashew.png""]","[""nacho.png""]",,,,1,,,false,,1,,,,,,,447770.1100000413,447769.501,446969.845,447290.73500004597,447286.357,448085.988,,,,
choice,canvas.Screen,2_4_3_6_1_0_0_0_0_2_2,2021-05-24T17:52:48.488Z,,,blank.png,blank.png,blank.png,blank.png,blank.png,blank.png,blank.png,"[""nacho.png""]",blank.png,blank.png,blank.png,blank.png,blank.png,,,,,,,,,,,,,,,,,,,,,,,,,,,,,"[""nacho.png""]","[""cashew.png""]",PB18.png,,,,,,,,,,,0,6,"[""cashew.png""]","[""cashew.png""]","[""cashew.png""]","[""cashew.png""]","[""cashew.png""]","[""cashew.png""]",blank.png,PB18.png,PB12.png,"[""cashew.png""]","[""cashew.png""]","[""cashew.png""]","[""cashew.png""]","[""cashew.png""]","[""cashew.png""]","[""cashew.png""]","[""cashew.png""]",blank.png,blank.png,blank.png,blank.png,1,"[""nacho.png""]",blank.png,blank.png,blank.png,2,"[""cashew.png""]","[""cashew.png""]",blank.png,blank.png,blank.png,blank.png,PB12.png,,,,,,,,,,,1,,,,,,,,,,,,,1064.732000034186,,response,,,,,,,,,,,,,4,,,,,,,,,,,,,,,,,,,,,,,,,,,,,,,,,,,,,,,,,,,,,,,,,,,,,,,,,"[""cashew.png""]","[""nacho.png""]",,,,1,left,keydown(ArrowLeft),false,,1,,,,,,,449151.55499998946,449150.7200000342,447769.501,448087.0400000131,448085.988,449479.734,,3,,
square,canvas.Screen,2_4_3_6_1_0_0_0_0_2_3,2021-05-24T17:52:49.805Z,,,blank.png,blank.png,blank.png,blank.png,blank.png,blank.png,blank.png,"[""nacho.png""]",blank.png,blank.png,blank.png,blank.png,blank.png,,,,,,,,,,,,,,,,,,,,,,,,,,,,,"[""nacho.png""]","[""cashew.png""]",PB18.png,,,,,,,,,,,0,6,"[""cashew.png""]","[""cashew.png""]","[""cashew.png""]","[""cashew.png""]","[""cashew.png""]","[""cashew.png""]",blank.png,PB18.png,PB12.png,"[""cashew.png""]","[""cashew.png""]","[""cashew.png""]","[""cashew.png""]","[""cashew.png""]","[""cashew.png""]","[""cashew.png""]","[""cashew.png""]",blank.png,blank.png,blank.png,blank.png,1,"[""nacho.png""]",blank.png,blank.png,blank.png,2,"[""cashew.png""]","[""cashew.png""]",blank.png,blank.png,blank.png,blank.png,PB12.png,,,,,,,,,,,1,,,#33ff3f,#808080,,,,,,,,,1005.0769999999902,,timeout,,,,,,,,,,,,,4,,,,,,,,,,,,,,,,,,,,,,,,,,,,,,,,,,,,,,,,,,,,,,,,,,,,,,,,,"[""cashew.png""]","[""nacho.png""]",,,,1,,,false,,1,,,,,black,white,450468.63500005566,450468.123,449435.228,449450.94999996945,449479.734,450484.811,,,,
ITI_late,canvas.Screen,2_4_3_6_1_0_0_0_0_2_4,2021-05-24T17:52:50.555Z,,,blank.png,blank.png,blank.png,blank.png,blank.png,blank.png,blank.png,"[""nacho.png""]",blank.png,blank.png,blank.png,blank.png,blank.png,,,,,,,,,,,,,,,,,,,,,,,,,,,,,"[""nacho.png""]","[""cashew.png""]",PB18.png,,,,,,,,,,,0,6,"[""cashew.png""]","[""cashew.png""]","[""cashew.png""]","[""cashew.png""]","[""cashew.png""]","[""cashew.png""]",blank.png,PB18.png,PB12.png,"[""cashew.png""]","[""cashew.png""]","[""cashew.png""]","[""cashew.png""]","[""cashew.png""]","[""cashew.png""]","[""cashew.png""]","[""cashew.png""]",blank.png,blank.png,blank.png,blank.png,1,"[""nacho.png""]",blank.png,blank.png,blank.png,2,"[""cashew.png""]","[""cashew.png""]",blank.png,blank.png,blank.png,blank.png,PB12.png,,,,,,,,,,,1,,,,,,,,,,,,,749.6650000000373,,timeout,,,,,,,,,,,,white,4,,,,,,,,,,,,,,,,,,,,,,,,,,,,,,,,,,,,,,,,,,,,,,,,,,,,,,,,,"[""cashew.png""]","[""nacho.png""]",,,,1,,,false,,1,,,,,,,451218.32500002347,451217.783,450468.123,450469.84499995597,450484.811,451234.476,,,,
choice_sequence,flow.Sequence,2_4_3_6_1_0_0_0_0_2,2021-05-24T17:52:50.555Z,,,blank.png,blank.png,blank.png,blank.png,blank.png,blank.png,blank.png,"[""nacho.png""]",blank.png,blank.png,blank.png,blank.png,blank.png,,,,,,,,,,,,,,,,,,,,,,,,,,,,,"[""nacho.png""]","[""cashew.png""]",PB18.png,,,,,,,,,,,0,6,"[""cashew.png""]","[""cashew.png""]","[""cashew.png""]","[""cashew.png""]","[""cashew.png""]","[""cashew.png""]",blank.png,PB18.png,PB12.png,"[""cashew.png""]","[""cashew.png""]","[""cashew.png""]","[""cashew.png""]","[""cashew.png""]","[""cashew.png""]","[""cashew.png""]","[""cashew.png""]",blank.png,blank.png,blank.png,blank.png,1,"[""nacho.png""]",blank.png,blank.png,blank.png,2,"[""cashew.png""]","[""cashew.png""]",blank.png,blank.png,blank.png,blank.png,PB12.png,,,,,,,,,,,1,,,,,,,,,,,,,4830.869999999995,,completion,,,,,,,,,,,,,4,,,,,,,,,,,,,,,,,,,,,,,,,,,,,,,,,,,,,,,,,,,,,,,,,,,,,,,,,"[""cashew.png""]","[""nacho.png""]",,,,1,,,false,,1,,,,,,,451218.7149999663,451217.783,446370.146,446374.33500005864,446386.913,451234.476,,,,
fixCross,canvas.Screen,2_4_3_6_1_0_0_0_0_3_0,2021-05-24T17:52:50.905Z,,,blank.png,blank.png,blank.png,blank.png,blank.png,blank.png,blank.png,"[""nacho.png""]",blank.png,blank.png,blank.png,blank.png,blank.png,,,,,,,,,,,,,,,,,,,,,,,,,,,,,"[""nacho.png""]","[""cashew.png""]",PB18.png,,,,,,,,,,,0,6,"[""cashew.png""]","[""cashew.png""]","[""cashew.png""]","[""cashew.png""]","[""cashew.png""]","[""cashew.png""]",blank.png,PB18.png,PB07.png,"[""cashew.png""]","[""cashew.png""]","[""cashew.png""]","[""cashew.png""]","[""cashew.png""]","[""cashew.png""]","[""cashew.png""]",blank.png,blank.png,blank.png,blank.png,blank.png,1,"[""nacho.png""]",blank.png,blank.png,blank.png,1,"[""cashew.png""]",blank.png,blank.png,blank.png,blank.png,blank.png,PB07.png,,,,,,,,,,,1,,,,,,,,,,,,,699.6289999999572,,timeout,,,,,,,,,,,,,4,,,,,,,,,,,,,,,,,,,,,,,,,,,,,,,,,,,,,,,,,,,,,,,,,,,,,,,,,"[""cashew.png""]","[""nacho.png""]",,,,1,,,false,,1,,,,,,,451568.0799999973,451567.611,451217.783,451221.60000004806,451234.476,451934.105,4,,,
timeout,canvas.Screen,2_4_3_6_1_0_0_0_0_3_1,2021-05-24T17:52:51.754Z,,,blank.png,blank.png,blank.png,blank.png,blank.png,blank.png,blank.png,"[""nacho.png""]",blank.png,blank.png,blank.png,blank.png,blank.png,,,,,,,,,,,,,,,,,,,,,,,,,,,,,"[""nacho.png""]","[""cashew.png""]",PB18.png,,,,,,,,,,,0,6,"[""cashew.png""]","[""cashew.png""]","[""cashew.png""]","[""cashew.png""]","[""cashew.png""]","[""cashew.png""]",blank.png,PB18.png,PB07.png,"[""cashew.png""]","[""cashew.png""]","[""cashew.png""]","[""cashew.png""]","[""cashew.png""]","[""cashew.png""]","[""cashew.png""]",blank.png,blank.png,blank.png,blank.png,blank.png,1,"[""nacho.png""]",blank.png,blank.png,blank.png,1,"[""cashew.png""]",blank.png,blank.png,blank.png,blank.png,blank.png,PB07.png,,,,,,,,,,,1,,,,,,,,,,,,,799.5580000000191,,timeout,,,,,,,,,,,,,4,,,,,,,,,,,,,,,,,,,,,,,,,,,,,,,,,,,,,,,,,,,,,,,,,,,,,,,,,"[""cashew.png""]","[""nacho.png""]",,,,1,,,false,,1,,,,,,,452417.7299999865,452417.17,451567.611,451937.1899999678,451934.105,452733.663,,,,
choice,canvas.Screen,2_4_3_6_1_0_0_0_0_3_2,2021-05-24T17:52:52.083Z,,,blank.png,blank.png,blank.png,blank.png,blank.png,blank.png,blank.png,"[""nacho.png""]",blank.png,blank.png,blank.png,blank.png,blank.png,,,,,,,,,,,,,,,,,,,,,,,,,,,,,"[""nacho.png""]","[""cashew.png""]",PB18.png,,,,,,,,,,,0,6,"[""cashew.png""]","[""cashew.png""]","[""cashew.png""]","[""cashew.png""]","[""cashew.png""]","[""cashew.png""]",blank.png,PB18.png,PB07.png,"[""cashew.png""]","[""cashew.png""]","[""cashew.png""]","[""cashew.png""]","[""cashew.png""]","[""cashew.png""]","[""cashew.png""]",blank.png,blank.png,blank.png,blank.png,blank.png,1,"[""nacho.png""]",blank.png,blank.png,blank.png,1,"[""cashew.png""]",blank.png,blank.png,blank.png,blank.png,blank.png,PB07.png,,,,,,,,,,,1,,,,,,,,,,,,,311.2500000576838,,response,,,,,,,,,,,,,4,,,,,,,,,,,,,,,,,,,,,,,,,,,,,,,,,,,,,,,,,,,,,,,,,,,,,,,,,"[""cashew.png""]","[""nacho.png""]",,,,1,left,keydown(ArrowLeft),false,,1,,,,,,,452746.2199999718,452728.42000005767,452417.17,452735.95000000205,,453050.178,,4,,
square,canvas.Screen,2_4_3_6_1_0_0_0_0_3_3,2021-05-24T17:52:53.370Z,,,blank.png,blank.png,blank.png,blank.png,blank.png,blank.png,blank.png,"[""nacho.png""]",blank.png,blank.png,blank.png,blank.png,blank.png,,,,,,,,,,,,,,,,,,,,,,,,,,,,,"[""nacho.png""]","[""cashew.png""]",PB18.png,,,,,,,,,,,0,6,"[""cashew.png""]","[""cashew.png""]","[""cashew.png""]","[""cashew.png""]","[""cashew.png""]","[""cashew.png""]",blank.png,PB18.png,PB07.png,"[""cashew.png""]","[""cashew.png""]","[""cashew.png""]","[""cashew.png""]","[""cashew.png""]","[""cashew.png""]","[""cashew.png""]",blank.png,blank.png,blank.png,blank.png,blank.png,1,"[""nacho.png""]",blank.png,blank.png,blank.png,1,"[""cashew.png""]",blank.png,blank.png,blank.png,blank.png,blank.png,PB07.png,,,,,,,,,,,1,,,#33ff3f,#808080,,,,,,,,,999.5860000000102,,timeout,,,,,,,,,,,,,4,,,,,,,,,,,,,,,,,,,,,,,,,,,,,,,,,,,,,,,,,,,,,,,,,,,,,,,,,"[""cashew.png""]","[""nacho.png""]",,,,1,,,false,,1,,,,,black,white,454033.79000001587,454033.029,452733.663,453052.0849999739,453050.178,454049.764,,,,
ITI_late,canvas.Screen,2_4_3_6_1_0_0_0_0_3_4,2021-05-24T17:52:53.870Z,,,blank.png,blank.png,blank.png,blank.png,blank.png,blank.png,blank.png,"[""nacho.png""]",blank.png,blank.png,blank.png,blank.png,blank.png,,,,,,,,,,,,,,,,,,,,,,,,,,,,,"[""nacho.png""]","[""cashew.png""]",PB18.png,,,,,,,,,,,0,6,"[""cashew.png""]","[""cashew.png""]","[""cashew.png""]","[""cashew.png""]","[""cashew.png""]","[""cashew.png""]",blank.png,PB18.png,PB07.png,"[""cashew.png""]","[""cashew.png""]","[""cashew.png""]","[""cashew.png""]","[""cashew.png""]","[""cashew.png""]","[""cashew.png""]",blank.png,blank.png,blank.png,blank.png,blank.png,1,"[""nacho.png""]",blank.png,blank.png,blank.png,1,"[""cashew.png""]",blank.png,blank.png,blank.png,blank.png,blank.png,PB07.png,,,,,,,,,,,1,,,,,,,,,,,,,499.74299999995856,,timeout,,,,,,,,,,,,white,4,,,,,,,,,,,,,,,,,,,,,,,,,,,,,,,,,,,,,,,,,,,,,,,,,,,,,,,,,"[""cashew.png""]","[""nacho.png""]",,,,1,,,false,,1,,,,,,,454533.4649999859,454532.83,454033.029,454035.120000015,454049.764,454549.507,,,,
choice_sequence,flow.Sequence,2_4_3_6_1_0_0_0_0_3,2021-05-24T17:52:53.870Z,,,blank.png,blank.png,blank.png,blank.png,blank.png,blank.png,blank.png,"[""nacho.png""]",blank.png,blank.png,blank.png,blank.png,blank.png,,,,,,,,,,,,,,,,,,,,,,,,,,,,,"[""nacho.png""]","[""cashew.png""]",PB18.png,,,,,,,,,,,0,6,"[""cashew.png""]","[""cashew.png""]","[""cashew.png""]","[""cashew.png""]","[""cashew.png""]","[""cashew.png""]",blank.png,PB18.png,PB07.png,"[""cashew.png""]","[""cashew.png""]","[""cashew.png""]","[""cashew.png""]","[""cashew.png""]","[""cashew.png""]","[""cashew.png""]",blank.png,blank.png,blank.png,blank.png,blank.png,1,"[""nacho.png""]",blank.png,blank.png,blank.png,1,"[""cashew.png""]",blank.png,blank.png,blank.png,blank.png,blank.png,PB07.png,,,,,,,,,,,1,,,,,,,,,,,,,3298.353999999992,,completion,,,,,,,,,,,,,4,,,,,,,,,,,,,,,,,,,,,,,,,,,,,,,,,,,,,,,,,,,,,,,,,,,,,,,,,"[""cashew.png""]","[""nacho.png""]",,,,1,,,false,,1,,,,,,,454533.8299999712,454532.83,451217.783,451221.06500004884,451234.476,454549.507,,,,
fixCross,canvas.Screen,2_4_3_6_1_0_0_0_0_4_0,2021-05-24T17:52:54.170Z,,,blank.png,blank.png,blank.png,blank.png,blank.png,blank.png,blank.png,"[""nacho.png""]",blank.png,blank.png,blank.png,blank.png,blank.png,,,,,,,,,,,,,,,,,,,,,,,,,,,,,"[""nacho.png""]","[""cashew.png""]",PB18.png,,,,,,,,,,,0,6,"[""cashew.png""]","[""cashew.png""]","[""cashew.png""]","[""cashew.png""]","[""cashew.png""]","[""cashew.png""]",blank.png,PB18.png,PB15.png,"[""cashew.png""]","[""cashew.png""]","[""cashew.png""]","[""cashew.png""]","[""cashew.png""]","[""cashew.png""]","[""cashew.png""]","[""cashew.png""]","[""cashew.png""]","[""cashew.png""]",blank.png,blank.png,1,"[""nacho.png""]",blank.png,blank.png,blank.png,4,"[""cashew.png""]","[""cashew.png""]","[""cashew.png""]","[""cashew.png""]",blank.png,blank.png,PB15.png,,,,,,,,,,,1,,,,,,,,,,,,,616.2580000000307,,timeout,,,,,,,,,,,,,4,,,,,,,,,,,,,,,,,,,,,,,,,,,,,,,,,,,,,,,,,,,,,,,,,,,,,,,,,"[""cashew.png""]","[""nacho.png""]",,,,1,,,false,,1,,,,,,,454833.14500004053,454832.635,454532.83,454537.2849999694,454549.507,455165.765,5,,,
timeout,canvas.Screen,2_4_3_6_1_0_0_0_0_4_1,2021-05-24T17:52:54.986Z,,,blank.png,blank.png,blank.png,blank.png,blank.png,blank.png,blank.png,"[""nacho.png""]",blank.png,blank.png,blank.png,blank.png,blank.png,,,,,,,,,,,,,,,,,,,,,,,,,,,,,"[""nacho.png""]","[""cashew.png""]",PB18.png,,,,,,,,,,,0,6,"[""cashew.png""]","[""cashew.png""]","[""cashew.png""]","[""cashew.png""]","[""cashew.png""]","[""cashew.png""]",blank.png,PB18.png,PB15.png,"[""cashew.png""]","[""cashew.png""]","[""cashew.png""]","[""cashew.png""]","[""cashew.png""]","[""cashew.png""]","[""cashew.png""]","[""cashew.png""]","[""cashew.png""]","[""cashew.png""]",blank.png,blank.png,1,"[""nacho.png""]",blank.png,blank.png,blank.png,4,"[""cashew.png""]","[""cashew.png""]","[""cashew.png""]","[""cashew.png""]",blank.png,blank.png,PB15.png,,,,,,,,,,,1,,,,,,,,,,,,,816.3019999999669,,timeout,,,,,,,,,,,,,4,,,,,,,,,,,,,,,,,,,,,,,,,,,,,,,,,,,,,,,,,,,,,,,,,,,,,,,,,"[""cashew.png""]","[""nacho.png""]",,,,1,,,false,,1,,,,,,,455649.5100000175,455648.896,454832.635,455168.7249999959,455165.765,455982.067,,,,
choice,canvas.Screen,2_4_3_6_1_0_0_0_0_4_2,2021-05-24T17:52:55.725Z,,,blank.png,blank.png,blank.png,blank.png,blank.png,blank.png,blank.png,"[""nacho.png""]",blank.png,blank.png,blank.png,blank.png,blank.png,,,,,,,,,,,,,,,,,,,,,,,,,,,,,"[""nacho.png""]","[""cashew.png""]",PB18.png,,,,,,,,,,,0,6,"[""cashew.png""]","[""cashew.png""]","[""cashew.png""]","[""cashew.png""]","[""cashew.png""]","[""cashew.png""]",blank.png,PB18.png,PB15.png,"[""cashew.png""]","[""cashew.png""]","[""cashew.png""]","[""cashew.png""]","[""cashew.png""]","[""cashew.png""]","[""cashew.png""]","[""cashew.png""]","[""cashew.png""]","[""cashew.png""]",blank.png,blank.png,1,"[""nacho.png""]",blank.png,blank.png,blank.png,4,"[""cashew.png""]","[""cashew.png""]","[""cashew.png""]","[""cashew.png""]",blank.png,blank.png,PB15.png,,,,,,,,,,,1,,,,,,,,,,,,,405.01300001499476,,response,,,,,,,,,,,,,4,,,,,,,,,,,,,,,,,,,,,,,,,,,,,,,,,,,,,,,,,,,,,,,,,,,,,,,,,"[""cashew.png""]","[""nacho.png""]",,,,1,left,keydown(ArrowLeft),false,,1,,,,,,,456388.2450000383,456387.080000015,455648.896,455984.2049999861,455982.067,456731.671,,5,,
square,canvas.Screen,2_4_3_6_1_0_0_0_0_4_3,2021-05-24T17:52:57.052Z,,,blank.png,blank.png,blank.png,blank.png,blank.png,blank.png,blank.png,"[""nacho.png""]",blank.png,blank.png,blank.png,blank.png,blank.png,,,,,,,,,,,,,,,,,,,,,,,,,,,,,"[""nacho.png""]","[""cashew.png""]",PB18.png,,,,,,,,,,,0,6,"[""cashew.png""]","[""cashew.png""]","[""cashew.png""]","[""cashew.png""]","[""cashew.png""]","[""cashew.png""]",blank.png,PB18.png,PB15.png,"[""cashew.png""]","[""cashew.png""]","[""cashew.png""]","[""cashew.png""]","[""cashew.png""]","[""cashew.png""]","[""cashew.png""]","[""cashew.png""]","[""cashew.png""]","[""cashew.png""]",blank.png,blank.png,1,"[""nacho.png""]",blank.png,blank.png,blank.png,4,"[""cashew.png""]","[""cashew.png""]","[""cashew.png""]","[""cashew.png""]",blank.png,blank.png,PB15.png,,,,,,,,,,,1,,,#33ff3f,#808080,,,,,,,,,999.5630000000237,,timeout,,,,,,,,,,,,,4,,,,,,,,,,,,,,,,,,,,,,,,,,,,,,,,,,,,,,,,,,,,,,,,,,,,,,,,,"[""cashew.png""]","[""nacho.png""]",,,,1,,,false,,1,,,,,black,white,457715.2899999637,457714.584,456715.057,456716.6450000368,456731.671,457731.234,,,,
ITI_late,canvas.Screen,2_4_3_6_1_0_0_0_0_4_4,2021-05-24T17:52:58.051Z,,,blank.png,blank.png,blank.png,blank.png,blank.png,blank.png,blank.png,"[""nacho.png""]",blank.png,blank.png,blank.png,blank.png,blank.png,,,,,,,,,,,,,,,,,,,,,,,,,,,,,"[""nacho.png""]","[""cashew.png""]",PB18.png,,,,,,,,,,,0,6,"[""cashew.png""]","[""cashew.png""]","[""cashew.png""]","[""cashew.png""]","[""cashew.png""]","[""cashew.png""]",blank.png,PB18.png,PB15.png,"[""cashew.png""]","[""cashew.png""]","[""cashew.png""]","[""cashew.png""]","[""cashew.png""]","[""cashew.png""]","[""cashew.png""]","[""cashew.png""]","[""cashew.png""]","[""cashew.png""]",blank.png,blank.png,1,"[""nacho.png""]",blank.png,blank.png,blank.png,4,"[""cashew.png""]","[""cashew.png""]","[""cashew.png""]","[""cashew.png""]",blank.png,blank.png,PB15.png,,,,,,,,,,,1,,,,,,,,,,,,,999.5190000000293,,timeout,,,,,,,,,,,,white,4,,,,,,,,,,,,,,,,,,,,,,,,,,,,,,,,,,,,,,,,,,,,,,,,,,,,,,,,,"[""cashew.png""]","[""nacho.png""]",,,,1,,,false,,1,,,,,,,458714.6450000582,458714.093,457714.584,457716.48499998264,457731.234,458730.753,,,,
choice_sequence,flow.Sequence,2_4_3_6_1_0_0_0_0_4,2021-05-24T17:52:58.051Z,,,blank.png,blank.png,blank.png,blank.png,blank.png,blank.png,blank.png,"[""nacho.png""]",blank.png,blank.png,blank.png,blank.png,blank.png,,,,,,,,,,,,,,,,,,,,,,,,,,,,,"[""nacho.png""]","[""cashew.png""]",PB18.png,,,,,,,,,,,0,6,"[""cashew.png""]","[""cashew.png""]","[""cashew.png""]","[""cashew.png""]","[""cashew.png""]","[""cashew.png""]",blank.png,PB18.png,PB15.png,"[""cashew.png""]","[""cashew.png""]","[""cashew.png""]","[""cashew.png""]","[""cashew.png""]","[""cashew.png""]","[""cashew.png""]","[""cashew.png""]","[""cashew.png""]","[""cashew.png""]",blank.png,blank.png,1,"[""nacho.png""]",blank.png,blank.png,blank.png,4,"[""cashew.png""]","[""cashew.png""]","[""cashew.png""]","[""cashew.png""]",blank.png,blank.png,PB15.png,,,,,,,,,,,1,,,,,,,,,,,,,4164.58600000001,,completion,,,,,,,,,,,,,4,,,,,,,,,,,,,,,,,,,,,,,,,,,,,,,,,,,,,,,,,,,,,,,,,,,,,,,,,"[""cashew.png""]","[""nacho.png""]",,,,1,,,false,,1,,,,,,,458714.9750000099,458714.093,454532.83,454536.6749999812,454549.507,458730.753,,,,
fixCross,canvas.Screen,2_4_3_6_1_0_0_0_0_5_0,2021-05-24T17:52:58.351Z,,,blank.png,"[""nacho.png""]",blank.png,blank.png,blank.png,blank.png,blank.png,blank.png,blank.png,blank.png,blank.png,blank.png,blank.png,,,,,,,,,,,,,,,,,,,,,,,,,,,,,"[""nacho.png""]","[""cashew.png""]",PB16.png,,,,,,,,,,,0,6,"[""cashew.png""]","[""cashew.png""]","[""cashew.png""]","[""cashew.png""]","[""cashew.png""]","[""cashew.png""]",blank.png,PB18.png,PB18.png,"[""cashew.png""]","[""cashew.png""]","[""cashew.png""]","[""cashew.png""]","[""cashew.png""]",blank.png,"[""cashew.png""]","[""cashew.png""]","[""cashew.png""]","[""cashew.png""]","[""cashew.png""]","[""cashew.png""]",1,"[""nacho.png""]",blank.png,blank.png,blank.png,5,"[""cashew.png""]","[""cashew.png""]","[""cashew.png""]","[""cashew.png""]","[""cashew.png""]",blank.png,PB16.png,,,,,,,,,,,1,,,,,,,,,,,,,633.0249999999651,,timeout,,,,,,,,,,,,,3,,,,,,,,,,,,,,,,,,,,,,,,,,,,,,,,,,,,,,,,,,,,,,,,,,,,,,,,,"[""cashew.png""]","[""nacho.png""]",,,,1,,,false,,1,,,,,,,459014.4850000506,459013.949,458714.093,458717.949999962,458730.753,459363.778,6,,,
timeout,canvas.Screen,2_4_3_6_1_0_0_0_0_5_1,2021-05-24T17:52:59.184Z,,,blank.png,"[""nacho.png""]",blank.png,blank.png,blank.png,blank.png,blank.png,blank.png,blank.png,blank.png,blank.png,blank.png,blank.png,,,,,,,,,,,,,,,,,,,,,,,,,,,,,"[""nacho.png""]","[""cashew.png""]",PB16.png,,,,,,,,,,,0,6,"[""cashew.png""]","[""cashew.png""]","[""cashew.png""]","[""cashew.png""]","[""cashew.png""]","[""cashew.png""]",blank.png,PB18.png,PB18.png,"[""cashew.png""]","[""cashew.png""]","[""cashew.png""]","[""cashew.png""]","[""cashew.png""]",blank.png,"[""cashew.png""]","[""cashew.png""]","[""cashew.png""]","[""cashew.png""]","[""cashew.png""]","[""cashew.png""]",1,"[""nacho.png""]",blank.png,blank.png,blank.png,5,"[""cashew.png""]","[""cashew.png""]","[""cashew.png""]","[""cashew.png""]","[""cashew.png""]",blank.png,PB16.png,,,,,,,,,,,1,,,,,,,,,,,,,849.5200000000186,,timeout,,,,,,,,,,,,,3,,,,,,,,,,,,,,,,,,,,,,,,,,,,,,,,,,,,,,,,,,,,,,,,,,,,,,,,,"[""cashew.png""]","[""nacho.png""]",,,,1,,,false,,1,,,,,,,459847.4649999989,459846.874,459013.949,459367.02000000514,459363.778,460213.298,,,,
choice,canvas.Screen,2_4_3_6_1_0_0_0_0_5_2,2021-05-24T17:52:59.749Z,,,blank.png,"[""nacho.png""]",blank.png,blank.png,blank.png,blank.png,blank.png,blank.png,blank.png,blank.png,blank.png,blank.png,blank.png,,,,,,,,,,,,,,,,,,,,,,,,,,,,,"[""nacho.png""]","[""cashew.png""]",PB16.png,,,,,,,,,,,0,6,"[""cashew.png""]","[""cashew.png""]","[""cashew.png""]","[""cashew.png""]","[""cashew.png""]","[""cashew.png""]",blank.png,PB18.png,PB18.png,"[""cashew.png""]","[""cashew.png""]","[""cashew.png""]","[""cashew.png""]","[""cashew.png""]",blank.png,"[""cashew.png""]","[""cashew.png""]","[""cashew.png""]","[""cashew.png""]","[""cashew.png""]","[""cashew.png""]",1,"[""nacho.png""]",blank.png,blank.png,blank.png,5,"[""cashew.png""]","[""cashew.png""]","[""cashew.png""]","[""cashew.png""]","[""cashew.png""]",blank.png,PB16.png,,,,,,,,,,,1,,,,,,,,,,,,,198.49699996359413,,response,,,,,,,,,,,,,3,,,,,,,,,,,,,,,,,,,,,,,,,,,,,,,,,,,,,,,,,,,,,,,,,,,,,,,,,"[""cashew.png""]","[""nacho.png""]",,,,1,right,keydown(ArrowRight),false,,1,,,,,,,460412.6549999928,460411.7949999636,459846.874,460206.9250000641,460213.298,460763.008,,6,,
square,canvas.Screen,2_4_3_6_1_0_0_0_0_5_3,2021-05-24T17:53:01.083Z,,,blank.png,"[""nacho.png""]",blank.png,blank.png,blank.png,blank.png,blank.png,blank.png,blank.png,blank.png,blank.png,blank.png,blank.png,,,,,,,,,,,,,,,,,,,,,,,,,,,,,"[""nacho.png""]","[""cashew.png""]",PB16.png,,,,,,,,,,,0,6,"[""cashew.png""]","[""cashew.png""]","[""cashew.png""]","[""cashew.png""]","[""cashew.png""]","[""cashew.png""]",blank.png,PB18.png,PB18.png,"[""cashew.png""]","[""cashew.png""]","[""cashew.png""]","[""cashew.png""]","[""cashew.png""]",blank.png,"[""cashew.png""]","[""cashew.png""]","[""cashew.png""]","[""cashew.png""]","[""cashew.png""]","[""cashew.png""]",1,"[""nacho.png""]",blank.png,blank.png,blank.png,5,"[""cashew.png""]","[""cashew.png""]","[""cashew.png""]","[""cashew.png""]","[""cashew.png""]",blank.png,PB16.png,,,,,,,,,,,1,,,#808080,#33ff3f,,,,,,,,,999.6030000000028,,timeout,,,,,,,,,,,,,3,,,,,,,,,,,,,,,,,,,,,,,,,,,,,,,,,,,,,,,,,,,,,,,,,,,,,,,,,"[""cashew.png""]","[""nacho.png""]",,,,1,,,false,,1,,,,,white,black,461746.6400000267,461745.935,460746.411,460757.7299999539,460763.008,461762.611,,,,
ITI_late,canvas.Screen,2_4_3_6_1_0_0_0_0_5_4,2021-05-24T17:53:01.333Z,,,blank.png,"[""nacho.png""]",blank.png,blank.png,blank.png,blank.png,blank.png,blank.png,blank.png,blank.png,blank.png,blank.png,blank.png,,,,,,,,,,,,,,,,,,,,,,,,,,,,,"[""nacho.png""]","[""cashew.png""]",PB16.png,,,,,,,,,,,0,6,"[""cashew.png""]","[""cashew.png""]","[""cashew.png""]","[""cashew.png""]","[""cashew.png""]","[""cashew.png""]",blank.png,PB18.png,PB18.png,"[""cashew.png""]","[""cashew.png""]","[""cashew.png""]","[""cashew.png""]","[""cashew.png""]",blank.png,"[""cashew.png""]","[""cashew.png""]","[""cashew.png""]","[""cashew.png""]","[""cashew.png""]","[""cashew.png""]",1,"[""nacho.png""]",blank.png,blank.png,blank.png,5,"[""cashew.png""]","[""cashew.png""]","[""cashew.png""]","[""cashew.png""]","[""cashew.png""]",blank.png,PB16.png,,,,,,,,,,,1,,,,,,,,,,,,,249.83200000005309,,timeout,,,,,,,,,,,,white,3,,,,,,,,,,,,,,,,,,,,,,,,,,,,,,,,,,,,,,,,,,,,,,,,,,,,,,,,,"[""cashew.png""]","[""nacho.png""]",,,,1,,,false,,1,,,,,,,461996.3599999901,461995.814,461745.935,461748.09000000823,461762.611,462012.443,,,,
choice_sequence,flow.Sequence,2_4_3_6_1_0_0_0_0_5,2021-05-24T17:53:01.333Z,,,blank.png,"[""nacho.png""]",blank.png,blank.png,blank.png,blank.png,blank.png,blank.png,blank.png,blank.png,blank.png,blank.png,blank.png,,,,,,,,,,,,,,,,,,,,,,,,,,,,,"[""nacho.png""]","[""cashew.png""]",PB16.png,,,,,,,,,,,0,6,"[""cashew.png""]","[""cashew.png""]","[""cashew.png""]","[""cashew.png""]","[""cashew.png""]","[""cashew.png""]",blank.png,PB18.png,PB18.png,"[""cashew.png""]","[""cashew.png""]","[""cashew.png""]","[""cashew.png""]","[""cashew.png""]",blank.png,"[""cashew.png""]","[""cashew.png""]","[""cashew.png""]","[""cashew.png""]","[""cashew.png""]","[""cashew.png""]",1,"[""nacho.png""]",blank.png,blank.png,blank.png,5,"[""cashew.png""]","[""cashew.png""]","[""cashew.png""]","[""cashew.png""]","[""cashew.png""]",blank.png,PB16.png,,,,,,,,,,,1,,,,,,,,,,,,,3265.060999999987,,completion,,,,,,,,,,,,,3,,,,,,,,,,,,,,,,,,,,,,,,,,,,,,,,,,,,,,,,,,,,,,,,,,,,,,,,,"[""cashew.png""]","[""nacho.png""]",,,,1,,,false,,1,,,,,,,461996.7300000135,461995.814,458714.093,458717.399999965,458730.753,462012.443,,,,
fixCross,canvas.Screen,2_4_3_6_1_0_0_0_0_6_0,2021-05-24T17:53:01.683Z,,,blank.png,blank.png,blank.png,blank.png,blank.png,blank.png,blank.png,"[""nacho.png""]",blank.png,blank.png,blank.png,blank.png,blank.png,,,,,,,,,,,,,,,,,,,,,,,,,,,,,"[""nacho.png""]","[""cashew.png""]",PB18.png,,,,,,,,,,,0,6,"[""cashew.png""]","[""cashew.png""]","[""cashew.png""]","[""cashew.png""]","[""cashew.png""]","[""cashew.png""]",blank.png,PB18.png,PB01.png,"[""cashew.png""]","[""cashew.png""]","[""cashew.png""]","[""cashew.png""]","[""cashew.png""]","[""cashew.png""]",blank.png,blank.png,blank.png,blank.png,blank.png,blank.png,1,"[""nacho.png""]",blank.png,blank.png,blank.png,0,blank.png,blank.png,blank.png,blank.png,blank.png,blank.png,PB01.png,,,,,,,,,,,1,,,,,,,,,,,,,616.3079999999609,,timeout,,,,,,,,,,,,,4,,,,,,,,,,,,,,,,,,,,,,,,,,,,,,,,,,,,,,,,,,,,,,,,,,,,,,,,,"[""cashew.png""]","[""nacho.png""]",,,,1,,,false,,1,,,,,,,462346.1349999998,462345.616,461995.814,462000.0200000359,462012.443,462628.751,7,,,
timeout,canvas.Screen,2_4_3_6_1_0_0_0_0_6_1,2021-05-24T17:53:02.449Z,,,blank.png,blank.png,blank.png,blank.png,blank.png,blank.png,blank.png,"[""nacho.png""]",blank.png,blank.png,blank.png,blank.png,blank.png,,,,,,,,,,,,,,,,,,,,,,,,,,,,,"[""nacho.png""]","[""cashew.png""]",PB18.png,,,,,,,,,,,0,6,"[""cashew.png""]","[""cashew.png""]","[""cashew.png""]","[""cashew.png""]","[""cashew.png""]","[""cashew.png""]",blank.png,PB18.png,PB01.png,"[""cashew.png""]","[""cashew.png""]","[""cashew.png""]","[""cashew.png""]","[""cashew.png""]","[""cashew.png""]",blank.png,blank.png,blank.png,blank.png,blank.png,blank.png,1,"[""nacho.png""]",blank.png,blank.png,blank.png,0,blank.png,blank.png,blank.png,blank.png,blank.png,blank.png,PB01.png,,,,,,,,,,,1,,,,,,,,,,,,,766.3219999999856,,timeout,,,,,,,,,,,,,4,,,,,,,,,,,,,,,,,,,,,,,,,,,,,,,,,,,,,,,,,,,,,,,,,,,,,,,,,"[""cashew.png""]","[""nacho.png""]",,,,1,,,false,,1,,,,,,,463112.7349999733,463111.958,462345.616,462639.8300000001,462628.751,463395.073,,,,
choice,canvas.Screen,2_4_3_6_1_0_0_0_0_6_2,2021-05-24T17:53:03.199Z,,,blank.png,blank.png,blank.png,blank.png,blank.png,blank.png,blank.png,"[""nacho.png""]",blank.png,blank.png,blank.png,blank.png,blank.png,,,,,,,,,,,,,,,,,,,,,,,,,,,,,"[""nacho.png""]","[""cashew.png""]",PB18.png,,,,,,,,,,,0,6,"[""cashew.png""]","[""cashew.png""]","[""cashew.png""]","[""cashew.png""]","[""cashew.png""]","[""cashew.png""]",blank.png,PB18.png,PB01.png,"[""cashew.png""]","[""cashew.png""]","[""cashew.png""]","[""cashew.png""]","[""cashew.png""]","[""cashew.png""]",blank.png,blank.png,blank.png,blank.png,blank.png,blank.png,1,"[""nacho.png""]",blank.png,blank.png,blank.png,0,blank.png,blank.png,blank.png,blank.png,blank.png,blank.png,PB01.png,,,,,,,,,,,1,,,,,,,,,,,,,466.1919999559177,,response,,,,,,,,,,,,,4,,,,,,,,,,,,,,,,,,,,,,,,,,,,,,,,,,,,,,,,,,,,,,,,,,,,,,,,,"[""cashew.png""]","[""nacho.png""]",,,,1,left,keydown(ArrowLeft),false,,1,,,,,,,463862.4299999792,463861.2649999559,463111.958,463396.1849999614,463395.073,464144.702,,7,,
square,canvas.Screen,2_4_3_6_1_0_0_0_0_6_3,2021-05-24T17:53:04.465Z,,,blank.png,blank.png,blank.png,blank.png,blank.png,blank.png,blank.png,"[""nacho.png""]",blank.png,blank.png,blank.png,blank.png,blank.png,,,,,,,,,,,,,,,,,,,,,,,,,,,,,"[""nacho.png""]","[""cashew.png""]",PB18.png,,,,,,,,,,,0,6,"[""cashew.png""]","[""cashew.png""]","[""cashew.png""]","[""cashew.png""]","[""cashew.png""]","[""cashew.png""]",blank.png,PB18.png,PB01.png,"[""cashew.png""]","[""cashew.png""]","[""cashew.png""]","[""cashew.png""]","[""cashew.png""]","[""cashew.png""]",blank.png,blank.png,blank.png,blank.png,blank.png,blank.png,1,"[""nacho.png""]",blank.png,blank.png,blank.png,0,blank.png,blank.png,blank.png,blank.png,blank.png,blank.png,PB01.png,,,,,,,,,,,1,,,#33ff3f,#808080,,,,,,,,,999.5879999999888,,timeout,,,,,,,,,,,,,4,,,,,,,,,,,,,,,,,,,,,,,,,,,,,,,,,,,,,,,,,,,,,,,,,,,,,,,,,"[""cashew.png""]","[""nacho.png""]",,,,1,,,false,,1,,,,,black,white,465128.0849999748,465127.597,464128.012,464141.88000001013,464144.702,465144.29,,,,
ITI_late,canvas.Screen,2_4_3_6_1_0_0_0_0_6_4,2021-05-24T17:53:04.715Z,,,blank.png,blank.png,blank.png,blank.png,blank.png,blank.png,blank.png,"[""nacho.png""]",blank.png,blank.png,blank.png,blank.png,blank.png,,,,,,,,,,,,,,,,,,,,,,,,,,,,,"[""nacho.png""]","[""cashew.png""]",PB18.png,,,,,,,,,,,0,6,"[""cashew.png""]","[""cashew.png""]","[""cashew.png""]","[""cashew.png""]","[""cashew.png""]","[""cashew.png""]",blank.png,PB18.png,PB01.png,"[""cashew.png""]","[""cashew.png""]","[""cashew.png""]","[""cashew.png""]","[""cashew.png""]","[""cashew.png""]",blank.png,blank.png,blank.png,blank.png,blank.png,blank.png,1,"[""nacho.png""]",blank.png,blank.png,blank.png,0,blank.png,blank.png,blank.png,blank.png,blank.png,blank.png,PB01.png,,,,,,,,,,,1,,,,,,,,,,,,,249.77500000002328,,timeout,,,,,,,,,,,,white,4,,,,,,,,,,,,,,,,,,,,,,,,,,,,,,,,,,,,,,,,,,,,,,,,,,,,,,,,,"[""cashew.png""]","[""nacho.png""]",,,,1,,,false,,1,,,,,,,465378.1350000063,465377.432,465127.597,465129.39999997616,465144.29,465394.065,,,,
choice_sequence,flow.Sequence,2_4_3_6_1_0_0_0_0_6,2021-05-24T17:53:04.715Z,,,blank.png,blank.png,blank.png,blank.png,blank.png,blank.png,blank.png,"[""nacho.png""]",blank.png,blank.png,blank.png,blank.png,blank.png,,,,,,,,,,,,,,,,,,,,,,,,,,,,,"[""nacho.png""]","[""cashew.png""]",PB18.png,,,,,,,,,,,0,6,"[""cashew.png""]","[""cashew.png""]","[""cashew.png""]","[""cashew.png""]","[""cashew.png""]","[""cashew.png""]",blank.png,PB18.png,PB01.png,"[""cashew.png""]","[""cashew.png""]","[""cashew.png""]","[""cashew.png""]","[""cashew.png""]","[""cashew.png""]",blank.png,blank.png,blank.png,blank.png,blank.png,blank.png,1,"[""nacho.png""]",blank.png,blank.png,blank.png,0,blank.png,blank.png,blank.png,blank.png,blank.png,blank.png,PB01.png,,,,,,,,,,,1,,,,,,,,,,,,,3364.988999999943,,completion,,,,,,,,,,,,,4,,,,,,,,,,,,,,,,,,,,,,,,,,,,,,,,,,,,,,,,,,,,,,,,,,,,,,,,,"[""cashew.png""]","[""nacho.png""]",,,,1,,,false,,1,,,,,,,465378.44999996014,465377.432,461995.814,461999.30500006303,462012.443,465394.065,,,,
choice_loop,flow.Loop,2_4_3_6_1_0_0_0_0,2021-05-24T17:53:04.715Z,,,,,,,,,,,,,,,,,,,,,,,,,,,,,,,,,,,,,,,,,,,,"[""nacho.png""]","[""cashew.png""]",,,,,,,,,,,,,,,,,,,,,,,,,,,,,,,,,,,,,,,,,,,,,,,,,,,,,,,,,,,,,,,,,,,,,,,30051.869999999995,,completion,,,,,,,,,,,,,,,,,,,,,,,,,,,,,,,,,,,,,,,,,,,,,,,,,,,,,,,,,,,,,,,,,,,,,,"[""cashew.png""]","[""nacho.png""]",,,,1,,,false,,,,,,,,,465378.80499998573,465377.432,435292.317,435321.2449999992,435325.562,465394.065,,,,
choice_frame,html.Frame,2_4_3_6_1_0_0_0,2021-05-24T17:53:04.715Z,,,,,,,,,,,,,,,,,,,,,,,,,,,,,,,,,,,,,,,,,,,,,,,,,,,,,,,,,,,,,,,,,,,,,,,,,,,,,,,,,,,,,,,,,,,,,,,,,,,,,,,,,,,,,,,,,,,,30053.302999976964,,,,,,,,,,,,,,,,,,,,,,,,,,,,,,,,,,,,,,,,,,,,,,,,,,,,,,,,,,,,,,,,,,,,,,,,,,,,,1,,,false,,,,,,,,,465378.9500000421,465378.86499997694,435292.317,435292.9399999557,435325.562,465410.734,,,,
sublock_1,flow.Sequence,2_4_3_6_1_0_0,2021-05-24T17:53:04.716Z,,,,,,,,,,,,,,,,,,,,,,,,,,,,,,,,,,,,,,,,,,,,,,,,,,,,,,,,,,,,,,,,,,,,,,,,,,,,,,,,,,,,,,,,,,,,,,,,,,,,,,,,,,,,,,,,,,,,30053.302999976964,,completion,,,,,,,,,,,,,,,,,,,,,,,,,,,,,,,,,,,,,,,,,,,,,,,,,,,,,,,,,,,,,,,,,,,,,,,,,,,1,,,false,,,,,,,,,465379.03499999084,465378.86499997694,435292.317,435292.9149999982,435325.562,465410.734,,,,
fixCross,canvas.Screen,2_4_3_6_1_0_1_0_0_0_0,2021-05-24T17:53:05.131Z,,,blank.png,blank.png,blank.png,blank.png,blank.png,blank.png,blank.png,"[""nacho.png""]",blank.png,blank.png,blank.png,blank.png,blank.png,,,,,,,,,,,,,,,,,,,,,,,,,,,,,"[""nacho.png""]","[""cashew.png""]",PB18.png,,,,,,,,,,,0,6,"[""cashew.png""]","[""cashew.png""]","[""cashew.png""]","[""cashew.png""]","[""cashew.png""]","[""cashew.png""]",blank.png,PB18.png,PB12.png,"[""cashew.png""]","[""cashew.png""]","[""cashew.png""]","[""cashew.png""]","[""cashew.png""]","[""cashew.png""]","[""cashew.png""]","[""cashew.png""]",blank.png,blank.png,blank.png,blank.png,1,"[""nacho.png""]",blank.png,blank.png,blank.png,2,"[""cashew.png""]","[""cashew.png""]",blank.png,blank.png,blank.png,blank.png,PB12.png,,,,,,,,,,,1,,,,,,,,,,,,,682.9859999999753,,timeout,,,,,,,,,,,,,4,,,,,,,,,,,,,,,,,,,,,,,,,,,,,,,,,,,,,,,,,,,,,,,,,,,,,,,,,"[""cashew.png""]","[""nacho.png""]",,,,2,,,false,,1,,,,,,,465794.5250000339,465793.932,465394.065,465405.0999999745,465410.734,466093.72,8,,,
timeout,canvas.Screen,2_4_3_6_1_0_1_0_0_0_1,2021-05-24T17:53:05.914Z,,,blank.png,blank.png,blank.png,blank.png,blank.png,blank.png,blank.png,"[""nacho.png""]",blank.png,blank.png,blank.png,blank.png,blank.png,,,,,,,,,,,,,,,,,,,,,,,,,,,,,"[""nacho.png""]","[""cashew.png""]",PB18.png,,,,,,,,,,,0,6,"[""cashew.png""]","[""cashew.png""]","[""cashew.png""]","[""cashew.png""]","[""cashew.png""]","[""cashew.png""]",blank.png,PB18.png,PB12.png,"[""cashew.png""]","[""cashew.png""]","[""cashew.png""]","[""cashew.png""]","[""cashew.png""]","[""cashew.png""]","[""cashew.png""]","[""cashew.png""]",blank.png,blank.png,blank.png,blank.png,1,"[""nacho.png""]",blank.png,blank.png,blank.png,2,"[""cashew.png""]","[""cashew.png""]",blank.png,blank.png,blank.png,blank.png,PB12.png,,,,,,,,,,,1,,,,,,,,,,,,,816.2700000000186,,timeout,,,,,,,,,,,,,4,,,,,,,,,,,,,,,,,,,,,,,,,,,,,,,,,,,,,,,,,,,,,,,,,,,,,,,,,"[""cashew.png""]","[""nacho.png""]",,,,2,,,false,,1,,,,,,,466577.70500006154,466576.948,465793.932,466092.8299999796,466093.72,466909.99,,,,
choice,canvas.Screen,2_4_3_6_1_0_1_0_0_0_2,2021-05-24T17:53:06.249Z,,,blank.png,blank.png,blank.png,blank.png,blank.png,blank.png,blank.png,"[""nacho.png""]",blank.png,blank.png,blank.png,blank.png,blank.png,,,,,,,,,,,,,,,,,,,,,,,,,,,,,"[""nacho.png""]","[""cashew.png""]",PB18.png,,,,,,,,,,,0,6,"[""cashew.png""]","[""cashew.png""]","[""cashew.png""]","[""cashew.png""]","[""cashew.png""]","[""cashew.png""]",blank.png,PB18.png,PB12.png,"[""cashew.png""]","[""cashew.png""]","[""cashew.png""]","[""cashew.png""]","[""cashew.png""]","[""cashew.png""]","[""cashew.png""]","[""cashew.png""]",blank.png,blank.png,blank.png,blank.png,1,"[""nacho.png""]",blank.png,blank.png,blank.png,2,"[""cashew.png""]","[""cashew.png""]",blank.png,blank.png,blank.png,blank.png,PB12.png,,,,,,,,,,,1,,,,,,,,,,,,,110.08200003008824,,response,,,,,,,,,,,,,4,,,,,,,,,,,,,,,,,,,,,,,,,,,,,,,,,,,,,,,,,,,,,,,,,,,,,,,,,"[""cashew.png""]","[""nacho.png""]",,,,2,left,keydown(ArrowLeft),false,,1,,,,,,,466912.2249999782,466687.03000003006,466576.948,466899.8999999603,,467226.519,,8,,
square,canvas.Screen,2_4_3_6_1_0_1_0_0_0_3,2021-05-24T17:53:07.546Z,,,blank.png,blank.png,blank.png,blank.png,blank.png,blank.png,blank.png,"[""nacho.png""]",blank.png,blank.png,blank.png,blank.png,blank.png,,,,,,,,,,,,,,,,,,,,,,,,,,,,,"[""nacho.png""]","[""cashew.png""]",PB18.png,,,,,,,,,,,0,6,"[""cashew.png""]","[""cashew.png""]","[""cashew.png""]","[""cashew.png""]","[""cashew.png""]","[""cashew.png""]",blank.png,PB18.png,PB12.png,"[""cashew.png""]","[""cashew.png""]","[""cashew.png""]","[""cashew.png""]","[""cashew.png""]","[""cashew.png""]","[""cashew.png""]","[""cashew.png""]",blank.png,blank.png,blank.png,blank.png,1,"[""nacho.png""]",blank.png,blank.png,blank.png,2,"[""cashew.png""]","[""cashew.png""]",blank.png,blank.png,blank.png,blank.png,PB12.png,,,,,,,,,,,1,,,#33ff3f,#808080,,,,,,,,,999.524000000034,,timeout,,,,,,,,,,,,,4,,,,,,,,,,,,,,,,,,,,,,,,,,,,,,,,,,,,,,,,,,,,,,,,,,,,,,,,,"[""cashew.png""]","[""nacho.png""]",,,,2,,,false,,1,,,,,black,white,468209.9450000096,468209.406,466909.99,467227.8899999801,467226.519,468226.043,,,,
ITI_late,canvas.Screen,2_4_3_6_1_0_1_0_0_0_4,2021-05-24T17:53:08.296Z,,,blank.png,blank.png,blank.png,blank.png,blank.png,blank.png,blank.png,"[""nacho.png""]",blank.png,blank.png,blank.png,blank.png,blank.png,,,,,,,,,,,,,,,,,,,,,,,,,,,,,"[""nacho.png""]","[""cashew.png""]",PB18.png,,,,,,,,,,,0,6,"[""cashew.png""]","[""cashew.png""]","[""cashew.png""]","[""cashew.png""]","[""cashew.png""]","[""cashew.png""]",blank.png,PB18.png,PB12.png,"[""cashew.png""]","[""cashew.png""]","[""cashew.png""]","[""cashew.png""]","[""cashew.png""]","[""cashew.png""]","[""cashew.png""]","[""cashew.png""]",blank.png,blank.png,blank.png,blank.png,1,"[""nacho.png""]",blank.png,blank.png,blank.png,2,"[""cashew.png""]","[""cashew.png""]",blank.png,blank.png,blank.png,blank.png,PB12.png,,,,,,,,,,,1,,,,,,,,,,,,,749.6089999999967,,timeout,,,,,,,,,,,,white,4,,,,,,,,,,,,,,,,,,,,,,,,,,,,,,,,,,,,,,,,,,,,,,,,,,,,,,,,,"[""cashew.png""]","[""nacho.png""]",,,,2,,,false,,1,,,,,,,468959.5200000331,468959.036,468209.406,468211.0350000439,468226.043,468975.652,,,,
choice_sequence,flow.Sequence,2_4_3_6_1_0_1_0_0_0,2021-05-24T17:53:08.296Z,,,blank.png,blank.png,blank.png,blank.png,blank.png,blank.png,blank.png,"[""nacho.png""]",blank.png,blank.png,blank.png,blank.png,blank.png,,,,,,,,,,,,,,,,,,,,,,,,,,,,,"[""nacho.png""]","[""cashew.png""]",PB18.png,,,,,,,,,,,0,6,"[""cashew.png""]","[""cashew.png""]","[""cashew.png""]","[""cashew.png""]","[""cashew.png""]","[""cashew.png""]",blank.png,PB18.png,PB12.png,"[""cashew.png""]","[""cashew.png""]","[""cashew.png""]","[""cashew.png""]","[""cashew.png""]","[""cashew.png""]","[""cashew.png""]","[""cashew.png""]",blank.png,blank.png,blank.png,blank.png,1,"[""nacho.png""]",blank.png,blank.png,blank.png,2,"[""cashew.png""]","[""cashew.png""]",blank.png,blank.png,blank.png,blank.png,PB12.png,,,,,,,,,,,1,,,,,,,,,,,,,3548.302000000025,,completion,,,,,,,,,,,,,4,,,,,,,,,,,,,,,,,,,,,,,,,,,,,,,,,,,,,,,,,,,,,,,,,,,,,,,,,"[""cashew.png""]","[""nacho.png""]",,,,2,,,false,,1,,,,,,,468959.8049999913,468959.036,465394.065,465404.5750000514,465410.734,468975.652,,,,
fixCross,canvas.Screen,2_4_3_6_1_0_1_0_0_1_0,2021-05-24T17:53:08.946Z,,,blank.png,blank.png,blank.png,blank.png,blank.png,blank.png,blank.png,"[""nacho.png""]",blank.png,blank.png,blank.png,blank.png,blank.png,,,,,,,,,,,,,,,,,,,,,,,,,,,,,"[""nacho.png""]","[""cashew.png""]",PB18.png,,,,,,,,,,,0,6,"[""cashew.png""]","[""cashew.png""]","[""cashew.png""]","[""cashew.png""]","[""cashew.png""]","[""cashew.png""]",blank.png,PB18.png,PB15.png,"[""cashew.png""]","[""cashew.png""]","[""cashew.png""]","[""cashew.png""]","[""cashew.png""]","[""cashew.png""]","[""cashew.png""]","[""cashew.png""]","[""cashew.png""]","[""cashew.png""]",blank.png,blank.png,1,"[""nacho.png""]",blank.png,blank.png,blank.png,4,"[""cashew.png""]","[""cashew.png""]","[""cashew.png""]","[""cashew.png""]",blank.png,blank.png,PB15.png,,,,,,,,,,,1,,,,,,,,,,,,,949.5360000000219,,timeout,,,,,,,,,,,,,4,,,,,,,,,,,,,,,,,,,,,,,,,,,,,,,,,,,,,,,,,,,,,,,,,,,,,,,,,"[""cashew.png""]","[""nacho.png""]",,,,2,,,false,,1,,,,,,,469609.27500005346,469608.721,468959.036,468966.5500000119,468975.652,469925.188,9,,,
timeout,canvas.Screen,2_4_3_6_1_0_1_0_0_1_1,2021-05-24T17:53:09.746Z,,,blank.png,blank.png,blank.png,blank.png,blank.png,blank.png,blank.png,"[""nacho.png""]",blank.png,blank.png,blank.png,blank.png,blank.png,,,,,,,,,,,,,,,,,,,,,,,,,,,,,"[""nacho.png""]","[""cashew.png""]",PB18.png,,,,,,,,,,,0,6,"[""cashew.png""]","[""cashew.png""]","[""cashew.png""]","[""cashew.png""]","[""cashew.png""]","[""cashew.png""]",blank.png,PB18.png,PB15.png,"[""cashew.png""]","[""cashew.png""]","[""cashew.png""]","[""cashew.png""]","[""cashew.png""]","[""cashew.png""]","[""cashew.png""]","[""cashew.png""]","[""cashew.png""]","[""cashew.png""]",blank.png,blank.png,1,"[""nacho.png""]",blank.png,blank.png,blank.png,4,"[""cashew.png""]","[""cashew.png""]","[""cashew.png""]","[""cashew.png""]",blank.png,blank.png,PB15.png,,,,,,,,,,,1,,,,,,,,,,,,,816.2629999999772,,timeout,,,,,,,,,,,,,4,,,,,,,,,,,,,,,,,,,,,,,,,,,,,,,,,,,,,,,,,,,,,,,,,,,,,,,,,"[""cashew.png""]","[""nacho.png""]",,,,2,,,false,,1,,,,,,,470409.020000021,470408.321,469608.721,469931.2500000233,469925.188,470741.451,,,,
choice,canvas.Screen,2_4_3_6_1_0_1_0_0_1_2,2021-05-24T17:53:10.122Z,,,blank.png,blank.png,blank.png,blank.png,blank.png,blank.png,blank.png,"[""nacho.png""]",blank.png,blank.png,blank.png,blank.png,blank.png,,,,,,,,,,,,,,,,,,,,,,,,,,,,,"[""nacho.png""]","[""cashew.png""]",PB18.png,,,,,,,,,,,0,6,"[""cashew.png""]","[""cashew.png""]","[""cashew.png""]","[""cashew.png""]","[""cashew.png""]","[""cashew.png""]",blank.png,PB18.png,PB15.png,"[""cashew.png""]","[""cashew.png""]","[""cashew.png""]","[""cashew.png""]","[""cashew.png""]","[""cashew.png""]","[""cashew.png""]","[""cashew.png""]","[""cashew.png""]","[""cashew.png""]",blank.png,blank.png,1,"[""nacho.png""]",blank.png,blank.png,blank.png,4,"[""cashew.png""]","[""cashew.png""]","[""cashew.png""]","[""cashew.png""]",blank.png,blank.png,PB15.png,,,,,,,,,,,1,,,,,,,,,,,,,42.94900000409689,,response,,,,,,,,,,,,,4,,,,,,,,,,,,,,,,,,,,,,,,,,,,,,,,,,,,,,,,,,,,,,,,,,,,,,,,,"[""cashew.png""]","[""nacho.png""]",,,,2,left,keydown(ArrowLeft),false,,1,,,,,,,470785.20499996375,470784.4000000041,470408.321,470747.405000031,470741.451,471124.62,,9,,
square,canvas.Screen,2_4_3_6_1_0_1_0_0_1_3,2021-05-24T17:53:11.445Z,,,blank.png,blank.png,blank.png,blank.png,blank.png,blank.png,blank.png,"[""nacho.png""]",blank.png,blank.png,blank.png,blank.png,blank.png,,,,,,,,,,,,,,,,,,,,,,,,,,,,,"[""nacho.png""]","[""cashew.png""]",PB18.png,,,,,,,,,,,0,6,"[""cashew.png""]","[""cashew.png""]","[""cashew.png""]","[""cashew.png""]","[""cashew.png""]","[""cashew.png""]",blank.png,PB18.png,PB15.png,"[""cashew.png""]","[""cashew.png""]","[""cashew.png""]","[""cashew.png""]","[""cashew.png""]","[""cashew.png""]","[""cashew.png""]","[""cashew.png""]","[""cashew.png""]","[""cashew.png""]",blank.png,blank.png,1,"[""nacho.png""]",blank.png,blank.png,blank.png,4,"[""cashew.png""]","[""cashew.png""]","[""cashew.png""]","[""cashew.png""]",blank.png,blank.png,PB15.png,,,,,,,,,,,1,,,#33ff3f,#808080,,,,,,,,,999.5590000000084,,timeout,,,,,,,,,,,,,4,,,,,,,,,,,,,,,,,,,,,,,,,,,,,,,,,,,,,,,,,,,,,,,,,,,,,,,,,"[""cashew.png""]","[""nacho.png""]",,,,2,,,false,,1,,,,,black,white,472108.18500001915,472107.472,471107.912,471113.7650000164,471124.62,472124.179,,,,
ITI_late,canvas.Screen,2_4_3_6_1_0_1_0_0_1_4,2021-05-24T17:53:11.944Z,,,blank.png,blank.png,blank.png,blank.png,blank.png,blank.png,blank.png,"[""nacho.png""]",blank.png,blank.png,blank.png,blank.png,blank.png,,,,,,,,,,,,,,,,,,,,,,,,,,,,,"[""nacho.png""]","[""cashew.png""]",PB18.png,,,,,,,,,,,0,6,"[""cashew.png""]","[""cashew.png""]","[""cashew.png""]","[""cashew.png""]","[""cashew.png""]","[""cashew.png""]",blank.png,PB18.png,PB15.png,"[""cashew.png""]","[""cashew.png""]","[""cashew.png""]","[""cashew.png""]","[""cashew.png""]","[""cashew.png""]","[""cashew.png""]","[""cashew.png""]","[""cashew.png""]","[""cashew.png""]",blank.png,blank.png,1,"[""nacho.png""]",blank.png,blank.png,blank.png,4,"[""cashew.png""]","[""cashew.png""]","[""cashew.png""]","[""cashew.png""]",blank.png,blank.png,PB15.png,,,,,,,,,,,1,,,,,,,,,,,,,499.72100000001956,,timeout,,,,,,,,,,,,white,4,,,,,,,,,,,,,,,,,,,,,,,,,,,,,,,,,,,,,,,,,,,,,,,,,,,,,,,,,"[""cashew.png""]","[""nacho.png""]",,,,2,,,false,,1,,,,,,,472607.9799999716,472607.235,472107.472,472109.2349999817,472124.179,472623.9,,,,
choice_sequence,flow.Sequence,2_4_3_6_1_0_1_0_0_1,2021-05-24T17:53:11.945Z,,,blank.png,blank.png,blank.png,blank.png,blank.png,blank.png,blank.png,"[""nacho.png""]",blank.png,blank.png,blank.png,blank.png,blank.png,,,,,,,,,,,,,,,,,,,,,,,,,,,,,"[""nacho.png""]","[""cashew.png""]",PB18.png,,,,,,,,,,,0,6,"[""cashew.png""]","[""cashew.png""]","[""cashew.png""]","[""cashew.png""]","[""cashew.png""]","[""cashew.png""]",blank.png,PB18.png,PB15.png,"[""cashew.png""]","[""cashew.png""]","[""cashew.png""]","[""cashew.png""]","[""cashew.png""]","[""cashew.png""]","[""cashew.png""]","[""cashew.png""]","[""cashew.png""]","[""cashew.png""]",blank.png,blank.png,1,"[""nacho.png""]",blank.png,blank.png,blank.png,4,"[""cashew.png""]","[""cashew.png""]","[""cashew.png""]","[""cashew.png""]",blank.png,blank.png,PB15.png,,,,,,,,,,,1,,,,,,,,,,,,,3631.582999999984,,completion,,,,,,,,,,,,,4,,,,,,,,,,,,,,,,,,,,,,,,,,,,,,,,,,,,,,,,,,,,,,,,,,,,,,,,,"[""cashew.png""]","[""nacho.png""]",,,,2,,,false,,1,,,,,,,472608.33499999717,472607.235,468959.036,468965.59499995783,468975.652,472623.9,,,,
fixCross,canvas.Screen,2_4_3_6_1_0_1_0_0_2_0,2021-05-24T17:53:12.644Z,,,blank.png,blank.png,blank.png,blank.png,blank.png,blank.png,blank.png,"[""nacho.png""]",blank.png,blank.png,blank.png,blank.png,blank.png,,,,,,,,,,,,,,,,,,,,,,,,,,,,,"[""nacho.png""]","[""cashew.png""]",PB18.png,,,,,,,,,,,0,6,"[""cashew.png""]","[""cashew.png""]","[""cashew.png""]","[""cashew.png""]","[""cashew.png""]","[""cashew.png""]",blank.png,PB18.png,PB14.png,"[""cashew.png""]","[""cashew.png""]","[""cashew.png""]","[""cashew.png""]","[""cashew.png""]","[""cashew.png""]","[""cashew.png""]","[""cashew.png""]","[""cashew.png""]",blank.png,blank.png,blank.png,1,"[""nacho.png""]",blank.png,blank.png,blank.png,3,"[""cashew.png""]","[""cashew.png""]","[""cashew.png""]",blank.png,blank.png,blank.png,PB14.png,,,,,,,,,,,1,,,,,,,,,,,,,999.411999999953,,timeout,,,,,,,,,,,,,4,,,,,,,,,,,,,,,,,,,,,,,,,,,,,,,,,,,,,,,,,,,,,,,,,,,,,,,,,"[""cashew.png""]","[""nacho.png""]",,,,2,,,false,,1,,,,,,,473307.47999995947,473306.899,472607.235,472611.01500003133,472623.9,473623.312,10,,,
timeout,canvas.Screen,2_4_3_6_1_0_1_0_0_2_1,2021-05-24T17:53:13.444Z,,,blank.png,blank.png,blank.png,blank.png,blank.png,blank.png,blank.png,"[""nacho.png""]",blank.png,blank.png,blank.png,blank.png,blank.png,,,,,,,,,,,,,,,,,,,,,,,,,,,,,"[""nacho.png""]","[""cashew.png""]",PB18.png,,,,,,,,,,,0,6,"[""cashew.png""]","[""cashew.png""]","[""cashew.png""]","[""cashew.png""]","[""cashew.png""]","[""cashew.png""]",blank.png,PB18.png,PB14.png,"[""cashew.png""]","[""cashew.png""]","[""cashew.png""]","[""cashew.png""]","[""cashew.png""]","[""cashew.png""]","[""cashew.png""]","[""cashew.png""]","[""cashew.png""]",blank.png,blank.png,blank.png,1,"[""nacho.png""]",blank.png,blank.png,blank.png,3,"[""cashew.png""]","[""cashew.png""]","[""cashew.png""]",blank.png,blank.png,blank.png,PB14.png,,,,,,,,,,,1,,,,,,,,,,,,,799.6660000000265,,timeout,,,,,,,,,,,,,4,,,,,,,,,,,,,,,,,,,,,,,,,,,,,,,,,,,,,,,,,,,,,,,,,,,,,,,,,"[""cashew.png""]","[""nacho.png""]",,,,2,,,false,,1,,,,,,,474107.04499995336,474106.499,473306.899,473618.38500003796,473623.312,474422.978,,,,
choice,canvas.Screen,2_4_3_6_1_0_1_0_0_2_2,2021-05-24T17:53:13.777Z,,,blank.png,blank.png,blank.png,blank.png,blank.png,blank.png,blank.png,"[""nacho.png""]",blank.png,blank.png,blank.png,blank.png,blank.png,,,,,,,,,,,,,,,,,,,,,,,,,,,,,"[""nacho.png""]","[""cashew.png""]",PB18.png,,,,,,,,,,,0,6,"[""cashew.png""]","[""cashew.png""]","[""cashew.png""]","[""cashew.png""]","[""cashew.png""]","[""cashew.png""]",blank.png,PB18.png,PB14.png,"[""cashew.png""]","[""cashew.png""]","[""cashew.png""]","[""cashew.png""]","[""cashew.png""]","[""cashew.png""]","[""cashew.png""]","[""cashew.png""]","[""cashew.png""]",blank.png,blank.png,blank.png,1,"[""nacho.png""]",blank.png,blank.png,blank.png,3,"[""cashew.png""]","[""cashew.png""]","[""cashew.png""]",blank.png,blank.png,blank.png,PB14.png,,,,,,,,,,,1,,,,,,,,,,,,,94.86100006458582,,response,,,,,,,,,,,,,4,,,,,,,,,,,,,,,,,,,,,,,,,,,,,,,,,,,,,,,,,,,,,,,,,,,,,,,,,"[""cashew.png""]","[""nacho.png""]",,,,2,left,keydown(ArrowLeft),false,,1,,,,,,,474440.24500006344,474201.3600000646,474106.499,474430.49000005703,,474772.798,,10,,
square,canvas.Screen,2_4_3_6_1_0_1_0_0_2_3,2021-05-24T17:53:15.093Z,,,blank.png,blank.png,blank.png,blank.png,blank.png,blank.png,blank.png,"[""nacho.png""]",blank.png,blank.png,blank.png,blank.png,blank.png,,,,,,,,,,,,,,,,,,,,,,,,,,,,,"[""nacho.png""]","[""cashew.png""]",PB18.png,,,,,,,,,,,0,6,"[""cashew.png""]","[""cashew.png""]","[""cashew.png""]","[""cashew.png""]","[""cashew.png""]","[""cashew.png""]",blank.png,PB18.png,PB14.png,"[""cashew.png""]","[""cashew.png""]","[""cashew.png""]","[""cashew.png""]","[""cashew.png""]","[""cashew.png""]","[""cashew.png""]","[""cashew.png""]","[""cashew.png""]",blank.png,blank.png,blank.png,1,"[""nacho.png""]",blank.png,blank.png,blank.png,3,"[""cashew.png""]","[""cashew.png""]","[""cashew.png""]",blank.png,blank.png,blank.png,PB14.png,,,,,,,,,,,1,,,#33ff3f,#808080,,,,,,,,,999.5789999999688,,timeout,,,,,,,,,,,,,4,,,,,,,,,,,,,,,,,,,,,,,,,,,,,,,,,,,,,,,,,,,,,,,,,,,,,,,,,"[""cashew.png""]","[""nacho.png""]",,,,2,,,false,,1,,,,,black,white,475756.1500000302,475755.664,474422.978,474764.91000002716,474772.798,475772.377,,,,
