sender,sender_type,sender_id,timestamp,meta,,Blank,DownLeft1,DownLeft2,DownLeft3,DownLeft4,DownLeft5,DownLeft6,DownRight1,DownRight2,DownRight3,DownRight4,DownRight5,DownRight6,FoodHabits_Fru_item1,FoodHabits_Fru_item2,FoodHabits_Fru_item3,FoodHabits_Fru_item4,FoodHabits_Fru_item5,FoodHabits_Fru_item6,FoodHabits_Fru_item7,FoodHabits_Meat_item1,FoodHabits_Meat_item2,FoodHabits_Meat_item3,FoodHabits_Meat_item4,FoodHabits_Meat_item5,FoodHabits_Meat_item6,FoodHabits_Meat_item7,FoodHabits_Swe_item1,FoodHabits_Swe_item2,FoodHabits_Swe_item3,FoodHabits_Swe_item4,FoodHabits_Swe_item5,FoodHabits_Swe_item6,FoodHabits_Swe_item7,FoodHabits_Veg_item1,FoodHabits_Veg_item2,FoodHabits_Veg_item3,FoodHabits_Veg_item4,FoodHabits_Veg_item5,FoodHabits_Veg_item6,FoodHabits_Veg_item7,ImgA,ImgB,LeftBar,PSS_item01,PSS_item02,PSS_item03,PSS_item04,PSS_item05,PSS_item06,PSS_item07,PSS_item08,PSS_item09,PSS_item10,RefA,RefB,RefB1,RefB2,RefB3,RefB4,RefB5,RefB6,RefB7,Ref_PB,RightBar,UpLeft1,UpLeft2,UpLeft3,UpLeft4,UpLeft5,UpLeft6,UpRight1,UpRight2,UpRight3,UpRight4,UpRight5,UpRight6,VarA,VarA1,VarA2,VarA3,VarA4,VarB,VarB1,VarB2,VarB3,VarB4,VarB5,VarB6,Var_PB,attCheck_fileA,attCheck_fileB,attCheck_fileC,attCheck_fileD,attCheck_options,attCheck_valueA,attCheck_valueB,attCheck_valueC,attCheck_valueD,attention_check,block,break1,browser_name,choseL,choseR,consent_form1,consent_form2,consentconfirmation_form1,consentconfirmation_form2,correct,correctResponse,diet,disorder,duration,edu,ended_on,enjoy,full_version,gender,group,hunger,img,imgTask,input_age,input_meal,input_occ,input_remark,lateRespFeed,list,major_version,message,mixQ_item1,mixQ_item2,mixQ_item3,mixQ_item4,mixQ_item5,name,navigator_appName,navigator_userAgent,os,pracQ1_IDa,pracQ1_IDb,pracQ1_IDc,pracQ1_IDd,pracQ1_optionA,pracQ1_optionB,pracQ1_optionC,pracQ1_optionD,pracQ1_valueA,pracQ1_valueB,pracQ1_valueC,pracQ1_valueD,pracQ2_IDa,pracQ2_IDb,pracQ2_IDc,pracQ2_optionA,pracQ2_optionB,pracQ2_optionC,pracQ2_valueA,pracQ2_valueB,pracQ2_valueC,pracQ4_IDa,pracQ4_IDb,pracQ4_IDc,pracQ4_IDd,pracQ4_optionA,pracQ4_optionB,pracQ4_optionC,pracQ4_optionD,pracQ4_valueA,pracQ4_valueB,pracQ4_valueC,pracQ4_valueD,pracQ5_IDa,pracQ5_IDb,pracQ5_IDc,pracQ5_IDd,pracQ5_optionA,pracQ5_optionB,pracQ5_optionC,pracQ5_optionD,pracQ5_valueA,pracQ5_valueB,pracQ5_valueC,pracQ5_valueD,prefHealty,prefUnhealthy,prolific_ID,psessionID,pstudyID,rep,response,response_action,skip,snack,sublock,subtitle,task_difficulty,task_engagement,task_focus,textL,textR,time_commit,time_end,time_render,time_run,time_show,time_switch,trial_count,trial_countO,url,valence
Title,html.Page,0,2021-05-24T15:52:47.018Z,"{""labjs_version"":""20.2.2"",""labjs_build"":{""flavor"":""production"",""commit"":""a25486e0c714a0ae2ce03ff94b7bb6896854dcfa""},""location"":""https://run.pavlovia.org/E3lab/rebund/html/?PROLIFIC_PID=5cd39a98a83ee900179adc60&STUDY_ID=60008f34cd719d13b0d706dd&SESSION_ID=60abcbb490cf1b7b506ce4fc"",""userAgent"":""Mozilla/5.0 (Windows NT 10.0; Win64; x64; rv:88.0) Gecko/20100101 Firefox/88.0"",""platform"":""Win32"",""language"":""en-US"",""locale"":""en-CA"",""timeZone"":""America/Regina"",""timezoneOffset"":360,""screen_width"":1280,""screen_height"":720,""scroll_width"":1280,""scroll_height"":579,""window_innerWidth"":1280,""window_innerHeight"":579,""devicePixelRatio"":1.5}",,,,,,,,,,,,,,,,,,,,,,,,,,,,,,,,,,,,,,,,,,,,,,,,,,,,,,,,,,,,,,,,,,,,,,,,,,,,,,,,,,,,,,,,,,,,,,,,,,,,,,,,,,,,,,,,,,,5622.58,,form submission,,,,,,,,,,,,,,,,,,,,,,,,,,,,,,,,,,,,,,,,,,,,,,,,,,,,,,,,,,,,,,,,,,,,,,,,,,,,,,,,,,,,,,,15314,15313,9673.76,9659,9690.42,15323.44,,,"{""PROLIFIC_PID"":""5cd39a98a83ee900179adc60"",""STUDY_ID"":""60008f34cd719d13b0d706dd"",""SESSION_ID"":""60abcbb490cf1b7b506ce4fc""}",
get_systemInfo,canvas.Screen,1,2021-05-24T15:52:47.032Z,,,,,,,,,,,,,,,,,,,,,,,,,,,,,,,,,,,,,,,,,,,,,,,,,,,,,,,,,,,,,,,,,,,,,,,,,,,,,,,,,,,,,,,,,,,,,,,,,,,,,,,,,Firefox,,,,,,,,,,,4347.74,,timeout,,88.0,,,,,,,,,,,,88,,,,,,,,Netscape,Mozilla/5.0 (Windows NT 10.0; Win64; x64; rv:88.0) Gecko/20100101 Firefox/88.0,Windows,,,,,,,,,,,,,,,,,,,,,,,,,,,,,,,,,,,,,,,,,,,,,,,,5cd39a98a83ee900179adc60,,60008f34cd719d13b0d706dd,,,,,,,,,,,,,15328,15326,15306.76,15317,15323.44,19671.18,,,,
ConsentForm,html.Form,2_0,2021-05-24T15:53:16.483Z,,,,,,,,,,,,,,,,,,,,,,,,,,,,,,,,,,,,,,,,,,,,,,,,,,,,,,,,,,,,,,,,,,,,,,,,,,,,,,,,,,,,,,,,,,,,,,,,,,,,,,,,,,,,true,true,,,,,,,25107.82,,form submission,,,,,,,,,,,,,,,,,,,,,,,,,,,,,,,,,,,,,,,,,,,,,,,,,,,,,,,,,,,,,,,,,,,,,,,,,,,,,,,,,,,,,,,44779,44779,15326,19668,19671.18,44805.02,,,,
PepTalk,html.Page,2_1,2021-05-24T15:53:23.901Z,,,,,,,,,,,,,,,,,,,,,,,,,,,,,,,,,,,,,,,,,,,,,,,,,,,,,,,,,,,,,,,,,,,,,,,,,,,,,,,,,,,,,,,,,,,,,,,,,,,,,,,,,,,,,,,,,,,,7391.980000000003,,form submission,,,,,,,,,,,,,,,,,,,,,,,,,,,,,,,,,,,,,,,,,,,,,,,,,,,,,,,,,,,,,,,,,,,,,,,,,,,,,,,,,,,,,,,52197,52197,44788.34,44780,44805.02,52221.26,,,,
Demographics,html.Form,2_2,2021-05-24T15:53:46.495Z,,,,,,,,,,,,,,,,,,,,,,,,,,,,,,,,,,,,,,,,,,,,,,,,,,,,,,,,,,,,,,,,,,,,,,,,,,,,,,,,,,,,,,,,,,,,,,,,,,,,,,,,,,,,,,,,,,,,22569.739999999998,2,form submission,,,2,,,,,60,,Caretaker,,,,,,,,,,,,,,,,,,,,,,,,,,,,,,,,,,,,,,,,,,,,,,,,,,,,,,,,,,,,,,,,,,,,,,,,,,,,,74791,74791,52204.62,52198,52221.26,74803.26,,,,
InclusionCrit,html.Form,2_3,2021-05-24T15:54:10.825Z,,,,,,,,,,,,,,,,,,,,,,,,,,,,,,,,,,,,,,,,,,,,,,,,,,,,,,,,,,,,,,,,,,,,,,,,,,,,,,,,,,,,,,,,,,,,,,,,,,,,,,,,,,,,,,,,,,1,1,24317.740000000005,,form submission,0,,,,,,,,,,,,,,,,,,,,,,,,,,,,,,,,,,,,,,,,,,,,,,,,,,,,,,,,,,,,,,,,,,,,,,,,,,,,,,,,,,,,,,99121,99121,74786.6,74792,74803.26,99135.16,,,,
Selection,html.Page,2_4_0,2021-05-24T15:54:20.688Z,,,,,,,,,,,,,,,,,,,,,,,,,,,,,,,,,,,,,,,,,,,,,,,,,,,,,,,,,,,,,,,,,,,,,,,,,,,,,,,,,,,,,,,,,,,,,,,,,,,,,,,,,,,,,,,,,,,,9848.839999999997,,form submission,,,,,,,,,,,,,,,,,,,,,,,,,,,,,,,,,,,,,,,,,,,,,,,,,,,,,,,,,,,,,,,,,,,,,,,,,,,,,,,1,,,,,,,,108984,108984,99118.5,99122,99135.16,109001.24,,,,
Load,html.Page,2_4_1,2021-05-24T15:54:20.706Z,,,,,,,,,,,,,,,,,,,,,,,,,,,,,,,,,,,,,,,,,,,,,,,,,,,,,,,,,,,,,,,,,,,,,,,,,,,,,,,,,,,,,,,,,,,,,,,,,,,,,,,,,,,,,,,,,,,,15265.73999999999,,timeout,,,,,,,,,,,,,,,,,,,,,,,,,,,,,,,,,,,,,,,,,,,,,,,,,,,,,,,,,,,,,,,,,,,,,,,,,,,,,,,,,,,,,,,109002,109002,108984.56,108985,109001.24,124266.98,,,,
SequenceSweet,flow.Sequence,2_4_2,2021-05-24T15:54:29.727Z,,,,,,,,,,,,,,,,,,,,,,,,,,,,,,,,,,,,,,,,,,,,,,,,,,,,,,,,,,,,,,,,,,,,,,,,,,,,,,,,,,,,,,,,,,,,,,,,,,,,,,,,,,,,,,,,,,,,NaN,,skipped,,,,,,,,,,,,,,,,,,,,,,,,,,,,,,,,,,,,,,,,,,,,,,,,,,,,,,,,,,,,,,,,,,,,,,,,,,,,,,true,,,,,,,,,118022,109002,,118022,,124266.98,0,0,,
ratings_instructions,html.Screen,2_4_3_0,2021-05-24T15:54:51.132Z,,,,,,,,,,,,,,,,,,,,,,,,,,,,,,,,,,,,,,,,,,,,,,,,,,,,,,,,,,,,,,,,,,,,,,,,,,,,,,,,,,,,,,,,,,,,,,,,,,,,,,,,,,,,,,,,,,,,15152.020000000004,,response,,,,,,,,,,,,,,,,,,,,,,,,,,,,,,,,,,,,,,,,,,,,,,,,,,,,,,,,,,,,,,,,,,,,,,,,,,,,continue,keypress(Space),false,,,,,,,,,139428,139419,109002,124266,124266.98,139432.8,0,0,,
fixCross,canvas.Screen,2_4_3_1_0_0,2021-05-24T15:54:51.621Z,,,,,,,,,,,,,,,,,,,,,,,,,,,,,,,,,,,,,,,,,,,,,,,,,,,,,,,,,,,,,,,,,,,,,,,,,,,,,,,,,,,,,,,,,,,,,,,,,,,,,,,,,,,,,,,,,,,,499.9400000000023,,timeout,,,,unhealthy,,sausage.png,,,,,,,,,,,,,,,salami,,,,,,,,,,,,,,,,,,,,,,,,,,,,,,,,,,,,,,,,,,,,,,,,,,,,,,,,,false,,,,,,,,,139917,139916.08,139428.46,139428,139432.8,139932.74,,,,
Rating,html.Form,2_4_3_1_0_1,2021-05-24T15:54:59.271Z,,,,,,,,,,,,,,,,,,,,,,,,,,,,,,,,,,,,,,,,,,,,,,,,,,,,,,,,,,,,,,,,,,,,,,,,,,,,,,,,,,,,,,,,,,,,,,,,,,,,,,,,,,,,,,,,,,,,7634.260000000009,,form submission,,,,unhealthy,,sausage.png,,,,,,,,,,,,,,,salami,,,,,,,,,,,,,,,,,,,,,,,,,,,,,,,,,,,,,,,,,,,,,,,,,,,,,,,,,false,,,,,,,,,147567,147567,139916.08,139918,139932.74,147582.3,,,,77
rating_sequence,flow.Sequence,2_4_3_1_0,2021-05-24T15:54:59.272Z,,,,,,,,,,,,,,,,,,,,,,,,,,,,,,,,,,,,,,,,,,,,,,,,,,,,,,,,,,,,,,,,,,,,,,,,,,,,,,,,,,,,,,,,,,,,,,,,,,,,,,,,,,,,,,,,,,,,8134.200000000012,,completion,,,,unhealthy,,sausage.png,,,,,,,,,,,,,,,salami,,,,,,,,,,,,,,,,,,,,,,,,,,,,,,,,,,,,,,,,,,,,,,,,,,,,,,,,,false,,,,,,,,,147568,147567,139428.46,139428,139432.8,147582.3,,,,
fixCross,canvas.Screen,2_4_3_1_1_0,2021-05-24T15:54:59.771Z,,,,,,,,,,,,,,,,,,,,,,,,,,,,,,,,,,,,,,,,,,,,,,,,,,,,,,,,,,,,,,,,,,,,,,,,,,,,,,,,,,,,,,,,,,,,,,,,,,,,,,,,,,,,,,,,,,,,499.9400000000023,,timeout,,,,healthy,,cucumber.png,,,,,,,,,,,,,,,cucumber,,,,,,,,,,,,,,,,,,,,,,,,,,,,,,,,,,,,,,,,,,,,,,,,,,,,,,,,,false,,,,,,,,,148067,148065.58,147565.62,147568,147582.3,148082.24,,,,
Rating,html.Form,2_4_3_1_1_1,2021-05-24T15:55:06.259Z,,,,,,,,,,,,,,,,,,,,,,,,,,,,,,,,,,,,,,,,,,,,,,,,,,,,,,,,,,,,,,,,,,,,,,,,,,,,,,,,,,,,,,,,,,,,,,,,,,,,,,,,,,,,,,,,,,,,6472.760000000009,,form submission,,,,healthy,,cucumber.png,,,,,,,,,,,,,,,cucumber,,,,,,,,,,,,,,,,,,,,,,,,,,,,,,,,,,,,,,,,,,,,,,,,,,,,,,,,,false,,,,,,,,,154555,154555,148065.58,148067,148082.24,154581.88,,,,91
rating_sequence,flow.Sequence,2_4_3_1_1,2021-05-24T15:55:06.259Z,,,,,,,,,,,,,,,,,,,,,,,,,,,,,,,,,,,,,,,,,,,,,,,,,,,,,,,,,,,,,,,,,,,,,,,,,,,,,,,,,,,,,,,,,,,,,,,,,,,,,,,,,,,,,,,,,,,,6972.700000000012,,completion,,,,healthy,,cucumber.png,,,,,,,,,,,,,,,cucumber,,,,,,,,,,,,,,,,,,,,,,,,,,,,,,,,,,,,,,,,,,,,,,,,,,,,,,,,,false,,,,,,,,,154556,154555,147565.62,147568,147582.3,154581.88,,,,
fixCross,canvas.Screen,2_4_3_1_2_0,2021-05-24T15:55:06.769Z,,,,,,,,,,,,,,,,,,,,,,,,,,,,,,,,,,,,,,,,,,,,,,,,,,,,,,,,,,,,,,,,,,,,,,,,,,,,,,,,,,,,,,,,,,,,,,,,,,,,,,,,,,,,,,,,,,,,499.95999999999185,,timeout,,,,healthy,,celery.png,,,,,,,,,,,,,,,celery,,,,,,,,,,,,,,,,,,,,,,,,,,,,,,,,,,,,,,,,,,,,,,,,,,,,,,,,,false,,,,,,,,,155066,155065.18,154565.22,154556,154581.88,155081.84,,,,
Rating,html.Form,2_4_3_1_2_1,2021-05-24T15:55:16.962Z,,,,,,,,,,,,,,,,,,,,,,,,,,,,,,,,,,,,,,,,,,,,,,,,,,,,,,,,,,,,,,,,,,,,,,,,,,,,,,,,,,,,,,,,,,,,,,,,,,,,,,,,,,,,,,,,,,,,10175.160000000003,,form submission,,,,healthy,,celery.png,,,,,,,,,,,,,,,celery,,,,,,,,,,,,,,,,,,,,,,,,,,,,,,,,,,,,,,,,,,,,,,,,,,,,,,,,,false,,,,,,,,,165258,165257,155065.18,155066,155081.84,165281.24,,,,10
rating_sequence,flow.Sequence,2_4_3_1_2,2021-05-24T15:55:16.964Z,,,,,,,,,,,,,,,,,,,,,,,,,,,,,,,,,,,,,,,,,,,,,,,,,,,,,,,,,,,,,,,,,,,,,,,,,,,,,,,,,,,,,,,,,,,,,,,,,,,,,,,,,,,,,,,,,,,,10675.119999999995,,completion,,,,healthy,,celery.png,,,,,,,,,,,,,,,celery,,,,,,,,,,,,,,,,,,,,,,,,,,,,,,,,,,,,,,,,,,,,,,,,,,,,,,,,,false,,,,,,,,,165259,165257,154565.22,154556,154581.88,165281.24,,,,
fixCross,canvas.Screen,2_4_3_1_3_0,2021-05-24T15:55:17.469Z,,,,,,,,,,,,,,,,,,,,,,,,,,,,,,,,,,,,,,,,,,,,,,,,,,,,,,,,,,,,,,,,,,,,,,,,,,,,,,,,,,,,,,,,,,,,,,,,,,,,,,,,,,,,,,,,,,,,499.9800000000105,,timeout,,,,unhealthy,,frie.png,,,,,,,,,,,,,,,frie,,,,,,,,,,,,,,,,,,,,,,,,,,,,,,,,,,,,,,,,,,,,,,,,,,,,,,,,,false,,,,,,,,,165766,165764.54,165264.58,165260,165281.24,165781.22,,,,
Rating,html.Form,2_4_3_1_3_1,2021-05-24T15:55:24.763Z,,,,,,,,,,,,,,,,,,,,,,,,,,,,,,,,,,,,,,,,,,,,,,,,,,,,,,,,,,,,,,,,,,,,,,,,,,,,,,,,,,,,,,,,,,,,,,,,,,,,,,,,,,,,,,,,,,,,7278.779999999999,,form submission,,,,unhealthy,,frie.png,,,,,,,,,,,,,,,frie,,,,,,,,,,,,,,,,,,,,,,,,,,,,,,,,,,,,,,,,,,,,,,,,,,,,,,,,,false,,,,,,,,,173060,173060,165764.54,165766,165781.22,173080.78,,,,49
rating_sequence,flow.Sequence,2_4_3_1_3,2021-05-24T15:55:24.764Z,,,,,,,,,,,,,,,,,,,,,,,,,,,,,,,,,,,,,,,,,,,,,,,,,,,,,,,,,,,,,,,,,,,,,,,,,,,,,,,,,,,,,,,,,,,,,,,,,,,,,,,,,,,,,,,,,,,,7778.760000000009,,completion,,,,unhealthy,,frie.png,,,,,,,,,,,,,,,frie,,,,,,,,,,,,,,,,,,,,,,,,,,,,,,,,,,,,,,,,,,,,,,,,,,,,,,,,,false,,,,,,,,,173061,173060,165264.58,165260,165281.24,173080.78,,,,
fixCross,canvas.Screen,2_4_3_1_4_0,2021-05-24T15:55:25.268Z,,,,,,,,,,,,,,,,,,,,,,,,,,,,,,,,,,,,,,,,,,,,,,,,,,,,,,,,,,,,,,,,,,,,,,,,,,,,,,,,,,,,,,,,,,,,,,,,,,,,,,,,,,,,,,,,,,,,499.95999999999185,,timeout,,,,healthy,,walnut.png,,,,,,,,,,,,,,,walnut,,,,,,,,,,,,,,,,,,,,,,,,,,,,,,,,,,,,,,,,,,,,,,,,,,,,,,,,,false,,,,,,,,,173565,173564.08,173064.1,173061,173080.78,173580.74,,,,
Rating,html.Form,2_4_3_1_4_1,2021-05-24T15:55:32.478Z,,,,,,,,,,,,,,,,,,,,,,,,,,,,,,,,,,,,,,,,,,,,,,,,,,,,,,,,,,,,,,,,,,,,,,,,,,,,,,,,,,,,,,,,,,,,,,,,,,,,,,,,,,,,,,,,,,,,7192.260000000009,,form submission,,,,healthy,,walnut.png,,,,,,,,,,,,,,,walnut,,,,,,,,,,,,,,,,,,,,,,,,,,,,,,,,,,,,,,,,,,,,,,,,,,,,,,,,,false,,,,,,,,,180774,180773,173564.08,173565,173580.74,180796.96,,,,51
rating_sequence,flow.Sequence,2_4_3_1_4,2021-05-24T15:55:32.479Z,,,,,,,,,,,,,,,,,,,,,,,,,,,,,,,,,,,,,,,,,,,,,,,,,,,,,,,,,,,,,,,,,,,,,,,,,,,,,,,,,,,,,,,,,,,,,,,,,,,,,,,,,,,,,,,,,,,,7692.220000000001,,completion,,,,healthy,,walnut.png,,,,,,,,,,,,,,,walnut,,,,,,,,,,,,,,,,,,,,,,,,,,,,,,,,,,,,,,,,,,,,,,,,,,,,,,,,,false,,,,,,,,,180774,180773,173064.1,173061,173080.78,180796.96,,,,
fixCross,canvas.Screen,2_4_3_1_5_0,2021-05-24T15:55:32.985Z,,,,,,,,,,,,,,,,,,,,,,,,,,,,,,,,,,,,,,,,,,,,,,,,,,,,,,,,,,,,,,,,,,,,,,,,,,,,,,,,,,,,,,,,,,,,,,,,,,,,,,,,,,,,,,,,,,,,500,,timeout,,,,unhealthy,,nacho.png,,,,,,,,,,,,,,,nacho,,,,,,,,,,,,,,,,,,,,,,,,,,,,,,,,,,,,,,,,,,,,,,,,,,,,,,,,,false,,,,,,,,,181281,181280.3,180780.3,180775,180796.96,181296.96,,,,
Rating,html.Form,2_4_3_1_5_1,2021-05-24T15:55:38.981Z,,,,,,,,,,,,,,,,,,,,,,,,,,,,,,,,,,,,,,,,,,,,,,,,,,,,,,,,,,,,,,,,,,,,,,,,,,,,,,,,,,,,,,,,,,,,,,,,,,,,,,,,,,,,,,,,,,,,5980.040000000008,,form submission,,,,unhealthy,,nacho.png,,,,,,,,,,,,,,,nacho,,,,,,,,,,,,,,,,,,,,,,,,,,,,,,,,,,,,,,,,,,,,,,,,,,,,,,,,,false,,,,,,,,,187277,187277,181280.3,181282,181296.96,187296.6,,,,60
rating_sequence,flow.Sequence,2_4_3_1_5,2021-05-24T15:55:38.982Z,,,,,,,,,,,,,,,,,,,,,,,,,,,,,,,,,,,,,,,,,,,,,,,,,,,,,,,,,,,,,,,,,,,,,,,,,,,,,,,,,,,,,,,,,,,,,,,,,,,,,,,,,,,,,,,,,,,,6480.040000000008,,completion,,,,unhealthy,,nacho.png,,,,,,,,,,,,,,,nacho,,,,,,,,,,,,,,,,,,,,,,,,,,,,,,,,,,,,,,,,,,,,,,,,,,,,,,,,,false,,,,,,,,,187278,187277,180780.3,180774,180796.96,187296.6,,,,
fixCross,canvas.Screen,2_4_3_1_6_0,2021-05-24T15:55:39.485Z,,,,,,,,,,,,,,,,,,,,,,,,,,,,,,,,,,,,,,,,,,,,,,,,,,,,,,,,,,,,,,,,,,,,,,,,,,,,,,,,,,,,,,,,,,,,,,,,,,,,,,,,,,,,,,,,,,,,499.95999999999185,,timeout,,,,healthy,,edamame.png,,,,,,,,,,,,,,,edamame,,,,,,,,,,,,,,,,,,,,,,,,,,,,,,,,,,,,,,,,,,,,,,,,,,,,,,,,,false,,,,,,,,,187780,187779.9,187279.94,187278,187296.6,187796.56,,,,
Rating,html.Form,2_4_3_1_6_1,2021-05-24T15:55:47.227Z,,,,,,,,,,,,,,,,,,,,,,,,,,,,,,,,,,,,,,,,,,,,,,,,,,,,,,,,,,,,,,,,,,,,,,,,,,,,,,,,,,,,,,,,,,,,,,,,,,,,,,,,,,,,,,,,,,,,7726.440000000002,,form submission,,,,healthy,,edamame.png,,,,,,,,,,,,,,,edamame,,,,,,,,,,,,,,,,,,,,,,,,,,,,,,,,,,,,,,,,,,,,,,,,,,,,,,,,,false,,,,,,,,,195524,195523,187779.9,187781,187796.56,195546.08,,,,57
rating_sequence,flow.Sequence,2_4_3_1_6,2021-05-24T15:55:47.227Z,,,,,,,,,,,,,,,,,,,,,,,,,,,,,,,,,,,,,,,,,,,,,,,,,,,,,,,,,,,,,,,,,,,,,,,,,,,,,,,,,,,,,,,,,,,,,,,,,,,,,,,,,,,,,,,,,,,,8226.399999999994,,completion,,,,healthy,,edamame.png,,,,,,,,,,,,,,,edamame,,,,,,,,,,,,,,,,,,,,,,,,,,,,,,,,,,,,,,,,,,,,,,,,,,,,,,,,,false,,,,,,,,,195524,195523,187279.94,187278,187296.6,195546.08,,,,
fixCross,canvas.Screen,2_4_3_1_7_0,2021-05-24T15:55:47.734Z,,,,,,,,,,,,,,,,,,,,,,,,,,,,,,,,,,,,,,,,,,,,,,,,,,,,,,,,,,,,,,,,,,,,,,,,,,,,,,,,,,,,,,,,,,,,,,,,,,,,,,,,,,,,,,,,,,,,500,,timeout,,,,healthy,,tomato.png,,,,,,,,,,,,,,,cherry tomato,,,,,,,,,,,,,,,,,,,,,,,,,,,,,,,,,,,,,,,,,,,,,,,,,,,,,,,,,false,,,,,,,,,196030,196029.42,195529.42,195525,195546.08,196046.08,,,,
Rating,html.Form,2_4_3_1_7_1,2021-05-24T15:55:54.735Z,,,,,,,,,,,,,,,,,,,,,,,,,,,,,,,,,,,,,,,,,,,,,,,,,,,,,,,,,,,,,,,,,,,,,,,,,,,,,,,,,,,,,,,,,,,,,,,,,,,,,,,,,,,,,,,,,,,,6984.920000000013,,form submission,,,,healthy,,tomato.png,,,,,,,,,,,,,,,cherry tomato,,,,,,,,,,,,,,,,,,,,,,,,,,,,,,,,,,,,,,,,,,,,,,,,,,,,,,,,,false,,,,,,,,,203032,203031,196029.42,196030,196046.08,203045.66,,,,99
rating_sequence,flow.Sequence,2_4_3_1_7,2021-05-24T15:55:54.736Z,,,,,,,,,,,,,,,,,,,,,,,,,,,,,,,,,,,,,,,,,,,,,,,,,,,,,,,,,,,,,,,,,,,,,,,,,,,,,,,,,,,,,,,,,,,,,,,,,,,,,,,,,,,,,,,,,,,,7484.920000000013,,completion,,,,healthy,,tomato.png,,,,,,,,,,,,,,,cherry tomato,,,,,,,,,,,,,,,,,,,,,,,,,,,,,,,,,,,,,,,,,,,,,,,,,,,,,,,,,false,,,,,,,,,203032,203031,195529.42,195524,195546.08,203045.66,,,,
fixCross,canvas.Screen,2_4_3_1_8_0,2021-05-24T15:55:55.233Z,,,,,,,,,,,,,,,,,,,,,,,,,,,,,,,,,,,,,,,,,,,,,,,,,,,,,,,,,,,,,,,,,,,,,,,,,,,,,,,,,,,,,,,,,,,,,,,,,,,,,,,,,,,,,,,,,,,,499.9800000000105,,timeout,,,,unhealthy,,ritz.png,,,,,,,,,,,,,,,cracker,,,,,,,,,,,,,,,,,,,,,,,,,,,,,,,,,,,,,,,,,,,,,,,,,,,,,,,,,false,,,,,,,,,203530,203528.98,203029,203032,203045.66,203545.64,,,,
Rating,html.Form,2_4_3_1_8_1,2021-05-24T15:56:00.785Z,,,,,,,,,,,,,,,,,,,,,,,,,,,,,,,,,,,,,,,,,,,,,,,,,,,,,,,,,,,,,,,,,,,,,,,,,,,,,,,,,,,,,,,,,,,,,,,,,,,,,,,,,,,,,,,,,,,,5534.359999999986,,form submission,,,,unhealthy,,ritz.png,,,,,,,,,,,,,,,cracker,,,,,,,,,,,,,,,,,,,,,,,,,,,,,,,,,,,,,,,,,,,,,,,,,,,,,,,,,false,,,,,,,,,209080,209080,203528.98,203530,203545.64,209095.3,,,,50
rating_sequence,flow.Sequence,2_4_3_1_8,2021-05-24T15:56:00.785Z,,,,,,,,,,,,,,,,,,,,,,,,,,,,,,,,,,,,,,,,,,,,,,,,,,,,,,,,,,,,,,,,,,,,,,,,,,,,,,,,,,,,,,,,,,,,,,,,,,,,,,,,,,,,,,,,,,,,6034.3399999999965,,completion,,,,unhealthy,,ritz.png,,,,,,,,,,,,,,,cracker,,,,,,,,,,,,,,,,,,,,,,,,,,,,,,,,,,,,,,,,,,,,,,,,,,,,,,,,,false,,,,,,,,,209081,209080,203029,203032,203045.66,209095.3,,,,
fixCross,canvas.Screen,2_4_3_1_9_0,2021-05-24T15:56:01.283Z,,,,,,,,,,,,,,,,,,,,,,,,,,,,,,,,,,,,,,,,,,,,,,,,,,,,,,,,,,,,,,,,,,,,,,,,,,,,,,,,,,,,,,,,,,,,,,,,,,,,,,,,,,,,,,,,,,,,499.9400000000023,,timeout,,,,healthy,,cashew.png,,,,,,,,,,,,,,,cashew,,,,,,,,,,,,,,,,,,,,,,,,,,,,,,,,,,,,,,,,,,,,,,,,,,,,,,,,,false,,,,,,,,,209580,209578.6,209078.64,209081,209095.3,209595.24,,,,
Rating,html.Form,2_4_3_1_9_1,2021-05-24T15:56:07.767Z,,,,,,,,,,,,,,,,,,,,,,,,,,,,,,,,,,,,,,,,,,,,,,,,,,,,,,,,,,,,,,,,,,,,,,,,,,,,,,,,,,,,,,,,,,,,,,,,,,,,,,,,,,,,,,,,,,,,6466.760000000009,,form submission,,,,healthy,,cashew.png,,,,,,,,,,,,,,,cashew,,,,,,,,,,,,,,,,,,,,,,,,,,,,,,,,,,,,,,,,,,,,,,,,,,,,,,,,,false,,,,,,,,,216063,216062,209578.6,209580,209595.24,216078.22,,,,75
rating_sequence,flow.Sequence,2_4_3_1_9,2021-05-24T15:56:07.769Z,,,,,,,,,,,,,,,,,,,,,,,,,,,,,,,,,,,,,,,,,,,,,,,,,,,,,,,,,,,,,,,,,,,,,,,,,,,,,,,,,,,,,,,,,,,,,,,,,,,,,,,,,,,,,,,,,,,,6966.700000000012,,completion,,,,healthy,,cashew.png,,,,,,,,,,,,,,,cashew,,,,,,,,,,,,,,,,,,,,,,,,,,,,,,,,,,,,,,,,,,,,,,,,,,,,,,,,,false,,,,,,,,,216065,216062,209078.64,209081,209095.3,216078.22,,,,
fixCross,canvas.Screen,2_4_3_1_10_0,2021-05-24T15:56:08.266Z,,,,,,,,,,,,,,,,,,,,,,,,,,,,,,,,,,,,,,,,,,,,,,,,,,,,,,,,,,,,,,,,,,,,,,,,,,,,,,,,,,,,,,,,,,,,,,,,,,,,,,,,,,,,,,,,,,,,499.9800000000105,,timeout,,,,healthy,,carrot.png,,,,,,,,,,,,,,,carrot,,,,,,,,,,,,,,,,,,,,,,,,,,,,,,,,,,,,,,,,,,,,,,,,,,,,,,,,,false,,,,,,,,,216562,216561.54,216061.56,216065,216078.22,216578.2,,,,
Rating,html.Form,2_4_3_1_10_1,2021-05-24T15:56:14.317Z,,,,,,,,,,,,,,,,,,,,,,,,,,,,,,,,,,,,,,,,,,,,,,,,,,,,,,,,,,,,,,,,,,,,,,,,,,,,,,,,,,,,,,,,,,,,,,,,,,,,,,,,,,,,,,,,,,,,6034.799999999988,,form submission,,,,healthy,,carrot.png,,,,,,,,,,,,,,,carrot,,,,,,,,,,,,,,,,,,,,,,,,,,,,,,,,,,,,,,,,,,,,,,,,,,,,,,,,,false,,,,,,,,,222614,222613,216561.54,216563,216578.2,222627.82,,,,89
rating_sequence,flow.Sequence,2_4_3_1_10,2021-05-24T15:56:14.319Z,,,,,,,,,,,,,,,,,,,,,,,,,,,,,,,,,,,,,,,,,,,,,,,,,,,,,,,,,,,,,,,,,,,,,,,,,,,,,,,,,,,,,,,,,,,,,,,,,,,,,,,,,,,,,,,,,,,,6534.779999999999,,completion,,,,healthy,,carrot.png,,,,,,,,,,,,,,,carrot,,,,,,,,,,,,,,,,,,,,,,,,,,,,,,,,,,,,,,,,,,,,,,,,,,,,,,,,,false,,,,,,,,,222616,222613,216061.56,216065,216078.22,222627.82,,,,
fixCross,canvas.Screen,2_4_3_1_11_0,2021-05-24T15:56:14.816Z,,,,,,,,,,,,,,,,,,,,,,,,,,,,,,,,,,,,,,,,,,,,,,,,,,,,,,,,,,,,,,,,,,,,,,,,,,,,,,,,,,,,,,,,,,,,,,,,,,,,,,,,,,,,,,,,,,,,499.95999999999185,,timeout,,,,unhealthy,,peanut_cracker.png,,,,,,,,,,,,,,,peanut chip,,,,,,,,,,,,,,,,,,,,,,,,,,,,,,,,,,,,,,,,,,,,,,,,,,,,,,,,,false,,,,,,,,,223112,223111.14,222611.18,222616,222627.82,223127.78,,,,
Rating,html.Form,2_4_3_1_11_1,2021-05-24T15:56:23.597Z,,,,,,,,,,,,,,,,,,,,,,,,,,,,,,,,,,,,,,,,,,,,,,,,,,,,,,,,,,,,,,,,,,,,,,,,,,,,,,,,,,,,,,,,,,,,,,,,,,,,,,,,,,,,,,,,,,,,8765.220000000001,,form submission,,,,unhealthy,,peanut_cracker.png,,,,,,,,,,,,,,,peanut chip,,,,,,,,,,,,,,,,,,,,,,,,,,,,,,,,,,,,,,,,,,,,,,,,,,,,,,,,,false,,,,,,,,,231893,231893,223111.14,223112,223127.78,231910.6,,,,37
rating_sequence,flow.Sequence,2_4_3_1_11,2021-05-24T15:56:23.598Z,,,,,,,,,,,,,,,,,,,,,,,,,,,,,,,,,,,,,,,,,,,,,,,,,,,,,,,,,,,,,,,,,,,,,,,,,,,,,,,,,,,,,,,,,,,,,,,,,,,,,,,,,,,,,,,,,,,,9265.179999999993,,completion,,,,unhealthy,,peanut_cracker.png,,,,,,,,,,,,,,,peanut chip,,,,,,,,,,,,,,,,,,,,,,,,,,,,,,,,,,,,,,,,,,,,,,,,,,,,,,,,,false,,,,,,,,,231894,231893,222611.18,222616,222627.82,231910.6,,,,
fixCross,canvas.Screen,2_4_3_1_12_0,2021-05-24T15:56:24.099Z,,,,,,,,,,,,,,,,,,,,,,,,,,,,,,,,,,,,,,,,,,,,,,,,,,,,,,,,,,,,,,,,,,,,,,,,,,,,,,,,,,,,,,,,,,,,,,,,,,,,,,,,,,,,,,,,,,,,499.95999999999185,,timeout,,,,unhealthy,,dried_meat.png,,,,,,,,,,,,,,,dried meat,,,,,,,,,,,,,,,,,,,,,,,,,,,,,,,,,,,,,,,,,,,,,,,,,,,,,,,,,false,,,,,,,,,232395,232393.92,231893.94,231894,231910.6,232410.56,,,,
Rating,html.Form,2_4_3_1_12_1,2021-05-24T15:56:30.605Z,,,,,,,,,,,,,,,,,,,,,,,,,,,,,,,,,,,,,,,,,,,,,,,,,,,,,,,,,,,,,,,,,,,,,,,,,,,,,,,,,,,,,,,,,,,,,,,,,,,,,,,,,,,,,,,,,,,,6490.440000000002,,form submission,,,,unhealthy,,dried_meat.png,,,,,,,,,,,,,,,dried meat,,,,,,,,,,,,,,,,,,,,,,,,,,,,,,,,,,,,,,,,,,,,,,,,,,,,,,,,,false,,,,,,,,,238902,238901,232393.92,232396,232410.56,238926.86,,,,50
rating_sequence,flow.Sequence,2_4_3_1_12,2021-05-24T15:56:30.607Z,,,,,,,,,,,,,,,,,,,,,,,,,,,,,,,,,,,,,,,,,,,,,,,,,,,,,,,,,,,,,,,,,,,,,,,,,,,,,,,,,,,,,,,,,,,,,,,,,,,,,,,,,,,,,,,,,,,,6990.399999999994,,completion,,,,unhealthy,,dried_meat.png,,,,,,,,,,,,,,,dried meat,,,,,,,,,,,,,,,,,,,,,,,,,,,,,,,,,,,,,,,,,,,,,,,,,,,,,,,,,false,,,,,,,,,238903,238901,231893.94,231894,231910.6,238926.86,,,,
fixCross,canvas.Screen,2_4_3_1_13_0,2021-05-24T15:56:31.115Z,,,,,,,,,,,,,,,,,,,,,,,,,,,,,,,,,,,,,,,,,,,,,,,,,,,,,,,,,,,,,,,,,,,,,,,,,,,,,,,,,,,,,,,,,,,,,,,,,,,,,,,,,,,,,,,,,,,,499.9800000000105,,timeout,,,,healthy,,radish.png,,,,,,,,,,,,,,,radish,,,,,,,,,,,,,,,,,,,,,,,,,,,,,,,,,,,,,,,,,,,,,,,,,,,,,,,,,false,,,,,,,,,239411,239410.18,238910.2,238904,238926.86,239426.84,,,,
Rating,html.Form,2_4_3_1_13_1,2021-05-24T15:56:37.243Z,,,,,,,,,,,,,,,,,,,,,,,,,,,,,,,,,,,,,,,,,,,,,,,,,,,,,,,,,,,,,,,,,,,,,,,,,,,,,,,,,,,,,,,,,,,,,,,,,,,,,,,,,,,,,,,,,,,,6112.1600000000035,,form submission,,,,healthy,,radish.png,,,,,,,,,,,,,,,radish,,,,,,,,,,,,,,,,,,,,,,,,,,,,,,,,,,,,,,,,,,,,,,,,,,,,,,,,,false,,,,,,,,,245539,245539,239410.18,239412,239426.84,245559.8,,,,78
rating_sequence,flow.Sequence,2_4_3_1_13,2021-05-24T15:56:37.243Z,,,,,,,,,,,,,,,,,,,,,,,,,,,,,,,,,,,,,,,,,,,,,,,,,,,,,,,,,,,,,,,,,,,,,,,,,,,,,,,,,,,,,,,,,,,,,,,,,,,,,,,,,,,,,,,,,,,,6612.140000000014,,completion,,,,healthy,,radish.png,,,,,,,,,,,,,,,radish,,,,,,,,,,,,,,,,,,,,,,,,,,,,,,,,,,,,,,,,,,,,,,,,,,,,,,,,,false,,,,,,,,,245539,245539,238910.2,238904,238926.86,245559.8,,,,
fixCross,canvas.Screen,2_4_3_1_14_0,2021-05-24T15:56:37.747Z,,,,,,,,,,,,,,,,,,,,,,,,,,,,,,,,,,,,,,,,,,,,,,,,,,,,,,,,,,,,,,,,,,,,,,,,,,,,,,,,,,,,,,,,,,,,,,,,,,,,,,,,,,,,,,,,,,,,499.9800000000105,,timeout,,,,unhealthy,,chips.png,,,,,,,,,,,,,,,potato chip,,,,,,,,,,,,,,,,,,,,,,,,,,,,,,,,,,,,,,,,,,,,,,,,,,,,,,,,,false,,,,,,,,,246043,246043.12,245543.14,245540,245559.8,246059.78,,,,
Rating,html.Form,2_4_3_1_14_1,2021-05-24T15:56:44.144Z,,,,,,,,,,,,,,,,,,,,,,,,,,,,,,,,,,,,,,,,,,,,,,,,,,,,,,,,,,,,,,,,,,,,,,,,,,,,,,,,,,,,,,,,,,,,,,,,,,,,,,,,,,,,,,,,,,,,6380.220000000001,,form submission,,,,unhealthy,,chips.png,,,,,,,,,,,,,,,potato chip,,,,,,,,,,,,,,,,,,,,,,,,,,,,,,,,,,,,,,,,,,,,,,,,,,,,,,,,,false,,,,,,,,,252440,252440,246043.12,246043,246059.78,252459.38,,,,59
rating_sequence,flow.Sequence,2_4_3_1_14,2021-05-24T15:56:44.144Z,,,,,,,,,,,,,,,,,,,,,,,,,,,,,,,,,,,,,,,,,,,,,,,,,,,,,,,,,,,,,,,,,,,,,,,,,,,,,,,,,,,,,,,,,,,,,,,,,,,,,,,,,,,,,,,,,,,,6880.200000000012,,completion,,,,unhealthy,,chips.png,,,,,,,,,,,,,,,potato chip,,,,,,,,,,,,,,,,,,,,,,,,,,,,,,,,,,,,,,,,,,,,,,,,,,,,,,,,,false,,,,,,,,,252441,252440,245543.14,245540,245559.8,252459.38,,,,
fixCross,canvas.Screen,2_4_3_1_15_0,2021-05-24T15:56:44.647Z,,,,,,,,,,,,,,,,,,,,,,,,,,,,,,,,,,,,,,,,,,,,,,,,,,,,,,,,,,,,,,,,,,,,,,,,,,,,,,,,,,,,,,,,,,,,,,,,,,,,,,,,,,,,,,,,,,,,499.95999999999185,,timeout,,,,unhealthy,,ham.png,,,,,,,,,,,,,,,ham,,,,,,,,,,,,,,,,,,,,,,,,,,,,,,,,,,,,,,,,,,,,,,,,,,,,,,,,,false,,,,,,,,,252943,252942.68,252442.7,252441,252459.38,252959.34,,,,
Rating,html.Form,2_4_3_1_15_1,2021-05-24T15:56:51.794Z,,,,,,,,,,,,,,,,,,,,,,,,,,,,,,,,,,,,,,,,,,,,,,,,,,,,,,,,,,,,,,,,,,,,,,,,,,,,,,,,,,,,,,,,,,,,,,,,,,,,,,,,,,,,,,,,,,,,7130.6600000000035,,form submission,,,,unhealthy,,ham.png,,,,,,,,,,,,,,,ham,,,,,,,,,,,,,,,,,,,,,,,,,,,,,,,,,,,,,,,,,,,,,,,,,,,,,,,,,false,,,,,,,,,260090,260090,252942.68,252943,252959.34,260108.92,,,,88
rating_sequence,flow.Sequence,2_4_3_1_15,2021-05-24T15:56:51.795Z,,,,,,,,,,,,,,,,,,,,,,,,,,,,,,,,,,,,,,,,,,,,,,,,,,,,,,,,,,,,,,,,,,,,,,,,,,,,,,,,,,,,,,,,,,,,,,,,,,,,,,,,,,,,,,,,,,,,7630.619999999995,,completion,,,,unhealthy,,ham.png,,,,,,,,,,,,,,,ham,,,,,,,,,,,,,,,,,,,,,,,,,,,,,,,,,,,,,,,,,,,,,,,,,,,,,,,,,false,,,,,,,,,260091,260090,252442.7,252441,252459.38,260108.92,,,,
fixCross,canvas.Screen,2_4_3_1_16_0,2021-05-24T15:56:52.297Z,,,,,,,,,,,,,,,,,,,,,,,,,,,,,,,,,,,,,,,,,,,,,,,,,,,,,,,,,,,,,,,,,,,,,,,,,,,,,,,,,,,,,,,,,,,,,,,,,,,,,,,,,,,,,,,,,,,,500,,timeout,,,,unhealthy,,bretzel.png,,,,,,,,,,,,,,,bretzel,,,,,,,,,,,,,,,,,,,,,,,,,,,,,,,,,,,,,,,,,,,,,,,,,,,,,,,,,false,,,,,,,,,260593,260592.26,260092.26,260091,260108.92,260608.92,,,,
Rating,html.Form,2_4_3_1_16_1,2021-05-24T15:57:01.783Z,,,,,,,,,,,,,,,,,,,,,,,,,,,,,,,,,,,,,,,,,,,,,,,,,,,,,,,,,,,,,,,,,,,,,,,,,,,,,,,,,,,,,,,,,,,,,,,,,,,,,,,,,,,,,,,,,,,,9470.079999999987,,form submission,,,,unhealthy,,bretzel.png,,,,,,,,,,,,,,,bretzel,,,,,,,,,,,,,,,,,,,,,,,,,,,,,,,,,,,,,,,,,,,,,,,,,,,,,,,,,false,,,,,,,,,270080,270079,260592.26,260593,260608.92,270108.36,,,,36
rating_sequence,flow.Sequence,2_4_3_1_16,2021-05-24T15:57:01.784Z,,,,,,,,,,,,,,,,,,,,,,,,,,,,,,,,,,,,,,,,,,,,,,,,,,,,,,,,,,,,,,,,,,,,,,,,,,,,,,,,,,,,,,,,,,,,,,,,,,,,,,,,,,,,,,,,,,,,9970.079999999987,,completion,,,,unhealthy,,bretzel.png,,,,,,,,,,,,,,,bretzel,,,,,,,,,,,,,,,,,,,,,,,,,,,,,,,,,,,,,,,,,,,,,,,,,,,,,,,,,false,,,,,,,,,270080,270079,260092.26,260091,260108.92,270108.36,,,,
fixCross,canvas.Screen,2_4_3_1_17_0,2021-05-24T15:57:02.296Z,,,,,,,,,,,,,,,,,,,,,,,,,,,,,,,,,,,,,,,,,,,,,,,,,,,,,,,,,,,,,,,,,,,,,,,,,,,,,,,,,,,,,,,,,,,,,,,,,,,,,,,,,,,,,,,,,,,,499.96000000002095,,timeout,,,,healthy,,pickle.png,,,,,,,,,,,,,,,pickle,,,,,,,,,,,,,,,,,,,,,,,,,,,,,,,,,,,,,,,,,,,,,,,,,,,,,,,,,false,,,,,,,,,270592,270591.66,270091.7,270080,270108.36,270608.32,,,,
Rating,html.Form,2_4_3_1_17_1,2021-05-24T15:57:08.465Z,,,,,,,,,,,,,,,,,,,,,,,,,,,,,,,,,,,,,,,,,,,,,,,,,,,,,,,,,,,,,,,,,,,,,,,,,,,,,,,,,,,,,,,,,,,,,,,,,,,,,,,,,,,,,,,,,,,,6152.679999999993,,form submission,,,,healthy,,pickle.png,,,,,,,,,,,,,,,pickle,,,,,,,,,,,,,,,,,,,,,,,,,,,,,,,,,,,,,,,,,,,,,,,,,,,,,,,,,false,,,,,,,,,276761,276761,270591.66,270593,270608.32,276791.26,,,,78
rating_sequence,flow.Sequence,2_4_3_1_17,2021-05-24T15:57:08.465Z,,,,,,,,,,,,,,,,,,,,,,,,,,,,,,,,,,,,,,,,,,,,,,,,,,,,,,,,,,,,,,,,,,,,,,,,,,,,,,,,,,,,,,,,,,,,,,,,,,,,,,,,,,,,,,,,,,,,6652.640000000014,,completion,,,,healthy,,pickle.png,,,,,,,,,,,,,,,pickle,,,,,,,,,,,,,,,,,,,,,,,,,,,,,,,,,,,,,,,,,,,,,,,,,,,,,,,,,false,,,,,,,,,276762,276761,270091.7,270080,270108.36,276791.26,,,,
rating_loop,flow.Loop,2_4_3_1,2021-05-24T15:57:08.466Z,,,,,,,,,,,,,,,,,,,,,,,,,,,,,,,,,,,,,,,,,,,,,,,,,,,,,,,,,,,,,,,,,,,,,,,,,,,,,,,,,,,,,,,,,,,,,,,,,,,,,,,,,,,,,,,,,,,,137328.2,,completion,,,,,,,,,,,,,,,,,,,,,,,,,,,,,,,,,,,,,,,,,,,,,,,,,,,,,,,,,,,,,,,,,,,,,,,,,,,,,,false,,,,,,,,,276762,276761,139428.46,139428,139432.8,276791.26,,,,
data_transmission,html.Screen,2_4_3_2,2021-05-24T15:57:08.468Z,,,,,,,,,,,,,,,,,,,,,,,,,,,,,,,,,,,,,,,,,,,,,,,,,,,,,,,,,,,,,,,,,,,,,,,,,,,,,,,,,,,,,,,,,,,,,,,,,,,,,,,,,,,,,,,,,,,,NaN,,no compatible backend,,,,,,,,,,,,,,,Transferring data,,,,,,,,,,,,,,,,,,,,,,,,,,,,,,,,,,,,,,,,,,,,,,,,,,,,,,,,,,,,,,,false,,,Please wait a second…,,,,,,276764,276763,,276762,,276791.26,,,,
instructions,html.Screen,2_4_3_3,2021-05-24T15:58:38.922Z,,,,,,,,,,,,,,,,,,,,,,,,,,,,,,,,,,,,,,,,,,,,,,,,,,,,,,,,,,,,,,,,,,,,,,,,,,,,,,,,,,,,,,,,,,,,,,,,,,,,,,,,,,,,,,,,,,,,90427.73999999999,,done,,,,,,,,,,,,,,,,,,,,,,,,,,,,,,,,,,,,,,,,,,,,,,,,,,,,,,,,,,,,,,,,,,,,,,,,,,,,,,false,,,,,,,,,367219,367219,276774.62,276764,276791.26,367235.86,,,,
Q1,html.Screen,2_4_3_4_0,2021-05-24T15:58:46.123Z,,,,,,,,,,,,,,,,,,,,,,,,,,,,,,,,,,,,,,,,,,,,,,,,,,,,,,,,,,,,,,,,,,,,,,,,,,,,,,,,,,,,,,,,,,,,,,,,,,,,,,,,,,,,,,,,false,input_Q1==3,,,7167.140000000014,,response,,,,,,,,,,,,,,,,,,,,,,,,,Q1_i4,Q1_i2,Q1_i3,Q1_i1,4,2,3,1,false,false,correct,false,,,,,,,,,,,,,,,,,,,,,,,,,,,,,,,,,,,,,,,,,click #Q1_i3,false,,,,,,,,,374419,374403,367219.06,367219,367235.86,374435.48,,,,
Q1_correct,html.Screen,2_4_3_4_1,2021-05-24T15:58:48.946Z,,,,,,,,,,,,,,,,,,,,,,,,,,,,,,,,,,,,,,,,,,,,,,,,,,,,,,,,,,,,,,,,,,,,,,,,,,,,,,,,,,,,,,,,,,,,,,,,,,,,,,,,,,,,,,,,,,,,2795.5200000000186,,response,,,,,,,,,,,,,,,,,,,,,,,,,,,,,,,,,,,,,,,,,,,,,,,,,,,,,,,,,,,,,,,,,,,,,,,,,,,,,keypress,false,,,,,,,,,377243,377231,374418.82,374419,374435.48,377251.98,,,,
Q2,html.Screen,2_4_3_4_2,2021-05-24T15:58:55.118Z,,,,,,,,,,,,,,,,,,,,,,,,,,,,,,,,,,,,,,,,,,,,,,,,,,,,,,,,,,,,,,,,,,,,,,,,,,,,,,,,,,,,,,,,,,,,,,,,,,,,,,,,,,,,,,,,,,,,6151.020000000019,,response,,,,,,,,,,,,,,,,,,,,,,,,,,,,,,,,,,,,,Q2_i1,Q2_i3,Q2_i2,Option 1,Same amount,Option 2,correct,same,opt2,,,,,,,,,,,,,,,,,,,,,,,,,,,,,,,,click #Q2_i1,false,,,,,,,,,383415,383403,377242.54,377243,377251.98,383434.92,,,,
Q2_correct,html.Screen,2_4_3_4_3,2021-05-24T15:58:57.458Z,,,,,,,,,,,,,,,,,,,,,,,,,,,,,,,,,,,,,,,,,,,,,,,,,,,,,,,,,,,,,,,,,,,,,,,,,,,,,,,,,,,,,,,,,,,,,,,,,,,,,,,,,,,,,,,,,,,,2312.0800000000163,,response,,,,,,,,,,,,,,,,,,,,,,,,,,,,,,,,,,,,,,,,,,,,,,,,,,,,,,,,,,,,,,,,,,,,,,,,,,,,,keypress,false,,,,,,,,,385755,385747,383418.3,383415,383434.92,385768.14,,,,
Q4,html.Screen,2_4_3_4_4,2021-05-24T15:59:10.564Z,,,,,,,,,,,,,,,,,,,,,,,,,,,,,,,,,,,,,,,,,,,,,,,,,,,,,,,,,,,,,,,,,,,,,,,,,,,,,,,,,,,,,,,,,,,,,,,,,,,,,,,,,,,,,,,,,,,,13087.859999999986,,response,,,,,,,,,,,,,,,,,,,,,,,,,,,,,,,,,,,,,,,,,,,,,,Q4_i4,Q4_i3,Q4_i2,Q4_i1,Press the space key,Press the arrow key that corresponds with the snack option with more food items,Indicate the number of food items in each snack option,Press the arrow key that corresponds with the snack option I prefer,pressspace,morefood,indicate,correct,,,,,,,,,,,,,,,,,,,,click #Q4_i1,false,,,,,,,,,398860,398856,385754.56,385755,385768.14,398884.06,,,,
Q4_correct,html.Screen,2_4_3_4_5,2021-05-24T15:59:13.147Z,,,,,,,,,,,,,,,,,,,,,,,,,,,,,,,,,,,,,,,,,,,,,,,,,,,,,,,,,,,,,,,,,,,,,,,,,,,,,,,,,,,,,,,,,,,,,,,,,,,,,,,,,,,,,,,,,,,,2549.9400000000023,,response,,,,,,,,,,,,,,,,,,,,,,,,,,,,,,,,,,,,,,,,,,,,,,,,,,,,,,,,,,,,,,,,,,,,,,,,,,,,,keypress,false,,,,,,,,,401442,401434,398867.4,398861,398884.06,401450.52,,,,
Q5,html.Screen,2_4_3_4_6,2021-05-24T15:59:39.714Z,,,,,,,,,,,,,,,,,,,,,,,,,,,,,,,,,,,,,,,,,,,,,,,,,,,,,,,,,,,,,,,,,,,,,,,,,,,,,,,,,,,,,,,,,,,,,,,,,,,,,,,,,,,,,,,,,,,,26546.47999999998,,response,,,,,,,,,,,,,,,,,,,,,,,,,,,,,,,,,,,,,,,,,,,,,,,,,,,,,,,,,,Q5_i1,Q5_i3,Q5_i4,Q5_i2,Snack Option 2 has been chosen,There are more slices of kiwi in snack Option 1,Snack Option 1 has been chosen,There are more pieces of chocolate in snack Option 2,correct,morekiwi1,chose1,morechoc2,,,,,,,,click #Q5_i1,false,,,,,,,,,428010,427997,401442.56,401443,401450.52,428032.26,,,,
Q5_correct,html.Screen,2_4_3_4_7,2021-05-24T15:59:42.538Z,,,,,,,,,,,,,,,,,,,,,,,,,,,,,,,,,,,,,,,,,,,,,,,,,,,,,,,,,,,,,,,,,,,,,,,,,,,,,,,,,,,,,,,,,,,,,,,,,,,,,,,,,,,,,,,,,,,,2792.7399999999907,,response,,,,,,,,,,,,,,,,,,,,,,,,,,,,,,,,,,,,,,,,,,,,,,,,,,,,,,,,,,,,,,,,,,,,,,,,,,,,,keypress,false,,,,,,,,,430835,430825,428015.6,428011,428032.26,430865.46,,,,
practice_sequence,flow.Sequence,2_4_3_4,2021-05-24T15:59:42.538Z,,,,,,,,,,,,,,,,,,,,,,,,,,,,,,,,,,,,,,,,,,,,,,,,,,,,,,,,,,,,,,,,,,,,,,,,,,,,,,,,,,,,,,,,,,,,,,,,,,,,,,,,,,,,,,,,,,,,63589.140000000014,,completion,,,,,,,,,,,,,,,,,,,,,,,,,,,,,,,,,,,,,,,,,,,,,,,,,,,,,,,,,,,,,,,,,,,,,,,,,,,,,,false,,,,,,,,,430835,430825,367219.06,367219,367235.86,430865.46,,,,
final_instru,html.Screen,2_4_3_5,2021-05-24T16:00:07.898Z,,,,,,,,,,,,,,,,,,,,,,,,,,,,,,,,,,,,,,,,,,,,,,,,,,,,,,,,,,,,,,,,,,,,,,,,,,,,,,,,,,,,,,,,,,,,,,,,,,,,,,,,,,,,,,,,,,,,25328.53999999998,,done,,,,,,,,,,,,,,,,,,,,,,,,,,,,,,,,,,,,,,,,,,,,,,,,,,,,,,,,,,,,,,,,,,,,,,,,,,,,,,false,,,,,,,,,456194,456194,430848.8,430835,430865.46,456197.28,,,,
blank_screen,canvas.Screen,2_4_3_6_0,2021-05-24T16:00:09.885Z,,,,,,,,,,,,,,,,,,,,,,,,,,,,,,,,,,,,,,,,,,,,,,,,,,,,,,,,,,,,,,,,,,,,,,,,,,,,,,,,,,,,,,,,,,,,,,,,,,,,,,,,,,,,,,,,,,,,2016.5599999999977,,timeout,,,,,,,,,,,,,,,,,,,,,,,,,,,,,,,,,,,,,,,,,,,,,,,,,,,,,,,,,,,,,,,,,,,,,,,,,,,,,,false,,,,,,,,,458181,458180.5,456194.82,456195,456197.28,458213.84,,,,
fixCross,canvas.Screen,2_4_3_6_1_0_0_0_0_0_0,2021-05-24T16:00:10.252Z,,,blank.png,blank.png,blank.png,blank.png,blank.png,blank.png,blank.png,"[""ham.png""]",blank.png,blank.png,blank.png,blank.png,blank.png,,,,,,,,,,,,,,,,,,,,,,,,,,,,,"[""ham.png""]","[""tomato.png""]",PB18.png,,,,,,,,,,,0,6,"[""tomato.png""]","[""tomato.png""]","[""tomato.png""]","[""tomato.png""]","[""tomato.png""]","[""tomato.png""]",blank.png,PB18.png,PB01.png,"[""tomato.png""]","[""tomato.png""]","[""tomato.png""]","[""tomato.png""]","[""tomato.png""]","[""tomato.png""]",blank.png,blank.png,blank.png,blank.png,blank.png,blank.png,1,"[""ham.png""]",blank.png,blank.png,blank.png,0,blank.png,blank.png,blank.png,blank.png,blank.png,blank.png,PB01.png,,,,,,,,,,,1,,,,,,,,,,,,,1016.5799999999581,,timeout,,,,,,,,,,,,,4,,,,,,,,,,,,,,,,,,,,,,,,,,,,,,,,,,,,,,,,,,,,,,,,,,,,,,,,,"[""tomato.png""]","[""ham.png""]",,,,3,,,false,,1,,,,,,,458548,458547.14,458180.5,458228,458213.84,459230.42,1,,,
timeout,canvas.Screen,2_4_3_6_1_0_0_0_0_0_1,2021-05-24T16:00:11.418Z,,,blank.png,blank.png,blank.png,blank.png,blank.png,blank.png,blank.png,"[""ham.png""]",blank.png,blank.png,blank.png,blank.png,blank.png,,,,,,,,,,,,,,,,,,,,,,,,,,,,,"[""ham.png""]","[""tomato.png""]",PB18.png,,,,,,,,,,,0,6,"[""tomato.png""]","[""tomato.png""]","[""tomato.png""]","[""tomato.png""]","[""tomato.png""]","[""tomato.png""]",blank.png,PB18.png,PB01.png,"[""tomato.png""]","[""tomato.png""]","[""tomato.png""]","[""tomato.png""]","[""tomato.png""]","[""tomato.png""]",blank.png,blank.png,blank.png,blank.png,blank.png,blank.png,1,"[""ham.png""]",blank.png,blank.png,blank.png,0,blank.png,blank.png,blank.png,blank.png,blank.png,blank.png,PB01.png,,,,,,,,,,,1,,,,,,,,,,,,,816.6600000000326,,timeout,,,,,,,,,,,,,4,,,,,,,,,,,,,,,,,,,,,,,,,,,,,,,,,,,,,,,,,,,,,,,,,,,,,,,,,"[""tomato.png""]","[""ham.png""]",,,,3,,,false,,1,,,,,,,459715,459713.74,458547.14,459198,459230.42,460047.08,,,,
choice,canvas.Screen,2_4_3_6_1_0_0_0_0_0_2,2021-05-24T16:00:15.490Z,,,blank.png,blank.png,blank.png,blank.png,blank.png,blank.png,blank.png,"[""ham.png""]",blank.png,blank.png,blank.png,blank.png,blank.png,,,,,,,,,,,,,,,,,,,,,,,,,,,,,"[""ham.png""]","[""tomato.png""]",PB18.png,,,,,,,,,,,0,6,"[""tomato.png""]","[""tomato.png""]","[""tomato.png""]","[""tomato.png""]","[""tomato.png""]","[""tomato.png""]",blank.png,PB18.png,PB01.png,"[""tomato.png""]","[""tomato.png""]","[""tomato.png""]","[""tomato.png""]","[""tomato.png""]","[""tomato.png""]",blank.png,blank.png,blank.png,blank.png,blank.png,blank.png,1,"[""ham.png""]",blank.png,blank.png,blank.png,0,blank.png,blank.png,blank.png,blank.png,blank.png,blank.png,PB01.png,,,,,,,,,,,1,,,,,,,,,,,,,3730.9199999999837,,response,,,,,,,,,,,,,4,,,,,,,,,,,,,,,,,,,,,,,,,,,,,,,,,,,,,,,,,,,,,,,,,,,,,,,,,"[""tomato.png""]","[""ham.png""]",,,,3,left,keydown(ArrowLeft),false,,1,,,,,,,463787,463778,459713.74,460045,460047.08,463813.46,,1,,
square,canvas.Screen,2_4_3_6_1_0_0_0_0_0_3,2021-05-24T16:00:16.502Z,,,blank.png,blank.png,blank.png,blank.png,blank.png,blank.png,blank.png,"[""ham.png""]",blank.png,blank.png,blank.png,blank.png,blank.png,,,,,,,,,,,,,,,,,,,,,,,,,,,,,"[""ham.png""]","[""tomato.png""]",PB18.png,,,,,,,,,,,0,6,"[""tomato.png""]","[""tomato.png""]","[""tomato.png""]","[""tomato.png""]","[""tomato.png""]","[""tomato.png""]",blank.png,PB18.png,PB01.png,"[""tomato.png""]","[""tomato.png""]","[""tomato.png""]","[""tomato.png""]","[""tomato.png""]","[""tomato.png""]",blank.png,blank.png,blank.png,blank.png,blank.png,blank.png,1,"[""ham.png""]",blank.png,blank.png,blank.png,0,blank.png,blank.png,blank.png,blank.png,blank.png,blank.png,PB01.png,,,,,,,,,,,1,,,#33ff3f,#808080,,,,,,,,,999.9199999999837,,timeout,,,,,,,,,,,,,4,,,,,,,,,,,,,,,,,,,,,,,,,,,,,,,,,,,,,,,,,,,,,,,,,,,,,,,,,"[""tomato.png""]","[""ham.png""]",,,,3,,,false,,1,,,,,black,white,464798,464796.78,463797.82,463798,463813.46,464813.38,,,,
ITI_late,canvas.Screen,2_4_3_6_1_0_0_0_0_0_4,2021-05-24T16:00:17.751Z,,,blank.png,blank.png,blank.png,blank.png,blank.png,blank.png,blank.png,"[""ham.png""]",blank.png,blank.png,blank.png,blank.png,blank.png,,,,,,,,,,,,,,,,,,,,,,,,,,,,,"[""ham.png""]","[""tomato.png""]",PB18.png,,,,,,,,,,,0,6,"[""tomato.png""]","[""tomato.png""]","[""tomato.png""]","[""tomato.png""]","[""tomato.png""]","[""tomato.png""]",blank.png,PB18.png,PB01.png,"[""tomato.png""]","[""tomato.png""]","[""tomato.png""]","[""tomato.png""]","[""tomato.png""]","[""tomato.png""]",blank.png,blank.png,blank.png,blank.png,blank.png,blank.png,1,"[""ham.png""]",blank.png,blank.png,blank.png,0,blank.png,blank.png,blank.png,blank.png,blank.png,blank.png,PB01.png,,,,,,,,,,,1,,,,,,,,,,,,,1249.9799999999814,,timeout,,,,,,,,,,,,white,4,,,,,,,,,,,,,,,,,,,,,,,,,,,,,,,,,,,,,,,,,,,,,,,,,,,,,,,,,"[""tomato.png""]","[""ham.png""]",,,,3,,,false,,1,,,,,,,466047,466046.7,464796.78,464799,464813.38,466063.36,,,,
choice_sequence,flow.Sequence,2_4_3_6_1_0_0_0_0_0,2021-05-24T16:00:17.751Z,,,blank.png,blank.png,blank.png,blank.png,blank.png,blank.png,blank.png,"[""ham.png""]",blank.png,blank.png,blank.png,blank.png,blank.png,,,,,,,,,,,,,,,,,,,,,,,,,,,,,"[""ham.png""]","[""tomato.png""]",PB18.png,,,,,,,,,,,0,6,"[""tomato.png""]","[""tomato.png""]","[""tomato.png""]","[""tomato.png""]","[""tomato.png""]","[""tomato.png""]",blank.png,PB18.png,PB01.png,"[""tomato.png""]","[""tomato.png""]","[""tomato.png""]","[""tomato.png""]","[""tomato.png""]","[""tomato.png""]",blank.png,blank.png,blank.png,blank.png,blank.png,blank.png,1,"[""ham.png""]",blank.png,blank.png,blank.png,0,blank.png,blank.png,blank.png,blank.png,blank.png,blank.png,PB01.png,,,,,,,,,,,1,,,,,,,,,,,,,7832.859999999986,,completion,,,,,,,,,,,,,4,,,,,,,,,,,,,,,,,,,,,,,,,,,,,,,,,,,,,,,,,,,,,,,,,,,,,,,,,"[""tomato.png""]","[""ham.png""]",,,,3,,,false,,1,,,,,,,466048,466046.7,458180.5,458226,458213.84,466063.36,,,,
fixCross,canvas.Screen,2_4_3_6_1_0_0_0_0_1_0,2021-05-24T16:00:18.001Z,,,blank.png,blank.png,blank.png,blank.png,blank.png,blank.png,blank.png,"[""ham.png""]",blank.png,blank.png,blank.png,blank.png,blank.png,,,,,,,,,,,,,,,,,,,,,,,,,,,,,"[""ham.png""]","[""tomato.png""]",PB18.png,,,,,,,,,,,0,6,"[""tomato.png""]","[""tomato.png""]","[""tomato.png""]","[""tomato.png""]","[""tomato.png""]","[""tomato.png""]",blank.png,PB18.png,PB15.png,"[""tomato.png""]","[""tomato.png""]","[""tomato.png""]","[""tomato.png""]","[""tomato.png""]","[""tomato.png""]","[""tomato.png""]","[""tomato.png""]","[""tomato.png""]","[""tomato.png""]",blank.png,blank.png,1,"[""ham.png""]",blank.png,blank.png,blank.png,4,"[""tomato.png""]","[""tomato.png""]","[""tomato.png""]","[""tomato.png""]",blank.png,blank.png,PB15.png,,,,,,,,,,,1,,,,,,,,,,,,,406.70000000001164,,timeout,,,,,,,,,,,,,4,,,,,,,,,,,,,,,,,,,,,,,,,,,,,,,,,,,,,,,,,,,,,,,,,,,,,,,,,"[""tomato.png""]","[""ham.png""]",,,,3,,,false,,1,,,,,,,466297,466296.68,466046.7,466053,466063.36,466470.06,2,,,
timeout,canvas.Screen,2_4_3_6_1_0_0_0_0_1_1,2021-05-24T16:00:18.651Z,,,blank.png,blank.png,blank.png,blank.png,blank.png,blank.png,blank.png,"[""ham.png""]",blank.png,blank.png,blank.png,blank.png,blank.png,,,,,,,,,,,,,,,,,,,,,,,,,,,,,"[""ham.png""]","[""tomato.png""]",PB18.png,,,,,,,,,,,0,6,"[""tomato.png""]","[""tomato.png""]","[""tomato.png""]","[""tomato.png""]","[""tomato.png""]","[""tomato.png""]",blank.png,PB18.png,PB15.png,"[""tomato.png""]","[""tomato.png""]","[""tomato.png""]","[""tomato.png""]","[""tomato.png""]","[""tomato.png""]","[""tomato.png""]","[""tomato.png""]","[""tomato.png""]","[""tomato.png""]",blank.png,blank.png,1,"[""ham.png""]",blank.png,blank.png,blank.png,4,"[""tomato.png""]","[""tomato.png""]","[""tomato.png""]","[""tomato.png""]",blank.png,blank.png,PB15.png,,,,,,,,,,,1,,,,,,,,,,,,,493.2399999999907,,timeout,,,,,,,,,,,,,4,,,,,,,,,,,,,,,,,,,,,,,,,,,,,,,,,,,,,,,,,,,,,,,,,,,,,,,,,"[""tomato.png""]","[""ham.png""]",,,,3,,,false,,1,,,,,,,466947,466946.64,466296.68,466469,466470.06,466963.3,,,,
choice,canvas.Screen,2_4_3_6_1_0_0_0_0_1_2,2021-05-24T16:00:23.290Z,,,blank.png,blank.png,blank.png,blank.png,blank.png,blank.png,blank.png,"[""ham.png""]",blank.png,blank.png,blank.png,blank.png,blank.png,,,,,,,,,,,,,,,,,,,,,,,,,,,,,"[""ham.png""]","[""tomato.png""]",PB18.png,,,,,,,,,,,0,6,"[""tomato.png""]","[""tomato.png""]","[""tomato.png""]","[""tomato.png""]","[""tomato.png""]","[""tomato.png""]",blank.png,PB18.png,PB15.png,"[""tomato.png""]","[""tomato.png""]","[""tomato.png""]","[""tomato.png""]","[""tomato.png""]","[""tomato.png""]","[""tomato.png""]","[""tomato.png""]","[""tomato.png""]","[""tomato.png""]",blank.png,blank.png,1,"[""ham.png""]",blank.png,blank.png,blank.png,4,"[""tomato.png""]","[""tomato.png""]","[""tomato.png""]","[""tomato.png""]",blank.png,blank.png,PB15.png,,,,,,,,,,,1,,,,,,,,,,,,,4611.700000000012,,response,,,,,,,,,,,,,4,,,,,,,,,,,,,,,,,,,,,,,,,,,,,,,,,,,,,,,,,,,,,,,,,,,,,,,,,"[""tomato.png""]","[""ham.png""]",,,,3,right,keydown(ArrowRight),false,,1,,,,,,,471586,471575,466946.64,466958,466963.3,471596.38,,2,,
square,canvas.Screen,2_4_3_6_1_0_0_0_0_1_3,2021-05-24T16:00:24.284Z,,,blank.png,blank.png,blank.png,blank.png,blank.png,blank.png,blank.png,"[""ham.png""]",blank.png,blank.png,blank.png,blank.png,blank.png,,,,,,,,,,,,,,,,,,,,,,,,,,,,,"[""ham.png""]","[""tomato.png""]",PB18.png,,,,,,,,,,,0,6,"[""tomato.png""]","[""tomato.png""]","[""tomato.png""]","[""tomato.png""]","[""tomato.png""]","[""tomato.png""]",blank.png,PB18.png,PB15.png,"[""tomato.png""]","[""tomato.png""]","[""tomato.png""]","[""tomato.png""]","[""tomato.png""]","[""tomato.png""]","[""tomato.png""]","[""tomato.png""]","[""tomato.png""]","[""tomato.png""]",blank.png,blank.png,1,"[""ham.png""]",blank.png,blank.png,blank.png,4,"[""tomato.png""]","[""tomato.png""]","[""tomato.png""]","[""tomato.png""]",blank.png,blank.png,PB15.png,,,,,,,,,,,1,,,#808080,#33ff3f,,,,,,,,,999.9199999999837,,timeout,,,,,,,,,,,,,4,,,,,,,,,,,,,,,,,,,,,,,,,,,,,,,,,,,,,,,,,,,,,,,,,,,,,,,,,"[""tomato.png""]","[""ham.png""]",,,,3,,,false,,1,,,,,white,black,472580,472579.64,471594.9,471595,471596.38,472596.3,,,,
ITI_late,canvas.Screen,2_4_3_6_1_0_0_0_0_1_4,2021-05-24T16:00:24.534Z,,,blank.png,blank.png,blank.png,blank.png,blank.png,blank.png,blank.png,"[""ham.png""]",blank.png,blank.png,blank.png,blank.png,blank.png,,,,,,,,,,,,,,,,,,,,,,,,,,,,,"[""ham.png""]","[""tomato.png""]",PB18.png,,,,,,,,,,,0,6,"[""tomato.png""]","[""tomato.png""]","[""tomato.png""]","[""tomato.png""]","[""tomato.png""]","[""tomato.png""]",blank.png,PB18.png,PB15.png,"[""tomato.png""]","[""tomato.png""]","[""tomato.png""]","[""tomato.png""]","[""tomato.png""]","[""tomato.png""]","[""tomato.png""]","[""tomato.png""]","[""tomato.png""]","[""tomato.png""]",blank.png,blank.png,1,"[""ham.png""]",blank.png,blank.png,blank.png,4,"[""tomato.png""]","[""tomato.png""]","[""tomato.png""]","[""tomato.png""]",blank.png,blank.png,PB15.png,,,,,,,,,,,1,,,,,,,,,,,,,250,,timeout,,,,,,,,,,,,white,4,,,,,,,,,,,,,,,,,,,,,,,,,,,,,,,,,,,,,,,,,,,,,,,,,,,,,,,,,"[""tomato.png""]","[""ham.png""]",,,,3,,,false,,1,,,,,,,472830,472829.62,472579.64,472582,472596.3,472846.3,,,,
choice_sequence,flow.Sequence,2_4_3_6_1_0_0_0_0_1,2021-05-24T16:00:24.535Z,,,blank.png,blank.png,blank.png,blank.png,blank.png,blank.png,blank.png,"[""ham.png""]",blank.png,blank.png,blank.png,blank.png,blank.png,,,,,,,,,,,,,,,,,,,,,,,,,,,,,"[""ham.png""]","[""tomato.png""]",PB18.png,,,,,,,,,,,0,6,"[""tomato.png""]","[""tomato.png""]","[""tomato.png""]","[""tomato.png""]","[""tomato.png""]","[""tomato.png""]",blank.png,PB18.png,PB15.png,"[""tomato.png""]","[""tomato.png""]","[""tomato.png""]","[""tomato.png""]","[""tomato.png""]","[""tomato.png""]","[""tomato.png""]","[""tomato.png""]","[""tomato.png""]","[""tomato.png""]",blank.png,blank.png,1,"[""ham.png""]",blank.png,blank.png,blank.png,4,"[""tomato.png""]","[""tomato.png""]","[""tomato.png""]","[""tomato.png""]",blank.png,blank.png,PB15.png,,,,,,,,,,,1,,,,,,,,,,,,,6766.260000000009,,completion,,,,,,,,,,,,,4,,,,,,,,,,,,,,,,,,,,,,,,,,,,,,,,,,,,,,,,,,,,,,,,,,,,,,,,,"[""tomato.png""]","[""ham.png""]",,,,3,,,false,,1,,,,,,,472831,472829.62,466046.7,466052,466063.36,472846.3,,,,
fixCross,canvas.Screen,2_4_3_6_1_0_0_0_0_2_0,2021-05-24T16:00:24.934Z,,,blank.png,blank.png,blank.png,blank.png,blank.png,blank.png,blank.png,"[""ham.png""]",blank.png,blank.png,blank.png,blank.png,blank.png,,,,,,,,,,,,,,,,,,,,,,,,,,,,,"[""ham.png""]","[""tomato.png""]",PB18.png,,,,,,,,,,,0,6,"[""tomato.png""]","[""tomato.png""]","[""tomato.png""]","[""tomato.png""]","[""tomato.png""]","[""tomato.png""]",blank.png,PB18.png,PB07.png,"[""tomato.png""]","[""tomato.png""]","[""tomato.png""]","[""tomato.png""]","[""tomato.png""]","[""tomato.png""]","[""tomato.png""]",blank.png,blank.png,blank.png,blank.png,blank.png,1,"[""ham.png""]",blank.png,blank.png,blank.png,1,"[""tomato.png""]",blank.png,blank.png,blank.png,blank.png,blank.png,PB07.png,,,,,,,,,,,1,,,,,,,,,,,,,733.320000000007,,timeout,,,,,,,,,,,,,4,,,,,,,,,,,,,,,,,,,,,,,,,,,,,,,,,,,,,,,,,,,,,,,,,,,,,,,,,"[""tomato.png""]","[""ham.png""]",,,,3,,,false,,1,,,,,,,473230,473229.62,472829.62,472837,472846.3,473579.62,3,,,
timeout,canvas.Screen,2_4_3_6_1_0_0_0_0_2_1,2021-05-24T16:00:25.767Z,,,blank.png,blank.png,blank.png,blank.png,blank.png,blank.png,blank.png,"[""ham.png""]",blank.png,blank.png,blank.png,blank.png,blank.png,,,,,,,,,,,,,,,,,,,,,,,,,,,,,"[""ham.png""]","[""tomato.png""]",PB18.png,,,,,,,,,,,0,6,"[""tomato.png""]","[""tomato.png""]","[""tomato.png""]","[""tomato.png""]","[""tomato.png""]","[""tomato.png""]",blank.png,PB18.png,PB07.png,"[""tomato.png""]","[""tomato.png""]","[""tomato.png""]","[""tomato.png""]","[""tomato.png""]","[""tomato.png""]","[""tomato.png""]",blank.png,blank.png,blank.png,blank.png,blank.png,1,"[""ham.png""]",blank.png,blank.png,blank.png,1,"[""tomato.png""]",blank.png,blank.png,blank.png,blank.png,blank.png,PB07.png,,,,,,,,,,,1,,,,,,,,,,,,,499.9400000000023,,timeout,,,,,,,,,,,,,4,,,,,,,,,,,,,,,,,,,,,,,,,,,,,,,,,,,,,,,,,,,,,,,,,,,,,,,,,"[""tomato.png""]","[""ham.png""]",,,,3,,,false,,1,,,,,,,474064,474062.88,473229.62,473578,473579.62,474079.56,,,,
choice,canvas.Screen,2_4_3_6_1_0_0_0_0_2_2,2021-05-24T16:00:28.770Z,,,blank.png,blank.png,blank.png,blank.png,blank.png,blank.png,blank.png,"[""ham.png""]",blank.png,blank.png,blank.png,blank.png,blank.png,,,,,,,,,,,,,,,,,,,,,,,,,,,,,"[""ham.png""]","[""tomato.png""]",PB18.png,,,,,,,,,,,0,6,"[""tomato.png""]","[""tomato.png""]","[""tomato.png""]","[""tomato.png""]","[""tomato.png""]","[""tomato.png""]",blank.png,PB18.png,PB07.png,"[""tomato.png""]","[""tomato.png""]","[""tomato.png""]","[""tomato.png""]","[""tomato.png""]","[""tomato.png""]","[""tomato.png""]",blank.png,blank.png,blank.png,blank.png,blank.png,1,"[""ham.png""]",blank.png,blank.png,blank.png,1,"[""tomato.png""]",blank.png,blank.png,blank.png,blank.png,blank.png,PB07.png,,,,,,,,,,,1,,,,,,,,,,,,,2979.4400000000023,,response,,,,,,,,,,,,,4,,,,,,,,,,,,,,,,,,,,,,,,,,,,,,,,,,,,,,,,,,,,,,,,,,,,,,,,,"[""tomato.png""]","[""ham.png""]",,,,3,left,keydown(ArrowLeft),false,,1,,,,,,,477065,477059,474062.88,474072,474079.56,477079.4,,3,,
square,canvas.Screen,2_4_3_6_1_0_0_0_0_2_3,2021-05-24T16:00:29.767Z,,,blank.png,blank.png,blank.png,blank.png,blank.png,blank.png,blank.png,"[""ham.png""]",blank.png,blank.png,blank.png,blank.png,blank.png,,,,,,,,,,,,,,,,,,,,,,,,,,,,,"[""ham.png""]","[""tomato.png""]",PB18.png,,,,,,,,,,,0,6,"[""tomato.png""]","[""tomato.png""]","[""tomato.png""]","[""tomato.png""]","[""tomato.png""]","[""tomato.png""]",blank.png,PB18.png,PB07.png,"[""tomato.png""]","[""tomato.png""]","[""tomato.png""]","[""tomato.png""]","[""tomato.png""]","[""tomato.png""]","[""tomato.png""]",blank.png,blank.png,blank.png,blank.png,blank.png,1,"[""ham.png""]",blank.png,blank.png,blank.png,1,"[""tomato.png""]",blank.png,blank.png,blank.png,blank.png,blank.png,PB07.png,,,,,,,,,,,1,,,#33ff3f,#808080,,,,,,,,,999.8999999999651,,timeout,,,,,,,,,,,,,4,,,,,,,,,,,,,,,,,,,,,,,,,,,,,,,,,,,,,,,,,,,,,,,,,,,,,,,,,"[""tomato.png""]","[""ham.png""]",,,,3,,,false,,1,,,,,black,white,478063,478062.66,477074.98,477074,477079.4,478079.3,,,,
ITI_late,canvas.Screen,2_4_3_6_1_0_0_0_0_2_4,2021-05-24T16:00:30.517Z,,,blank.png,blank.png,blank.png,blank.png,blank.png,blank.png,blank.png,"[""ham.png""]",blank.png,blank.png,blank.png,blank.png,blank.png,,,,,,,,,,,,,,,,,,,,,,,,,,,,,"[""ham.png""]","[""tomato.png""]",PB18.png,,,,,,,,,,,0,6,"[""tomato.png""]","[""tomato.png""]","[""tomato.png""]","[""tomato.png""]","[""tomato.png""]","[""tomato.png""]",blank.png,PB18.png,PB07.png,"[""tomato.png""]","[""tomato.png""]","[""tomato.png""]","[""tomato.png""]","[""tomato.png""]","[""tomato.png""]","[""tomato.png""]",blank.png,blank.png,blank.png,blank.png,blank.png,1,"[""ham.png""]",blank.png,blank.png,blank.png,1,"[""tomato.png""]",blank.png,blank.png,blank.png,blank.png,blank.png,PB07.png,,,,,,,,,,,1,,,,,,,,,,,,,749.960000000021,,timeout,,,,,,,,,,,,white,4,,,,,,,,,,,,,,,,,,,,,,,,,,,,,,,,,,,,,,,,,,,,,,,,,,,,,,,,,"[""tomato.png""]","[""ham.png""]",,,,3,,,false,,1,,,,,,,478814,478812.6,478062.66,478066,478079.3,478829.26,,,,
choice_sequence,flow.Sequence,2_4_3_6_1_0_0_0_0_2,2021-05-24T16:00:30.518Z,,,blank.png,blank.png,blank.png,blank.png,blank.png,blank.png,blank.png,"[""ham.png""]",blank.png,blank.png,blank.png,blank.png,blank.png,,,,,,,,,,,,,,,,,,,,,,,,,,,,,"[""ham.png""]","[""tomato.png""]",PB18.png,,,,,,,,,,,0,6,"[""tomato.png""]","[""tomato.png""]","[""tomato.png""]","[""tomato.png""]","[""tomato.png""]","[""tomato.png""]",blank.png,PB18.png,PB07.png,"[""tomato.png""]","[""tomato.png""]","[""tomato.png""]","[""tomato.png""]","[""tomato.png""]","[""tomato.png""]","[""tomato.png""]",blank.png,blank.png,blank.png,blank.png,blank.png,1,"[""ham.png""]",blank.png,blank.png,blank.png,1,"[""tomato.png""]",blank.png,blank.png,blank.png,blank.png,blank.png,PB07.png,,,,,,,,,,,1,,,,,,,,,,,,,5966.299999999988,,completion,,,,,,,,,,,,,4,,,,,,,,,,,,,,,,,,,,,,,,,,,,,,,,,,,,,,,,,,,,,,,,,,,,,,,,,"[""tomato.png""]","[""ham.png""]",,,,3,,,false,,1,,,,,,,478814,478812.6,472829.62,472836,472846.3,478829.26,,,,
fixCross,canvas.Screen,2_4_3_6_1_0_0_0_0_3_0,2021-05-24T16:00:30.867Z,,,blank.png,"[""ham.png""]",blank.png,blank.png,blank.png,blank.png,blank.png,blank.png,blank.png,blank.png,blank.png,blank.png,blank.png,,,,,,,,,,,,,,,,,,,,,,,,,,,,,"[""ham.png""]","[""tomato.png""]",PB16.png,,,,,,,,,,,0,6,"[""tomato.png""]","[""tomato.png""]","[""tomato.png""]","[""tomato.png""]","[""tomato.png""]","[""tomato.png""]",blank.png,PB18.png,PB18.png,"[""tomato.png""]","[""tomato.png""]","[""tomato.png""]","[""tomato.png""]","[""tomato.png""]",blank.png,"[""tomato.png""]","[""tomato.png""]","[""tomato.png""]","[""tomato.png""]","[""tomato.png""]","[""tomato.png""]",1,"[""ham.png""]",blank.png,blank.png,blank.png,5,"[""tomato.png""]","[""tomato.png""]","[""tomato.png""]","[""tomato.png""]","[""tomato.png""]",blank.png,PB16.png,,,,,,,,,,,1,,,,,,,,,,,,,505.3999999999651,,timeout,,,,,,,,,,,,,3,,,,,,,,,,,,,,,,,,,,,,,,,,,,,,,,,,,,,,,,,,,,,,,,,,,,,,,,,"[""tomato.png""]","[""ham.png""]",,,,3,,,false,,1,,,,,,,479163,479162.6,478812.6,478820,478829.26,479334.66,4,,,
timeout,canvas.Screen,2_4_3_6_1_0_0_0_0_3_1,2021-05-24T16:00:31.517Z,,,blank.png,"[""ham.png""]",blank.png,blank.png,blank.png,blank.png,blank.png,blank.png,blank.png,blank.png,blank.png,blank.png,blank.png,,,,,,,,,,,,,,,,,,,,,,,,,,,,,"[""ham.png""]","[""tomato.png""]",PB16.png,,,,,,,,,,,0,6,"[""tomato.png""]","[""tomato.png""]","[""tomato.png""]","[""tomato.png""]","[""tomato.png""]","[""tomato.png""]",blank.png,PB18.png,PB18.png,"[""tomato.png""]","[""tomato.png""]","[""tomato.png""]","[""tomato.png""]","[""tomato.png""]",blank.png,"[""tomato.png""]","[""tomato.png""]","[""tomato.png""]","[""tomato.png""]","[""tomato.png""]","[""tomato.png""]",1,"[""ham.png""]",blank.png,blank.png,blank.png,5,"[""tomato.png""]","[""tomato.png""]","[""tomato.png""]","[""tomato.png""]","[""tomato.png""]",blank.png,PB16.png,,,,,,,,,,,1,,,,,,,,,,,,,494.5599999999977,,timeout,,,,,,,,,,,,,3,,,,,,,,,,,,,,,,,,,,,,,,,,,,,,,,,,,,,,,,,,,,,,,,,,,,,,,,,"[""tomato.png""]","[""ham.png""]",,,,3,,,false,,1,,,,,,,479813,479812.56,479162.6,479335,479334.66,479829.22,,,,
choice,canvas.Screen,2_4_3_6_1_0_0_0_0_3_2,2021-05-24T16:00:35.538Z,,,blank.png,"[""ham.png""]",blank.png,blank.png,blank.png,blank.png,blank.png,blank.png,blank.png,blank.png,blank.png,blank.png,blank.png,,,,,,,,,,,,,,,,,,,,,,,,,,,,,"[""ham.png""]","[""tomato.png""]",PB16.png,,,,,,,,,,,0,6,"[""tomato.png""]","[""tomato.png""]","[""tomato.png""]","[""tomato.png""]","[""tomato.png""]","[""tomato.png""]",blank.png,PB18.png,PB18.png,"[""tomato.png""]","[""tomato.png""]","[""tomato.png""]","[""tomato.png""]","[""tomato.png""]",blank.png,"[""tomato.png""]","[""tomato.png""]","[""tomato.png""]","[""tomato.png""]","[""tomato.png""]","[""tomato.png""]",1,"[""ham.png""]",blank.png,blank.png,blank.png,5,"[""tomato.png""]","[""tomato.png""]","[""tomato.png""]","[""tomato.png""]","[""tomato.png""]",blank.png,PB16.png,,,,,,,,,,,1,,,,,,,,,,,,,3995.780000000028,,response,,,,,,,,,,,,,3,,,,,,,,,,,,,,,,,,,,,,,,,,,,,,,,,,,,,,,,,,,,,,,,,,,,,,,,,"[""tomato.png""]","[""ham.png""]",,,,3,left,keydown(ArrowLeft),false,,1,,,,,,,483833,483825,479812.56,479823,479829.22,483845.62,,4,,
square,canvas.Screen,2_4_3_6_1_0_0_0_0_3_3,2021-05-24T16:00:36.533Z,,,blank.png,"[""ham.png""]",blank.png,blank.png,blank.png,blank.png,blank.png,blank.png,blank.png,blank.png,blank.png,blank.png,blank.png,,,,,,,,,,,,,,,,,,,,,,,,,,,,,"[""ham.png""]","[""tomato.png""]",PB16.png,,,,,,,,,,,0,6,"[""tomato.png""]","[""tomato.png""]","[""tomato.png""]","[""tomato.png""]","[""tomato.png""]","[""tomato.png""]",blank.png,PB18.png,PB18.png,"[""tomato.png""]","[""tomato.png""]","[""tomato.png""]","[""tomato.png""]","[""tomato.png""]",blank.png,"[""tomato.png""]","[""tomato.png""]","[""tomato.png""]","[""tomato.png""]","[""tomato.png""]","[""tomato.png""]",1,"[""ham.png""]",blank.png,blank.png,blank.png,5,"[""tomato.png""]","[""tomato.png""]","[""tomato.png""]","[""tomato.png""]","[""tomato.png""]",blank.png,PB16.png,,,,,,,,,,,1,,,#33ff3f,#808080,,,,,,,,,999.9400000000023,,timeout,,,,,,,,,,,,,3,,,,,,,,,,,,,,,,,,,,,,,,,,,,,,,,,,,,,,,,,,,,,,,,,,,,,,,,,"[""tomato.png""]","[""ham.png""]",,,,3,,,false,,1,,,,,black,white,484829,484828.92,483840.84,483841,483845.62,484845.56,,,,
ITI_late,canvas.Screen,2_4_3_6_1_0_0_0_0_3_4,2021-05-24T16:00:37.783Z,,,blank.png,"[""ham.png""]",blank.png,blank.png,blank.png,blank.png,blank.png,blank.png,blank.png,blank.png,blank.png,blank.png,blank.png,,,,,,,,,,,,,,,,,,,,,,,,,,,,,"[""ham.png""]","[""tomato.png""]",PB16.png,,,,,,,,,,,0,6,"[""tomato.png""]","[""tomato.png""]","[""tomato.png""]","[""tomato.png""]","[""tomato.png""]","[""tomato.png""]",blank.png,PB18.png,PB18.png,"[""tomato.png""]","[""tomato.png""]","[""tomato.png""]","[""tomato.png""]","[""tomato.png""]",blank.png,"[""tomato.png""]","[""tomato.png""]","[""tomato.png""]","[""tomato.png""]","[""tomato.png""]","[""tomato.png""]",1,"[""ham.png""]",blank.png,blank.png,blank.png,5,"[""tomato.png""]","[""tomato.png""]","[""tomato.png""]","[""tomato.png""]","[""tomato.png""]",blank.png,PB16.png,,,,,,,,,,,1,,,,,,,,,,,,,1249.9400000000023,,timeout,,,,,,,,,,,,white,3,,,,,,,,,,,,,,,,,,,,,,,,,,,,,,,,,,,,,,,,,,,,,,,,,,,,,,,,,"[""tomato.png""]","[""ham.png""]",,,,3,,,false,,1,,,,,,,486080,486078.84,484828.92,484831,484845.56,486095.5,,,,
choice_sequence,flow.Sequence,2_4_3_6_1_0_0_0_0_3,2021-05-24T16:00:37.783Z,,,blank.png,"[""ham.png""]",blank.png,blank.png,blank.png,blank.png,blank.png,blank.png,blank.png,blank.png,blank.png,blank.png,blank.png,,,,,,,,,,,,,,,,,,,,,,,,,,,,,"[""ham.png""]","[""tomato.png""]",PB16.png,,,,,,,,,,,0,6,"[""tomato.png""]","[""tomato.png""]","[""tomato.png""]","[""tomato.png""]","[""tomato.png""]","[""tomato.png""]",blank.png,PB18.png,PB18.png,"[""tomato.png""]","[""tomato.png""]","[""tomato.png""]","[""tomato.png""]","[""tomato.png""]",blank.png,"[""tomato.png""]","[""tomato.png""]","[""tomato.png""]","[""tomato.png""]","[""tomato.png""]","[""tomato.png""]",1,"[""ham.png""]",blank.png,blank.png,blank.png,5,"[""tomato.png""]","[""tomato.png""]","[""tomato.png""]","[""tomato.png""]","[""tomato.png""]",blank.png,PB16.png,,,,,,,,,,,1,,,,,,,,,,,,,7249.580000000016,,completion,,,,,,,,,,,,,3,,,,,,,,,,,,,,,,,,,,,,,,,,,,,,,,,,,,,,,,,,,,,,,,,,,,,,,,,"[""tomato.png""]","[""ham.png""]",,,,3,,,false,,1,,,,,,,486080,486078.84,478812.6,478819,478829.26,486095.5,,,,
fixCross,canvas.Screen,2_4_3_6_1_0_0_0_0_4_0,2021-05-24T16:00:38.433Z,,,blank.png,"[""ham.png""]",blank.png,blank.png,blank.png,blank.png,blank.png,blank.png,blank.png,blank.png,blank.png,blank.png,blank.png,,,,,,,,,,,,,,,,,,,,,,,,,,,,,"[""ham.png""]","[""tomato.png""]",PB14.png,,,,,,,,,,,0,6,"[""tomato.png""]","[""tomato.png""]","[""tomato.png""]","[""tomato.png""]","[""tomato.png""]","[""tomato.png""]",blank.png,PB18.png,PB18.png,"[""tomato.png""]","[""tomato.png""]","[""tomato.png""]",blank.png,blank.png,blank.png,"[""tomato.png""]","[""tomato.png""]","[""tomato.png""]","[""tomato.png""]","[""tomato.png""]","[""tomato.png""]",1,"[""ham.png""]",blank.png,blank.png,blank.png,3,"[""tomato.png""]","[""tomato.png""]","[""tomato.png""]",blank.png,blank.png,blank.png,PB14.png,,,,,,,,,,,1,,,,,,,,,,,,,805.7199999999721,,timeout,,,,,,,,,,,,,3,,,,,,,,,,,,,,,,,,,,,,,,,,,,,,,,,,,,,,,,,,,,,,,,,,,,,,,,,"[""tomato.png""]","[""ham.png""]",,,,3,,,false,,1,,,,,,,486729,486728.8,486078.84,486085,486095.5,486901.22,5,,,
timeout,canvas.Screen,2_4_3_6_1_0_0_0_0_4_1,2021-05-24T16:00:39.083Z,,,blank.png,"[""ham.png""]",blank.png,blank.png,blank.png,blank.png,blank.png,blank.png,blank.png,blank.png,blank.png,blank.png,blank.png,,,,,,,,,,,,,,,,,,,,,,,,,,,,,"[""ham.png""]","[""tomato.png""]",PB14.png,,,,,,,,,,,0,6,"[""tomato.png""]","[""tomato.png""]","[""tomato.png""]","[""tomato.png""]","[""tomato.png""]","[""tomato.png""]",blank.png,PB18.png,PB18.png,"[""tomato.png""]","[""tomato.png""]","[""tomato.png""]",blank.png,blank.png,blank.png,"[""tomato.png""]","[""tomato.png""]","[""tomato.png""]","[""tomato.png""]","[""tomato.png""]","[""tomato.png""]",1,"[""ham.png""]",blank.png,blank.png,blank.png,3,"[""tomato.png""]","[""tomato.png""]","[""tomato.png""]",blank.png,blank.png,blank.png,PB14.png,,,,,,,,,,,1,,,,,,,,,,,,,494.1800000000512,,timeout,,,,,,,,,,,,,3,,,,,,,,,,,,,,,,,,,,,,,,,,,,,,,,,,,,,,,,,,,,,,,,,,,,,,,,,"[""tomato.png""]","[""ham.png""]",,,,3,,,false,,1,,,,,,,487379,487378.72,486728.8,486901,486901.22,487395.4,,,,
choice,canvas.Screen,2_4_3_6_1_0_0_0_0_4_2,2021-05-24T16:00:42.322Z,,,blank.png,"[""ham.png""]",blank.png,blank.png,blank.png,blank.png,blank.png,blank.png,blank.png,blank.png,blank.png,blank.png,blank.png,,,,,,,,,,,,,,,,,,,,,,,,,,,,,"[""ham.png""]","[""tomato.png""]",PB14.png,,,,,,,,,,,0,6,"[""tomato.png""]","[""tomato.png""]","[""tomato.png""]","[""tomato.png""]","[""tomato.png""]","[""tomato.png""]",blank.png,PB18.png,PB18.png,"[""tomato.png""]","[""tomato.png""]","[""tomato.png""]",blank.png,blank.png,blank.png,"[""tomato.png""]","[""tomato.png""]","[""tomato.png""]","[""tomato.png""]","[""tomato.png""]","[""tomato.png""]",1,"[""ham.png""]",blank.png,blank.png,blank.png,3,"[""tomato.png""]","[""tomato.png""]","[""tomato.png""]",blank.png,blank.png,blank.png,PB14.png,,,,,,,,,,,1,,,,,,,,,,,,,3210.5999999999767,,response,,,,,,,,,,,,,3,,,,,,,,,,,,,,,,,,,,,,,,,,,,,,,,,,,,,,,,,,,,,,,,,,,,,,,,,"[""tomato.png""]","[""ham.png""]",,,,3,left,keydown(ArrowLeft),false,,1,,,,,,,490618,490606,487378.72,487387,487395.4,490645.22,,5,,
square,canvas.Screen,2_4_3_6_1_0_0_0_0_4_3,2021-05-24T16:00:43.334Z,,,blank.png,"[""ham.png""]",blank.png,blank.png,blank.png,blank.png,blank.png,blank.png,blank.png,blank.png,blank.png,blank.png,blank.png,,,,,,,,,,,,,,,,,,,,,,,,,,,,,"[""ham.png""]","[""tomato.png""]",PB14.png,,,,,,,,,,,0,6,"[""tomato.png""]","[""tomato.png""]","[""tomato.png""]","[""tomato.png""]","[""tomato.png""]","[""tomato.png""]",blank.png,PB18.png,PB18.png,"[""tomato.png""]","[""tomato.png""]","[""tomato.png""]",blank.png,blank.png,blank.png,"[""tomato.png""]","[""tomato.png""]","[""tomato.png""]","[""tomato.png""]","[""tomato.png""]","[""tomato.png""]",1,"[""ham.png""]",blank.png,blank.png,blank.png,3,"[""tomato.png""]","[""tomato.png""]","[""tomato.png""]",blank.png,blank.png,blank.png,PB14.png,,,,,,,,,,,1,,,#33ff3f,#808080,,,,,,,,,999.9400000000023,,timeout,,,,,,,,,,,,,3,,,,,,,,,,,,,,,,,,,,,,,,,,,,,,,,,,,,,,,,,,,,,,,,,,,,,,,,,"[""tomato.png""]","[""ham.png""]",,,,3,,,false,,1,,,,,black,white,491629,491628.52,490629.18,490629,490645.22,491645.16,,,,
ITI_late,canvas.Screen,2_4_3_6_1_0_0_0_0_4_4,2021-05-24T16:00:43.833Z,,,blank.png,"[""ham.png""]",blank.png,blank.png,blank.png,blank.png,blank.png,blank.png,blank.png,blank.png,blank.png,blank.png,blank.png,,,,,,,,,,,,,,,,,,,,,,,,,,,,,"[""ham.png""]","[""tomato.png""]",PB14.png,,,,,,,,,,,0,6,"[""tomato.png""]","[""tomato.png""]","[""tomato.png""]","[""tomato.png""]","[""tomato.png""]","[""tomato.png""]",blank.png,PB18.png,PB18.png,"[""tomato.png""]","[""tomato.png""]","[""tomato.png""]",blank.png,blank.png,blank.png,"[""tomato.png""]","[""tomato.png""]","[""tomato.png""]","[""tomato.png""]","[""tomato.png""]","[""tomato.png""]",1,"[""ham.png""]",blank.png,blank.png,blank.png,3,"[""tomato.png""]","[""tomato.png""]","[""tomato.png""]",blank.png,blank.png,blank.png,PB14.png,,,,,,,,,,,1,,,,,,,,,,,,,499.9800000000396,,timeout,,,,,,,,,,,,white,3,,,,,,,,,,,,,,,,,,,,,,,,,,,,,,,,,,,,,,,,,,,,,,,,,,,,,,,,,"[""tomato.png""]","[""ham.png""]",,,,3,,,false,,1,,,,,,,492129,492128.48,491628.52,491631,491645.16,492145.14,,,,
choice_sequence,flow.Sequence,2_4_3_6_1_0_0_0_0_4,2021-05-24T16:00:43.833Z,,,blank.png,"[""ham.png""]",blank.png,blank.png,blank.png,blank.png,blank.png,blank.png,blank.png,blank.png,blank.png,blank.png,blank.png,,,,,,,,,,,,,,,,,,,,,,,,,,,,,"[""ham.png""]","[""tomato.png""]",PB14.png,,,,,,,,,,,0,6,"[""tomato.png""]","[""tomato.png""]","[""tomato.png""]","[""tomato.png""]","[""tomato.png""]","[""tomato.png""]",blank.png,PB18.png,PB18.png,"[""tomato.png""]","[""tomato.png""]","[""tomato.png""]",blank.png,blank.png,blank.png,"[""tomato.png""]","[""tomato.png""]","[""tomato.png""]","[""tomato.png""]","[""tomato.png""]","[""tomato.png""]",1,"[""ham.png""]",blank.png,blank.png,blank.png,3,"[""tomato.png""]","[""tomato.png""]","[""tomato.png""]",blank.png,blank.png,blank.png,PB14.png,,,,,,,,,,,1,,,,,,,,,,,,,6032.979999999981,,completion,,,,,,,,,,,,,3,,,,,,,,,,,,,,,,,,,,,,,,,,,,,,,,,,,,,,,,,,,,,,,,,,,,,,,,,"[""tomato.png""]","[""ham.png""]",,,,3,,,false,,1,,,,,,,492130,492128.48,486078.84,486084,486095.5,492145.14,,,,
fixCross,canvas.Screen,2_4_3_6_1_0_0_0_0_5_0,2021-05-24T16:00:44.333Z,,,blank.png,"[""ham.png""]",blank.png,blank.png,blank.png,blank.png,blank.png,blank.png,blank.png,blank.png,blank.png,blank.png,blank.png,,,,,,,,,,,,,,,,,,,,,,,,,,,,,"[""ham.png""]","[""tomato.png""]",PB12.png,,,,,,,,,,,0,6,"[""tomato.png""]","[""tomato.png""]","[""tomato.png""]","[""tomato.png""]","[""tomato.png""]","[""tomato.png""]",blank.png,PB18.png,PB18.png,"[""tomato.png""]","[""tomato.png""]",blank.png,blank.png,blank.png,blank.png,"[""tomato.png""]","[""tomato.png""]","[""tomato.png""]","[""tomato.png""]","[""tomato.png""]","[""tomato.png""]",1,"[""ham.png""]",blank.png,blank.png,blank.png,2,"[""tomato.png""]","[""tomato.png""]",blank.png,blank.png,blank.png,blank.png,PB12.png,,,,,,,,,,,1,,,,,,,,,,,,,653.7399999999907,,timeout,,,,,,,,,,,,,3,,,,,,,,,,,,,,,,,,,,,,,,,,,,,,,,,,,,,,,,,,,,,,,,,,,,,,,,,"[""tomato.png""]","[""ham.png""]",,,,3,,,false,,1,,,,,,,492629,492628.44,492128.48,492135,492145.14,492798.88,6,,,
timeout,canvas.Screen,2_4_3_6_1_0_0_0_0_5_1,2021-05-24T16:00:44.983Z,,,blank.png,"[""ham.png""]",blank.png,blank.png,blank.png,blank.png,blank.png,blank.png,blank.png,blank.png,blank.png,blank.png,blank.png,,,,,,,,,,,,,,,,,,,,,,,,,,,,,"[""ham.png""]","[""tomato.png""]",PB12.png,,,,,,,,,,,0,6,"[""tomato.png""]","[""tomato.png""]","[""tomato.png""]","[""tomato.png""]","[""tomato.png""]","[""tomato.png""]",blank.png,PB18.png,PB18.png,"[""tomato.png""]","[""tomato.png""]",blank.png,blank.png,blank.png,blank.png,"[""tomato.png""]","[""tomato.png""]","[""tomato.png""]","[""tomato.png""]","[""tomato.png""]","[""tomato.png""]",1,"[""ham.png""]",blank.png,blank.png,blank.png,2,"[""tomato.png""]","[""tomato.png""]",blank.png,blank.png,blank.png,blank.png,PB12.png,,,,,,,,,,,1,,,,,,,,,,,,,496.20000000001164,,timeout,,,,,,,,,,,,,3,,,,,,,,,,,,,,,,,,,,,,,,,,,,,,,,,,,,,,,,,,,,,,,,,,,,,,,,,"[""tomato.png""]","[""ham.png""]",,,,3,,,false,,1,,,,,,,493279,493278.42,492628.44,492799,492798.88,493295.08,,,,
choice,canvas.Screen,2_4_3_6_1_0_0_0_0_5_2,2021-05-24T16:00:48.722Z,,,blank.png,"[""ham.png""]",blank.png,blank.png,blank.png,blank.png,blank.png,blank.png,blank.png,blank.png,blank.png,blank.png,blank.png,,,,,,,,,,,,,,,,,,,,,,,,,,,,,"[""ham.png""]","[""tomato.png""]",PB12.png,,,,,,,,,,,0,6,"[""tomato.png""]","[""tomato.png""]","[""tomato.png""]","[""tomato.png""]","[""tomato.png""]","[""tomato.png""]",blank.png,PB18.png,PB18.png,"[""tomato.png""]","[""tomato.png""]",blank.png,blank.png,blank.png,blank.png,"[""tomato.png""]","[""tomato.png""]","[""tomato.png""]","[""tomato.png""]","[""tomato.png""]","[""tomato.png""]",1,"[""ham.png""]",blank.png,blank.png,blank.png,2,"[""tomato.png""]","[""tomato.png""]",blank.png,blank.png,blank.png,blank.png,PB12.png,,,,,,,,,,,1,,,,,,,,,,,,,3717.9199999999837,,response,,,,,,,,,,,,,3,,,,,,,,,,,,,,,,,,,,,,,,,,,,,,,,,,,,,,,,,,,,,,,,,,,,,,,,,"[""tomato.png""]","[""ham.png""]",,,,3,right,keydown(ArrowRight),false,,1,,,,,,,497018,497013,493278.42,493286,493295.08,497028.26,,6,,
square,canvas.Screen,2_4_3_6_1_0_0_0_0_5_3,2021-05-24T16:00:49.716Z,,,blank.png,"[""ham.png""]",blank.png,blank.png,blank.png,blank.png,blank.png,blank.png,blank.png,blank.png,blank.png,blank.png,blank.png,,,,,,,,,,,,,,,,,,,,,,,,,,,,,"[""ham.png""]","[""tomato.png""]",PB12.png,,,,,,,,,,,0,6,"[""tomato.png""]","[""tomato.png""]","[""tomato.png""]","[""tomato.png""]","[""tomato.png""]","[""tomato.png""]",blank.png,PB18.png,PB18.png,"[""tomato.png""]","[""tomato.png""]",blank.png,blank.png,blank.png,blank.png,"[""tomato.png""]","[""tomato.png""]","[""tomato.png""]","[""tomato.png""]","[""tomato.png""]","[""tomato.png""]",1,"[""ham.png""]",blank.png,blank.png,blank.png,2,"[""tomato.png""]","[""tomato.png""]",blank.png,blank.png,blank.png,blank.png,PB12.png,,,,,,,,,,,1,,,#808080,#33ff3f,,,,,,,,,999.8800000000047,,timeout,,,,,,,,,,,,,3,,,,,,,,,,,,,,,,,,,,,,,,,,,,,,,,,,,,,,,,,,,,,,,,,,,,,,,,,"[""tomato.png""]","[""ham.png""]",,,,3,,,false,,1,,,,,white,black,498011,498011.48,497024.88,497024,497028.26,498028.14,,,,
ITI_late,canvas.Screen,2_4_3_6_1_0_0_0_0_5_4,2021-05-24T16:00:50.216Z,,,blank.png,"[""ham.png""]",blank.png,blank.png,blank.png,blank.png,blank.png,blank.png,blank.png,blank.png,blank.png,blank.png,blank.png,,,,,,,,,,,,,,,,,,,,,,,,,,,,,"[""ham.png""]","[""tomato.png""]",PB12.png,,,,,,,,,,,0,6,"[""tomato.png""]","[""tomato.png""]","[""tomato.png""]","[""tomato.png""]","[""tomato.png""]","[""tomato.png""]",blank.png,PB18.png,PB18.png,"[""tomato.png""]","[""tomato.png""]",blank.png,blank.png,blank.png,blank.png,"[""tomato.png""]","[""tomato.png""]","[""tomato.png""]","[""tomato.png""]","[""tomato.png""]","[""tomato.png""]",1,"[""ham.png""]",blank.png,blank.png,blank.png,2,"[""tomato.png""]","[""tomato.png""]",blank.png,blank.png,blank.png,blank.png,PB12.png,,,,,,,,,,,1,,,,,,,,,,,,,499.95999999996275,,timeout,,,,,,,,,,,,white,3,,,,,,,,,,,,,,,,,,,,,,,,,,,,,,,,,,,,,,,,,,,,,,,,,,,,,,,,,"[""tomato.png""]","[""ham.png""]",,,,3,,,false,,1,,,,,,,498512,498511.44,498011.48,498013,498028.14,498528.1,,,,
choice_sequence,flow.Sequence,2_4_3_6_1_0_0_0_0_5,2021-05-24T16:00:50.216Z,,,blank.png,"[""ham.png""]",blank.png,blank.png,blank.png,blank.png,blank.png,blank.png,blank.png,blank.png,blank.png,blank.png,blank.png,,,,,,,,,,,,,,,,,,,,,,,,,,,,,"[""ham.png""]","[""tomato.png""]",PB12.png,,,,,,,,,,,0,6,"[""tomato.png""]","[""tomato.png""]","[""tomato.png""]","[""tomato.png""]","[""tomato.png""]","[""tomato.png""]",blank.png,PB18.png,PB18.png,"[""tomato.png""]","[""tomato.png""]",blank.png,blank.png,blank.png,blank.png,"[""tomato.png""]","[""tomato.png""]","[""tomato.png""]","[""tomato.png""]","[""tomato.png""]","[""tomato.png""]",1,"[""ham.png""]",blank.png,blank.png,blank.png,2,"[""tomato.png""]","[""tomato.png""]",blank.png,blank.png,blank.png,blank.png,PB12.png,,,,,,,,,,,1,,,,,,,,,,,,,6366.299999999988,,completion,,,,,,,,,,,,,3,,,,,,,,,,,,,,,,,,,,,,,,,,,,,,,,,,,,,,,,,,,,,,,,,,,,,,,,,"[""tomato.png""]","[""ham.png""]",,,,3,,,false,,1,,,,,,,498512,498511.44,492128.48,492134,492145.14,498528.1,,,,
fixCross,canvas.Screen,2_4_3_6_1_0_0_0_0_6_0,2021-05-24T16:00:50.866Z,,,blank.png,"[""ham.png""]",blank.png,blank.png,blank.png,blank.png,blank.png,blank.png,blank.png,blank.png,blank.png,blank.png,blank.png,,,,,,,,,,,,,,,,,,,,,,,,,,,,,"[""ham.png""]","[""tomato.png""]",PB17.png,,,,,,,,,,,0,6,"[""tomato.png""]","[""tomato.png""]","[""tomato.png""]","[""tomato.png""]","[""tomato.png""]","[""tomato.png""]",blank.png,PB18.png,PB18.png,"[""tomato.png""]","[""tomato.png""]","[""tomato.png""]","[""tomato.png""]","[""tomato.png""]","[""tomato.png""]","[""tomato.png""]","[""tomato.png""]","[""tomato.png""]","[""tomato.png""]","[""tomato.png""]","[""tomato.png""]",1,"[""ham.png""]",blank.png,blank.png,blank.png,6,"[""tomato.png""]","[""tomato.png""]","[""tomato.png""]","[""tomato.png""]","[""tomato.png""]","[""tomato.png""]",PB17.png,,,,,,,,,,,1,,,,,,,,,,,,,804.9000000000233,,timeout,,,,,,,,,,,,,3,,,,,,,,,,,,,,,,,,,,,,,,,,,,,,,,,,,,,,,,,,,,,,,,,,,,,,,,,"[""tomato.png""]","[""ham.png""]",,,,3,,,false,,1,,,,,,,499162,499161.4,498511.44,498516,498528.1,499333,7,,,
timeout,canvas.Screen,2_4_3_6_1_0_0_0_0_6_1,2021-05-24T16:00:51.516Z,,,blank.png,"[""ham.png""]",blank.png,blank.png,blank.png,blank.png,blank.png,blank.png,blank.png,blank.png,blank.png,blank.png,blank.png,,,,,,,,,,,,,,,,,,,,,,,,,,,,,"[""ham.png""]","[""tomato.png""]",PB17.png,,,,,,,,,,,0,6,"[""tomato.png""]","[""tomato.png""]","[""tomato.png""]","[""tomato.png""]","[""tomato.png""]","[""tomato.png""]",blank.png,PB18.png,PB18.png,"[""tomato.png""]","[""tomato.png""]","[""tomato.png""]","[""tomato.png""]","[""tomato.png""]","[""tomato.png""]","[""tomato.png""]","[""tomato.png""]","[""tomato.png""]","[""tomato.png""]","[""tomato.png""]","[""tomato.png""]",1,"[""ham.png""]",blank.png,blank.png,blank.png,6,"[""tomato.png""]","[""tomato.png""]","[""tomato.png""]","[""tomato.png""]","[""tomato.png""]","[""tomato.png""]",PB17.png,,,,,,,,,,,1,,,,,,,,,,,,,495.03999999997905,,timeout,,,,,,,,,,,,,3,,,,,,,,,,,,,,,,,,,,,,,,,,,,,,,,,,,,,,,,,,,,,,,,,,,,,,,,,"[""tomato.png""]","[""ham.png""]",,,,3,,,false,,1,,,,,,,499812,499811.38,499161.4,499333,499333,499828.04,,,,
choice,canvas.Screen,2_4_3_6_1_0_0_0_0_6_2,2021-05-24T16:00:53.866Z,,,blank.png,"[""ham.png""]",blank.png,blank.png,blank.png,blank.png,blank.png,blank.png,blank.png,blank.png,blank.png,blank.png,blank.png,,,,,,,,,,,,,,,,,,,,,,,,,,,,,"[""ham.png""]","[""tomato.png""]",PB17.png,,,,,,,,,,,0,6,"[""tomato.png""]","[""tomato.png""]","[""tomato.png""]","[""tomato.png""]","[""tomato.png""]","[""tomato.png""]",blank.png,PB18.png,PB18.png,"[""tomato.png""]","[""tomato.png""]","[""tomato.png""]","[""tomato.png""]","[""tomato.png""]","[""tomato.png""]","[""tomato.png""]","[""tomato.png""]","[""tomato.png""]","[""tomato.png""]","[""tomato.png""]","[""tomato.png""]",1,"[""ham.png""]",blank.png,blank.png,blank.png,6,"[""tomato.png""]","[""tomato.png""]","[""tomato.png""]","[""tomato.png""]","[""tomato.png""]","[""tomato.png""]",PB17.png,,,,,,,,,,,1,,,,,,,,,,,,,2324.960000000021,,response,,,,,,,,,,,,,3,,,,,,,,,,,,,,,,,,,,,,,,,,,,,,,,,,,,,,,,,,,,,,,,,,,,,,,,,"[""tomato.png""]","[""ham.png""]",,,,3,left,keydown(ArrowLeft),false,,1,,,,,,,502163,502153,499811.38,499818,499828.04,502177.84,,7,,
square,canvas.Screen,2_4_3_6_1_0_0_0_0_6_3,2021-05-24T16:00:54.866Z,,,blank.png,"[""ham.png""]",blank.png,blank.png,blank.png,blank.png,blank.png,blank.png,blank.png,blank.png,blank.png,blank.png,blank.png,,,,,,,,,,,,,,,,,,,,,,,,,,,,,"[""ham.png""]","[""tomato.png""]",PB17.png,,,,,,,,,,,0,6,"[""tomato.png""]","[""tomato.png""]","[""tomato.png""]","[""tomato.png""]","[""tomato.png""]","[""tomato.png""]",blank.png,PB18.png,PB18.png,"[""tomato.png""]","[""tomato.png""]","[""tomato.png""]","[""tomato.png""]","[""tomato.png""]","[""tomato.png""]","[""tomato.png""]","[""tomato.png""]","[""tomato.png""]","[""tomato.png""]","[""tomato.png""]","[""tomato.png""]",1,"[""ham.png""]",blank.png,blank.png,blank.png,6,"[""tomato.png""]","[""tomato.png""]","[""tomato.png""]","[""tomato.png""]","[""tomato.png""]","[""tomato.png""]",PB17.png,,,,,,,,,,,1,,,#33ff3f,#808080,,,,,,,,,999.9799999999814,,timeout,,,,,,,,,,,,,3,,,,,,,,,,,,,,,,,,,,,,,,,,,,,,,,,,,,,,,,,,,,,,,,,,,,,,,,,"[""tomato.png""]","[""ham.png""]",,,,3,,,false,,1,,,,,black,white,503162,503161.18,502171.22,502171,502177.84,503177.82,,,,
ITI_late,canvas.Screen,2_4_3_6_1_0_0_0_0_6_4,2021-05-24T16:00:56.116Z,,,blank.png,"[""ham.png""]",blank.png,blank.png,blank.png,blank.png,blank.png,blank.png,blank.png,blank.png,blank.png,blank.png,blank.png,,,,,,,,,,,,,,,,,,,,,,,,,,,,,"[""ham.png""]","[""tomato.png""]",PB17.png,,,,,,,,,,,0,6,"[""tomato.png""]","[""tomato.png""]","[""tomato.png""]","[""tomato.png""]","[""tomato.png""]","[""tomato.png""]",blank.png,PB18.png,PB18.png,"[""tomato.png""]","[""tomato.png""]","[""tomato.png""]","[""tomato.png""]","[""tomato.png""]","[""tomato.png""]","[""tomato.png""]","[""tomato.png""]","[""tomato.png""]","[""tomato.png""]","[""tomato.png""]","[""tomato.png""]",1,"[""ham.png""]",blank.png,blank.png,blank.png,6,"[""tomato.png""]","[""tomato.png""]","[""tomato.png""]","[""tomato.png""]","[""tomato.png""]","[""tomato.png""]",PB17.png,,,,,,,,,,,1,,,,,,,,,,,,,1249.9199999999837,,timeout,,,,,,,,,,,,white,3,,,,,,,,,,,,,,,,,,,,,,,,,,,,,,,,,,,,,,,,,,,,,,,,,,,,,,,,,"[""tomato.png""]","[""ham.png""]",,,,3,,,false,,1,,,,,,,504411,504411.08,503161.18,503164,503177.82,504427.74,,,,
choice_sequence,flow.Sequence,2_4_3_6_1_0_0_0_0_6,2021-05-24T16:00:56.116Z,,,blank.png,"[""ham.png""]",blank.png,blank.png,blank.png,blank.png,blank.png,blank.png,blank.png,blank.png,blank.png,blank.png,blank.png,,,,,,,,,,,,,,,,,,,,,,,,,,,,,"[""ham.png""]","[""tomato.png""]",PB17.png,,,,,,,,,,,0,6,"[""tomato.png""]","[""tomato.png""]","[""tomato.png""]","[""tomato.png""]","[""tomato.png""]","[""tomato.png""]",blank.png,PB18.png,PB18.png,"[""tomato.png""]","[""tomato.png""]","[""tomato.png""]","[""tomato.png""]","[""tomato.png""]","[""tomato.png""]","[""tomato.png""]","[""tomato.png""]","[""tomato.png""]","[""tomato.png""]","[""tomato.png""]","[""tomato.png""]",1,"[""ham.png""]",blank.png,blank.png,blank.png,6,"[""tomato.png""]","[""tomato.png""]","[""tomato.png""]","[""tomato.png""]","[""tomato.png""]","[""tomato.png""]",PB17.png,,,,,,,,,,,1,,,,,,,,,,,,,5882.98000000004,,completion,,,,,,,,,,,,,3,,,,,,,,,,,,,,,,,,,,,,,,,,,,,,,,,,,,,,,,,,,,,,,,,,,,,,,,,"[""tomato.png""]","[""ham.png""]",,,,3,,,false,,1,,,,,,,504412,504411.08,498511.44,498515,498528.1,504427.74,,,,
choice_loop,flow.Loop,2_4_3_6_1_0_0_0_0,2021-05-24T16:00:56.116Z,,,,,,,,,,,,,,,,,,,,,,,,,,,,,,,,,,,,,,,,,,,,"[""ham.png""]","[""tomato.png""]",,,,,,,,,,,,,,,,,,,,,,,,,,,,,,,,,,,,,,,,,,,,,,,,,,,,,,,,,,,,,,,,,,,,,,,46197.23999999999,,completion,,,,,,,,,,,,,,,,,,,,,,,,,,,,,,,,,,,,,,,,,,,,,,,,,,,,,,,,,,,,,,,,,,,,,,"[""tomato.png""]","[""ham.png""]",,,,3,,,false,,,,,,,,,504412,504411.08,458180.5,458219,458213.84,504427.74,,,,
choice_frame,html.Frame,2_4_3_6_1_0_0_0,2021-05-24T16:00:56.117Z,,,,,,,,,,,,,,,,,,,,,,,,,,,,,,,,,,,,,,,,,,,,,,,,,,,,,,,,,,,,,,,,,,,,,,,,,,,,,,,,,,,,,,,,,,,,,,,,,,,,,,,,,,,,,,,,,,,,46198.159999999974,,,,,,,,,,,,,,,,,,,,,,,,,,,,,,,,,,,,,,,,,,,,,,,,,,,,,,,,,,,,,,,,,,,,,,,,,,,,,3,,,false,,,,,,,,,504413,504412,458180.5,458182,458213.84,504444.42,,,,
sublock_1,flow.Sequence,2_4_3_6_1_0_0,2021-05-24T16:00:56.117Z,,,,,,,,,,,,,,,,,,,,,,,,,,,,,,,,,,,,,,,,,,,,,,,,,,,,,,,,,,,,,,,,,,,,,,,,,,,,,,,,,,,,,,,,,,,,,,,,,,,,,,,,,,,,,,,,,,,,46198.159999999974,,completion,,,,,,,,,,,,,,,,,,,,,,,,,,,,,,,,,,,,,,,,,,,,,,,,,,,,,,,,,,,,,,,,,,,,,,,,,,,3,,,false,,,,,,,,,504413,504412,458180.5,458182,458213.84,504444.42,,,,
fixCross,canvas.Screen,2_4_3_6_1_0_1_0_0_0_0,2021-05-24T16:00:56.682Z,,,blank.png,blank.png,blank.png,blank.png,blank.png,blank.png,blank.png,"[""ham.png""]",blank.png,blank.png,blank.png,blank.png,blank.png,,,,,,,,,,,,,,,,,,,,,,,,,,,,,"[""ham.png""]","[""tomato.png""]",PB18.png,,,,,,,,,,,0,6,"[""tomato.png""]","[""tomato.png""]","[""tomato.png""]","[""tomato.png""]","[""tomato.png""]","[""tomato.png""]",blank.png,PB18.png,PB17.png,"[""tomato.png""]","[""tomato.png""]","[""tomato.png""]","[""tomato.png""]","[""tomato.png""]","[""tomato.png""]","[""tomato.png""]","[""tomato.png""]","[""tomato.png""]","[""tomato.png""]","[""tomato.png""]","[""tomato.png""]",1,"[""ham.png""]",blank.png,blank.png,blank.png,6,"[""tomato.png""]","[""tomato.png""]","[""tomato.png""]","[""tomato.png""]","[""tomato.png""]","[""tomato.png""]",PB17.png,,,,,,,,,,,1,,,,,,,,,,,,,549.9800000000396,,timeout,,,,,,,,,,,,,4,,,,,,,,,,,,,,,,,,,,,,,,,,,,,,,,,,,,,,,,,,,,,,,,,,,,,,,,,"[""tomato.png""]","[""ham.png""]",,,,5,,,false,,1,,,,,,,504978,504977.72,504427.74,504435,504444.42,504994.4,8,,,
timeout,canvas.Screen,2_4_3_6_1_0_1_0_0_0_1,2021-05-24T16:00:57.183Z,,,blank.png,blank.png,blank.png,blank.png,blank.png,blank.png,blank.png,"[""ham.png""]",blank.png,blank.png,blank.png,blank.png,blank.png,,,,,,,,,,,,,,,,,,,,,,,,,,,,,"[""ham.png""]","[""tomato.png""]",PB18.png,,,,,,,,,,,0,6,"[""tomato.png""]","[""tomato.png""]","[""tomato.png""]","[""tomato.png""]","[""tomato.png""]","[""tomato.png""]",blank.png,PB18.png,PB17.png,"[""tomato.png""]","[""tomato.png""]","[""tomato.png""]","[""tomato.png""]","[""tomato.png""]","[""tomato.png""]","[""tomato.png""]","[""tomato.png""]","[""tomato.png""]","[""tomato.png""]","[""tomato.png""]","[""tomato.png""]",1,"[""ham.png""]",blank.png,blank.png,blank.png,6,"[""tomato.png""]","[""tomato.png""]","[""tomato.png""]","[""tomato.png""]","[""tomato.png""]","[""tomato.png""]",PB17.png,,,,,,,,,,,1,,,,,,,,,,,,,499.95999999996275,,timeout,,,,,,,,,,,,,4,,,,,,,,,,,,,,,,,,,,,,,,,,,,,,,,,,,,,,,,,,,,,,,,,,,,,,,,,"[""tomato.png""]","[""ham.png""]",,,,5,,,false,,1,,,,,,,505478,505477.68,504977.72,504987,504994.4,505494.36,,,,
choice,canvas.Screen,2_4_3_6_1_0_1_0_0_0_2,2021-05-24T16:01:00.322Z,,,blank.png,blank.png,blank.png,blank.png,blank.png,blank.png,blank.png,"[""ham.png""]",blank.png,blank.png,blank.png,blank.png,blank.png,,,,,,,,,,,,,,,,,,,,,,,,,,,,,"[""ham.png""]","[""tomato.png""]",PB18.png,,,,,,,,,,,0,6,"[""tomato.png""]","[""tomato.png""]","[""tomato.png""]","[""tomato.png""]","[""tomato.png""]","[""tomato.png""]",blank.png,PB18.png,PB17.png,"[""tomato.png""]","[""tomato.png""]","[""tomato.png""]","[""tomato.png""]","[""tomato.png""]","[""tomato.png""]","[""tomato.png""]","[""tomato.png""]","[""tomato.png""]","[""tomato.png""]","[""tomato.png""]","[""tomato.png""]",1,"[""ham.png""]",blank.png,blank.png,blank.png,6,"[""tomato.png""]","[""tomato.png""]","[""tomato.png""]","[""tomato.png""]","[""tomato.png""]","[""tomato.png""]",PB17.png,,,,,,,,,,,1,,,,,,,,,,,,,3111.640000000014,,response,,,,,,,,,,,,,4,,,,,,,,,,,,,,,,,,,,,,,,,,,,,,,,,,,,,,,,,,,,,,,,,,,,,,,,,"[""tomato.png""]","[""ham.png""]",,,,5,right,keydown(ArrowRight),false,,1,,,,,,,508618,508606,505477.68,505490,505494.36,508627.52,,8,,
square,canvas.Screen,2_4_3_6_1_0_1_0_0_0_3,2021-05-24T16:01:01.315Z,,,blank.png,blank.png,blank.png,blank.png,blank.png,blank.png,blank.png,"[""ham.png""]",blank.png,blank.png,blank.png,blank.png,blank.png,,,,,,,,,,,,,,,,,,,,,,,,,,,,,"[""ham.png""]","[""tomato.png""]",PB18.png,,,,,,,,,,,0,6,"[""tomato.png""]","[""tomato.png""]","[""tomato.png""]","[""tomato.png""]","[""tomato.png""]","[""tomato.png""]",blank.png,PB18.png,PB17.png,"[""tomato.png""]","[""tomato.png""]","[""tomato.png""]","[""tomato.png""]","[""tomato.png""]","[""tomato.png""]","[""tomato.png""]","[""tomato.png""]","[""tomato.png""]","[""tomato.png""]","[""tomato.png""]","[""tomato.png""]",1,"[""ham.png""]",blank.png,blank.png,blank.png,6,"[""tomato.png""]","[""tomato.png""]","[""tomato.png""]","[""tomato.png""]","[""tomato.png""]","[""tomato.png""]",PB17.png,,,,,,,,,,,1,,,#808080,#33ff3f,,,,,,,,,999.8999999999651,,timeout,,,,,,,,,,,,,4,,,,,,,,,,,,,,,,,,,,,,,,,,,,,,,,,,,,,,,,,,,,,,,,,,,,,,,,,"[""tomato.png""]","[""ham.png""]",,,,5,,,false,,1,,,,,white,black,509611,509610.78,508625.86,508626,508627.52,509627.42,,,,
ITI_late,canvas.Screen,2_4_3_6_1_0_1_0_0_0_4,2021-05-24T16:01:02.065Z,,,blank.png,blank.png,blank.png,blank.png,blank.png,blank.png,blank.png,"[""ham.png""]",blank.png,blank.png,blank.png,blank.png,blank.png,,,,,,,,,,,,,,,,,,,,,,,,,,,,,"[""ham.png""]","[""tomato.png""]",PB18.png,,,,,,,,,,,0,6,"[""tomato.png""]","[""tomato.png""]","[""tomato.png""]","[""tomato.png""]","[""tomato.png""]","[""tomato.png""]",blank.png,PB18.png,PB17.png,"[""tomato.png""]","[""tomato.png""]","[""tomato.png""]","[""tomato.png""]","[""tomato.png""]","[""tomato.png""]","[""tomato.png""]","[""tomato.png""]","[""tomato.png""]","[""tomato.png""]","[""tomato.png""]","[""tomato.png""]",1,"[""ham.png""]",blank.png,blank.png,blank.png,6,"[""tomato.png""]","[""tomato.png""]","[""tomato.png""]","[""tomato.png""]","[""tomato.png""]","[""tomato.png""]",PB17.png,,,,,,,,,,,1,,,,,,,,,,,,,749.9800000000396,,timeout,,,,,,,,,,,,white,4,,,,,,,,,,,,,,,,,,,,,,,,,,,,,,,,,,,,,,,,,,,,,,,,,,,,,,,,,"[""tomato.png""]","[""ham.png""]",,,,5,,,false,,1,,,,,,,510362,510360.74,509610.78,509613,509627.42,510377.4,,,,
choice_sequence,flow.Sequence,2_4_3_6_1_0_1_0_0_0,2021-05-24T16:01:02.065Z,,,blank.png,blank.png,blank.png,blank.png,blank.png,blank.png,blank.png,"[""ham.png""]",blank.png,blank.png,blank.png,blank.png,blank.png,,,,,,,,,,,,,,,,,,,,,,,,,,,,,"[""ham.png""]","[""tomato.png""]",PB18.png,,,,,,,,,,,0,6,"[""tomato.png""]","[""tomato.png""]","[""tomato.png""]","[""tomato.png""]","[""tomato.png""]","[""tomato.png""]",blank.png,PB18.png,PB17.png,"[""tomato.png""]","[""tomato.png""]","[""tomato.png""]","[""tomato.png""]","[""tomato.png""]","[""tomato.png""]","[""tomato.png""]","[""tomato.png""]","[""tomato.png""]","[""tomato.png""]","[""tomato.png""]","[""tomato.png""]",1,"[""ham.png""]",blank.png,blank.png,blank.png,6,"[""tomato.png""]","[""tomato.png""]","[""tomato.png""]","[""tomato.png""]","[""tomato.png""]","[""tomato.png""]",PB17.png,,,,,,,,,,,1,,,,,,,,,,,,,5916.320000000007,,completion,,,,,,,,,,,,,4,,,,,,,,,,,,,,,,,,,,,,,,,,,,,,,,,,,,,,,,,,,,,,,,,,,,,,,,,"[""tomato.png""]","[""ham.png""]",,,,5,,,false,,1,,,,,,,510362,510360.74,504427.74,504434,504444.42,510377.4,,,,
fixCross,canvas.Screen,2_4_3_6_1_0_1_0_0_1_0,2021-05-24T16:01:02.715Z,,,blank.png,"[""ham.png""]",blank.png,blank.png,blank.png,blank.png,blank.png,blank.png,blank.png,blank.png,blank.png,blank.png,blank.png,,,,,,,,,,,,,,,,,,,,,,,,,,,,,"[""ham.png""]","[""tomato.png""]",PB15.png,,,,,,,,,,,0,6,"[""tomato.png""]","[""tomato.png""]","[""tomato.png""]","[""tomato.png""]","[""tomato.png""]","[""tomato.png""]",blank.png,PB18.png,PB18.png,"[""tomato.png""]","[""tomato.png""]","[""tomato.png""]","[""tomato.png""]",blank.png,blank.png,"[""tomato.png""]","[""tomato.png""]","[""tomato.png""]","[""tomato.png""]","[""tomato.png""]","[""tomato.png""]",1,"[""ham.png""]",blank.png,blank.png,blank.png,4,"[""tomato.png""]","[""tomato.png""]","[""tomato.png""]","[""tomato.png""]",blank.png,blank.png,PB15.png,,,,,,,,,,,1,,,,,,,,,,,,,649.9599999999627,,timeout,,,,,,,,,,,,,3,,,,,,,,,,,,,,,,,,,,,,,,,,,,,,,,,,,,,,,,,,,,,,,,,,,,,,,,,"[""tomato.png""]","[""ham.png""]",,,,5,,,false,,1,,,,,,,511011,511010.7,510360.74,510367,510377.4,511027.36,9,,,
timeout,canvas.Screen,2_4_3_6_1_0_1_0_0_1_1,2021-05-24T16:01:03.215Z,,,blank.png,"[""ham.png""]",blank.png,blank.png,blank.png,blank.png,blank.png,blank.png,blank.png,blank.png,blank.png,blank.png,blank.png,,,,,,,,,,,,,,,,,,,,,,,,,,,,,"[""ham.png""]","[""tomato.png""]",PB15.png,,,,,,,,,,,0,6,"[""tomato.png""]","[""tomato.png""]","[""tomato.png""]","[""tomato.png""]","[""tomato.png""]","[""tomato.png""]",blank.png,PB18.png,PB18.png,"[""tomato.png""]","[""tomato.png""]","[""tomato.png""]","[""tomato.png""]",blank.png,blank.png,"[""tomato.png""]","[""tomato.png""]","[""tomato.png""]","[""tomato.png""]","[""tomato.png""]","[""tomato.png""]",1,"[""ham.png""]",blank.png,blank.png,blank.png,4,"[""tomato.png""]","[""tomato.png""]","[""tomato.png""]","[""tomato.png""]",blank.png,blank.png,PB15.png,,,,,,,,,,,1,,,,,,,,,,,,,499.96000000002095,,timeout,,,,,,,,,,,,,3,,,,,,,,,,,,,,,,,,,,,,,,,,,,,,,,,,,,,,,,,,,,,,,,,,,,,,,,,"[""tomato.png""]","[""ham.png""]",,,,5,,,false,,1,,,,,,,511511,511510.66,511010.7,511020,511027.36,511527.32,,,,
choice,canvas.Screen,2_4_3_6_1_0_1_0_0_1_2,2021-05-24T16:01:05.002Z,,,blank.png,"[""ham.png""]",blank.png,blank.png,blank.png,blank.png,blank.png,blank.png,blank.png,blank.png,blank.png,blank.png,blank.png,,,,,,,,,,,,,,,,,,,,,,,,,,,,,"[""ham.png""]","[""tomato.png""]",PB15.png,,,,,,,,,,,0,6,"[""tomato.png""]","[""tomato.png""]","[""tomato.png""]","[""tomato.png""]","[""tomato.png""]","[""tomato.png""]",blank.png,PB18.png,PB18.png,"[""tomato.png""]","[""tomato.png""]","[""tomato.png""]","[""tomato.png""]",blank.png,blank.png,"[""tomato.png""]","[""tomato.png""]","[""tomato.png""]","[""tomato.png""]","[""tomato.png""]","[""tomato.png""]",1,"[""ham.png""]",blank.png,blank.png,blank.png,4,"[""tomato.png""]","[""tomato.png""]","[""tomato.png""]","[""tomato.png""]",blank.png,blank.png,PB15.png,,,,,,,,,,,1,,,,,,,,,,,,,1766.679999999993,,response,,,,,,,,,,,,,3,,,,,,,,,,,,,,,,,,,,,,,,,,,,,,,,,,,,,,,,,,,,,,,,,,,,,,,,,"[""tomato.png""]","[""ham.png""]",,,,5,left,keydown(ArrowLeft),false,,1,,,,,,,513298,513294,511510.66,511519,511527.32,513310.58,,9,,
square,canvas.Screen,2_4_3_6_1_0_1_0_0_1_3,2021-05-24T16:01:05.998Z,,,blank.png,"[""ham.png""]",blank.png,blank.png,blank.png,blank.png,blank.png,blank.png,blank.png,blank.png,blank.png,blank.png,blank.png,,,,,,,,,,,,,,,,,,,,,,,,,,,,,"[""ham.png""]","[""tomato.png""]",PB15.png,,,,,,,,,,,0,6,"[""tomato.png""]","[""tomato.png""]","[""tomato.png""]","[""tomato.png""]","[""tomato.png""]","[""tomato.png""]",blank.png,PB18.png,PB18.png,"[""tomato.png""]","[""tomato.png""]","[""tomato.png""]","[""tomato.png""]",blank.png,blank.png,"[""tomato.png""]","[""tomato.png""]","[""tomato.png""]","[""tomato.png""]","[""tomato.png""]","[""tomato.png""]",1,"[""ham.png""]",blank.png,blank.png,blank.png,4,"[""tomato.png""]","[""tomato.png""]","[""tomato.png""]","[""tomato.png""]",blank.png,blank.png,PB15.png,,,,,,,,,,,1,,,#33ff3f,#808080,,,,,,,,,999.9199999999837,,timeout,,,,,,,,,,,,,3,,,,,,,,,,,,,,,,,,,,,,,,,,,,,,,,,,,,,,,,,,,,,,,,,,,,,,,,,"[""tomato.png""]","[""ham.png""]",,,,5,,,false,,1,,,,,black,white,514294,514293.84,513306.22,513306,513310.58,514310.5,,,,
ITI_late,canvas.Screen,2_4_3_6_1_0_1_0_0_1_4,2021-05-24T16:01:06.748Z,,,blank.png,"[""ham.png""]",blank.png,blank.png,blank.png,blank.png,blank.png,blank.png,blank.png,blank.png,blank.png,blank.png,blank.png,,,,,,,,,,,,,,,,,,,,,,,,,,,,,"[""ham.png""]","[""tomato.png""]",PB15.png,,,,,,,,,,,0,6,"[""tomato.png""]","[""tomato.png""]","[""tomato.png""]","[""tomato.png""]","[""tomato.png""]","[""tomato.png""]",blank.png,PB18.png,PB18.png,"[""tomato.png""]","[""tomato.png""]","[""tomato.png""]","[""tomato.png""]",blank.png,blank.png,"[""tomato.png""]","[""tomato.png""]","[""tomato.png""]","[""tomato.png""]","[""tomato.png""]","[""tomato.png""]",1,"[""ham.png""]",blank.png,blank.png,blank.png,4,"[""tomato.png""]","[""tomato.png""]","[""tomato.png""]","[""tomato.png""]",blank.png,blank.png,PB15.png,,,,,,,,,,,1,,,,,,,,,,,,,749.9400000000023,,timeout,,,,,,,,,,,,white,3,,,,,,,,,,,,,,,,,,,,,,,,,,,,,,,,,,,,,,,,,,,,,,,,,,,,,,,,,"[""tomato.png""]","[""ham.png""]",,,,5,,,false,,1,,,,,,,515045,515043.78,514293.84,514296,514310.5,515060.44,,,,
choice_sequence,flow.Sequence,2_4_3_6_1_0_1_0_0_1,2021-05-24T16:01:06.749Z,,,blank.png,"[""ham.png""]",blank.png,blank.png,blank.png,blank.png,blank.png,blank.png,blank.png,blank.png,blank.png,blank.png,blank.png,,,,,,,,,,,,,,,,,,,,,,,,,,,,,"[""ham.png""]","[""tomato.png""]",PB15.png,,,,,,,,,,,0,6,"[""tomato.png""]","[""tomato.png""]","[""tomato.png""]","[""tomato.png""]","[""tomato.png""]","[""tomato.png""]",blank.png,PB18.png,PB18.png,"[""tomato.png""]","[""tomato.png""]","[""tomato.png""]","[""tomato.png""]",blank.png,blank.png,"[""tomato.png""]","[""tomato.png""]","[""tomato.png""]","[""tomato.png""]","[""tomato.png""]","[""tomato.png""]",1,"[""ham.png""]",blank.png,blank.png,blank.png,4,"[""tomato.png""]","[""tomato.png""]","[""tomato.png""]","[""tomato.png""]",blank.png,blank.png,PB15.png,,,,,,,,,,,1,,,,,,,,,,,,,4666.380000000005,,completion,,,,,,,,,,,,,3,,,,,,,,,,,,,,,,,,,,,,,,,,,,,,,,,,,,,,,,,,,,,,,,,,,,,,,,,"[""tomato.png""]","[""ham.png""]",,,,5,,,false,,1,,,,,,,515045,515043.78,510360.74,510366,510377.4,515060.44,,,,
fixCross,canvas.Screen,2_4_3_6_1_0_1_0_0_2_0,2021-05-24T16:01:07.049Z,,,blank.png,blank.png,blank.png,blank.png,blank.png,blank.png,blank.png,"[""ham.png""]",blank.png,blank.png,blank.png,blank.png,blank.png,,,,,,,,,,,,,,,,,,,,,,,,,,,,,"[""ham.png""]","[""tomato.png""]",PB18.png,,,,,,,,,,,0,6,"[""tomato.png""]","[""tomato.png""]","[""tomato.png""]","[""tomato.png""]","[""tomato.png""]","[""tomato.png""]",blank.png,PB18.png,PB16.png,"[""tomato.png""]","[""tomato.png""]","[""tomato.png""]","[""tomato.png""]","[""tomato.png""]","[""tomato.png""]","[""tomato.png""]","[""tomato.png""]","[""tomato.png""]","[""tomato.png""]","[""tomato.png""]",blank.png,1,"[""ham.png""]",blank.png,blank.png,blank.png,5,"[""tomato.png""]","[""tomato.png""]","[""tomato.png""]","[""tomato.png""]","[""tomato.png""]",blank.png,PB16.png,,,,,,,,,,,1,,,,,,,,,,,,,300,,timeout,,,,,,,,,,,,,4,,,,,,,,,,,,,,,,,,,,,,,,,,,,,,,,,,,,,,,,,,,,,,,,,,,,,,,,,"[""tomato.png""]","[""ham.png""]",,,,5,,,false,,1,,,,,,,515344,515343.76,515043.78,515051,515060.44,515360.44,10,,,
timeout,canvas.Screen,2_4_3_6_1_0_1_0_0_2_1,2021-05-24T16:01:07.548Z,,,blank.png,blank.png,blank.png,blank.png,blank.png,blank.png,blank.png,"[""ham.png""]",blank.png,blank.png,blank.png,blank.png,blank.png,,,,,,,,,,,,,,,,,,,,,,,,,,,,,"[""ham.png""]","[""tomato.png""]",PB18.png,,,,,,,,,,,0,6,"[""tomato.png""]","[""tomato.png""]","[""tomato.png""]","[""tomato.png""]","[""tomato.png""]","[""tomato.png""]",blank.png,PB18.png,PB16.png,"[""tomato.png""]","[""tomato.png""]","[""tomato.png""]","[""tomato.png""]","[""tomato.png""]","[""tomato.png""]","[""tomato.png""]","[""tomato.png""]","[""tomato.png""]","[""tomato.png""]","[""tomato.png""]",blank.png,1,"[""ham.png""]",blank.png,blank.png,blank.png,5,"[""tomato.png""]","[""tomato.png""]","[""tomato.png""]","[""tomato.png""]","[""tomato.png""]",blank.png,PB16.png,,,,,,,,,,,1,,,,,,,,,,,,,499.96000000002095,,timeout,,,,,,,,,,,,,4,,,,,,,,,,,,,,,,,,,,,,,,,,,,,,,,,,,,,,,,,,,,,,,,,,,,,,,,,"[""tomato.png""]","[""ham.png""]",,,,5,,,false,,1,,,,,,,515845,515843.74,515343.76,515353,515360.44,515860.4,,,,
choice,canvas.Screen,2_4_3_6_1_0_1_0_0_2_2,2021-05-24T16:01:10.186Z,,,blank.png,blank.png,blank.png,blank.png,blank.png,blank.png,blank.png,"[""ham.png""]",blank.png,blank.png,blank.png,blank.png,blank.png,,,,,,,,,,,,,,,,,,,,,,,,,,,,,"[""ham.png""]","[""tomato.png""]",PB18.png,,,,,,,,,,,0,6,"[""tomato.png""]","[""tomato.png""]","[""tomato.png""]","[""tomato.png""]","[""tomato.png""]","[""tomato.png""]",blank.png,PB18.png,PB16.png,"[""tomato.png""]","[""tomato.png""]","[""tomato.png""]","[""tomato.png""]","[""tomato.png""]","[""tomato.png""]","[""tomato.png""]","[""tomato.png""]","[""tomato.png""]","[""tomato.png""]","[""tomato.png""]",blank.png,1,"[""ham.png""]",blank.png,blank.png,blank.png,5,"[""tomato.png""]","[""tomato.png""]","[""tomato.png""]","[""tomato.png""]","[""tomato.png""]",blank.png,PB16.png,,,,,,,,,,,1,,,,,,,,,,,,,2605.5999999999767,,response,,,,,,,,,,,,,4,,,,,,,,,,,,,,,,,,,,,,,,,,,,,,,,,,,,,,,,,,,,,,,,,,,,,,,,,"[""tomato.png""]","[""ham.png""]",,,,5,right,keydown(ArrowRight),false,,1,,,,,,,518482,518466,515843.74,515851,515860.4,518493.64,,10,,
square,canvas.Screen,2_4_3_6_1_0_1_0_0_2_3,2021-05-24T16:01:11.181Z,,,blank.png,blank.png,blank.png,blank.png,blank.png,blank.png,blank.png,"[""ham.png""]",blank.png,blank.png,blank.png,blank.png,blank.png,,,,,,,,,,,,,,,,,,,,,,,,,,,,,"[""ham.png""]","[""tomato.png""]",PB18.png,,,,,,,,,,,0,6,"[""tomato.png""]","[""tomato.png""]","[""tomato.png""]","[""tomato.png""]","[""tomato.png""]","[""tomato.png""]",blank.png,PB18.png,PB16.png,"[""tomato.png""]","[""tomato.png""]","[""tomato.png""]","[""tomato.png""]","[""tomato.png""]","[""tomato.png""]","[""tomato.png""]","[""tomato.png""]","[""tomato.png""]","[""tomato.png""]","[""tomato.png""]",blank.png,1,"[""ham.png""]",blank.png,blank.png,blank.png,5,"[""tomato.png""]","[""tomato.png""]","[""tomato.png""]","[""tomato.png""]","[""tomato.png""]",blank.png,PB16.png,,,,,,,,,,,1,,,#808080,#33ff3f,,,,,,,,,999.859999999986,,timeout,,,,,,,,,,,,,4,,,,,,,,,,,,,,,,,,,,,,,,,,,,,,,,,,,,,,,,,,,,,,,,,,,,,,,,,"[""tomato.png""]","[""ham.png""]",,,,5,,,false,,1,,,,,white,black,519477,519476.86,518488.64,518488,518493.64,519493.5,,,,
ITI_late,canvas.Screen,2_4_3_6_1_0_1_0_0_2_4,2021-05-24T16:01:12.432Z,,,blank.png,blank.png,blank.png,blank.png,blank.png,blank.png,blank.png,"[""ham.png""]",blank.png,blank.png,blank.png,blank.png,blank.png,,,,,,,,,,,,,,,,,,,,,,,,,,,,,"[""ham.png""]","[""tomato.png""]",PB18.png,,,,,,,,,,,0,6,"[""tomato.png""]","[""tomato.png""]","[""tomato.png""]","[""tomato.png""]","[""tomato.png""]","[""tomato.png""]",blank.png,PB18.png,PB16.png,"[""tomato.png""]","[""tomato.png""]","[""tomato.png""]","[""tomato.png""]","[""tomato.png""]","[""tomato.png""]","[""tomato.png""]","[""tomato.png""]","[""tomato.png""]","[""tomato.png""]","[""tomato.png""]",blank.png,1,"[""ham.png""]",blank.png,blank.png,blank.png,5,"[""tomato.png""]","[""tomato.png""]","[""tomato.png""]","[""tomato.png""]","[""tomato.png""]",blank.png,PB16.png,,,,,,,,,,,1,,,,,,,,,,,,,1249.9400000000023,,timeout,,,,,,,,,,,,white,4,,,,,,,,,,,,,,,,,,,,,,,,,,,,,,,,,,,,,,,,,,,,,,,,,,,,,,,,,"[""tomato.png""]","[""ham.png""]",,,,5,,,false,,1,,,,,,,520727,520726.78,519476.86,519479,519493.5,520743.44,,,,
choice_sequence,flow.Sequence,2_4_3_6_1_0_1_0_0_2,2021-05-24T16:01:12.432Z,,,blank.png,blank.png,blank.png,blank.png,blank.png,blank.png,blank.png,"[""ham.png""]",blank.png,blank.png,blank.png,blank.png,blank.png,,,,,,,,,,,,,,,,,,,,,,,,,,,,,"[""ham.png""]","[""tomato.png""]",PB18.png,,,,,,,,,,,0,6,"[""tomato.png""]","[""tomato.png""]","[""tomato.png""]","[""tomato.png""]","[""tomato.png""]","[""tomato.png""]",blank.png,PB18.png,PB16.png,"[""tomato.png""]","[""tomato.png""]","[""tomato.png""]","[""tomato.png""]","[""tomato.png""]","[""tomato.png""]","[""tomato.png""]","[""tomato.png""]","[""tomato.png""]","[""tomato.png""]","[""tomato.png""]",blank.png,1,"[""ham.png""]",blank.png,blank.png,blank.png,5,"[""tomato.png""]","[""tomato.png""]","[""tomato.png""]","[""tomato.png""]","[""tomato.png""]",blank.png,PB16.png,,,,,,,,,,,1,,,,,,,,,,,,,5666.340000000026,,completion,,,,,,,,,,,,,4,,,,,,,,,,,,,,,,,,,,,,,,,,,,,,,,,,,,,,,,,,,,,,,,,,,,,,,,,"[""tomato.png""]","[""ham.png""]",,,,5,,,false,,1,,,,,,,520728,520726.78,515043.78,515049,515060.44,520743.44,,,,
fixCross,canvas.Screen,2_4_3_6_1_0_1_0_0_3_0,2021-05-24T16:01:12.931Z,,,blank.png,"[""ham.png""]",blank.png,blank.png,blank.png,blank.png,blank.png,blank.png,blank.png,blank.png,blank.png,blank.png,blank.png,,,,,,,,,,,,,,,,,,,,,,,,,,,,,"[""ham.png""]","[""tomato.png""]",PB07.png,,,,,,,,,,,0,6,"[""tomato.png""]","[""tomato.png""]","[""tomato.png""]","[""tomato.png""]","[""tomato.png""]","[""tomato.png""]",blank.png,PB18.png,PB18.png,"[""tomato.png""]",blank.png,blank.png,blank.png,blank.png,blank.png,"[""tomato.png""]","[""tomato.png""]","[""tomato.png""]","[""tomato.png""]","[""tomato.png""]","[""tomato.png""]",1,"[""ham.png""]",blank.png,blank.png,blank.png,1,"[""tomato.png""]",blank.png,blank.png,blank.png,blank.png,blank.png,PB07.png,,,,,,,,,,,1,,,,,,,,,,,,,499.9799999999814,,timeout,,,,,,,,,,,,,3,,,,,,,,,,,,,,,,,,,,,,,,,,,,,,,,,,,,,,,,,,,,,,,,,,,,,,,,,"[""tomato.png""]","[""ham.png""]",,,,5,,,false,,1,,,,,,,521227,521226.76,520726.78,520734,520743.44,521243.42,11,,,
timeout,canvas.Screen,2_4_3_6_1_0_1_0_0_3_1,2021-05-24T16:01:13.431Z,,,blank.png,"[""ham.png""]",blank.png,blank.png,blank.png,blank.png,blank.png,blank.png,blank.png,blank.png,blank.png,blank.png,blank.png,,,,,,,,,,,,,,,,,,,,,,,,,,,,,"[""ham.png""]","[""tomato.png""]",PB07.png,,,,,,,,,,,0,6,"[""tomato.png""]","[""tomato.png""]","[""tomato.png""]","[""tomato.png""]","[""tomato.png""]","[""tomato.png""]",blank.png,PB18.png,PB18.png,"[""tomato.png""]",blank.png,blank.png,blank.png,blank.png,blank.png,"[""tomato.png""]","[""tomato.png""]","[""tomato.png""]","[""tomato.png""]","[""tomato.png""]","[""tomato.png""]",1,"[""ham.png""]",blank.png,blank.png,blank.png,1,"[""tomato.png""]",blank.png,blank.png,blank.png,blank.png,blank.png,PB07.png,,,,,,,,,,,1,,,,,,,,,,,,,499.96000000002095,,timeout,,,,,,,,,,,,,3,,,,,,,,,,,,,,,,,,,,,,,,,,,,,,,,,,,,,,,,,,,,,,,,,,,,,,,,,"[""tomato.png""]","[""ham.png""]",,,,5,,,false,,1,,,,,,,521727,521726.72,521226.76,521236,521243.42,521743.38,,,,
choice,canvas.Screen,2_4_3_6_1_0_1_0_0_3_2,2021-05-24T16:01:15.842Z,,,blank.png,"[""ham.png""]",blank.png,blank.png,blank.png,blank.png,blank.png,blank.png,blank.png,blank.png,blank.png,blank.png,blank.png,,,,,,,,,,,,,,,,,,,,,,,,,,,,,"[""ham.png""]","[""tomato.png""]",PB07.png,,,,,,,,,,,0,6,"[""tomato.png""]","[""tomato.png""]","[""tomato.png""]","[""tomato.png""]","[""tomato.png""]","[""tomato.png""]",blank.png,PB18.png,PB18.png,"[""tomato.png""]",blank.png,blank.png,blank.png,blank.png,blank.png,"[""tomato.png""]","[""tomato.png""]","[""tomato.png""]","[""tomato.png""]","[""tomato.png""]","[""tomato.png""]",1,"[""ham.png""]",blank.png,blank.png,blank.png,1,"[""tomato.png""]",blank.png,blank.png,blank.png,blank.png,blank.png,PB07.png,,,,,,,,,,,1,,,,,,,,,,,,,2378.6199999999953,,response,,,,,,,,,,,,,3,,,,,,,,,,,,,,,,,,,,,,,,,,,,,,,,,,,,,,,,,,,,,,,,,,,,,,,,,"[""tomato.png""]","[""ham.png""]",,,,5,right,keydown(ArrowRight),false,,1,,,,,,,524138,524122,521726.72,521738,521743.38,524159.88,,11,,
