sender,sender_type,sender_id,timestamp,meta,,Blank,DownLeft1,DownLeft2,DownLeft3,DownLeft4,DownLeft5,DownLeft6,DownRight1,DownRight2,DownRight3,DownRight4,DownRight5,DownRight6,FoodHabits_Fru_item1,FoodHabits_Fru_item2,FoodHabits_Fru_item3,FoodHabits_Fru_item4,FoodHabits_Fru_item5,FoodHabits_Fru_item6,FoodHabits_Fru_item7,FoodHabits_Meat_item1,FoodHabits_Meat_item2,FoodHabits_Meat_item3,FoodHabits_Meat_item4,FoodHabits_Meat_item5,FoodHabits_Meat_item6,FoodHabits_Meat_item7,FoodHabits_Swe_item1,FoodHabits_Swe_item2,FoodHabits_Swe_item3,FoodHabits_Swe_item4,FoodHabits_Swe_item5,FoodHabits_Swe_item6,FoodHabits_Swe_item7,FoodHabits_Veg_item1,FoodHabits_Veg_item2,FoodHabits_Veg_item3,FoodHabits_Veg_item4,FoodHabits_Veg_item5,FoodHabits_Veg_item6,FoodHabits_Veg_item7,ImgA,ImgB,LeftBar,PSS_item01,PSS_item02,PSS_item03,PSS_item04,PSS_item05,PSS_item06,PSS_item07,PSS_item08,PSS_item09,PSS_item10,RefA,RefB,RefB1,RefB2,RefB3,RefB4,RefB5,RefB6,RefB7,Ref_PB,RightBar,UpLeft1,UpLeft2,UpLeft3,UpLeft4,UpLeft5,UpLeft6,UpRight1,UpRight2,UpRight3,UpRight4,UpRight5,UpRight6,VarA,VarA1,VarA2,VarA3,VarA4,VarB,VarB1,VarB2,VarB3,VarB4,VarB5,VarB6,Var_PB,attCheck_fileA,attCheck_fileB,attCheck_fileC,attCheck_fileD,attCheck_options,attCheck_valueA,attCheck_valueB,attCheck_valueC,attCheck_valueD,attention_check,block,break1,browser_name,choseL,choseR,consent_form1,consent_form2,consentconfirmation_form1,consentconfirmation_form2,correct,correctResponse,diet,disorder,duration,edu,ended_on,enjoy,full_version,gender,group,hunger,img,imgTask,input_age,input_meal,input_occ,input_remark,lateRespFeed,list,major_version,message,mixQ_item1,mixQ_item2,mixQ_item3,mixQ_item4,mixQ_item5,name,navigator_appName,navigator_userAgent,os,pracQ1_IDa,pracQ1_IDb,pracQ1_IDc,pracQ1_IDd,pracQ1_optionA,pracQ1_optionB,pracQ1_optionC,pracQ1_optionD,pracQ1_valueA,pracQ1_valueB,pracQ1_valueC,pracQ1_valueD,pracQ2_IDa,pracQ2_IDb,pracQ2_IDc,pracQ2_optionA,pracQ2_optionB,pracQ2_optionC,pracQ2_valueA,pracQ2_valueB,pracQ2_valueC,pracQ4_IDa,pracQ4_IDb,pracQ4_IDc,pracQ4_IDd,pracQ4_optionA,pracQ4_optionB,pracQ4_optionC,pracQ4_optionD,pracQ4_valueA,pracQ4_valueB,pracQ4_valueC,pracQ4_valueD,pracQ5_IDa,pracQ5_IDb,pracQ5_IDc,pracQ5_IDd,pracQ5_optionA,pracQ5_optionB,pracQ5_optionC,pracQ5_optionD,pracQ5_valueA,pracQ5_valueB,pracQ5_valueC,pracQ5_valueD,prefHealty,prefUnhealthy,prolific_ID,psessionID,pstudyID,rep,response,response_action,skip,snack,sublock,subtitle,task_difficulty,task_engagement,task_focus,textL,textR,time_commit,time_end,time_render,time_run,time_show,time_switch,trial_count,trial_countO,url,valence
Title,html.Page,0,2021-05-24T16:11:28.882Z,"{""labjs_version"":""20.2.2"",""labjs_build"":{""flavor"":""production"",""commit"":""a25486e0c714a0ae2ce03ff94b7bb6896854dcfa""},""location"":""https://run.pavlovia.org/E3lab/rebund/html/?PROLIFIC_PID=5f2333481102fd0cc9dc13b8&STUDY_ID=60008f34cd719d13b0d706dd&SESSION_ID=60abd02089470c7177d7177b"",""userAgent"":""Mozilla/5.0 (Windows NT 10.0; Win64; x64) AppleWebKit/537.36 (KHTML, like Gecko) Chrome/90.0.4430.212 Safari/537.36"",""platform"":""Win32"",""language"":""hu-HU"",""locale"":""hu"",""timeZone"":""Europe/Budapest"",""timezoneOffset"":-120,""screen_width"":1920,""screen_height"":1080,""scroll_width"":1920,""scroll_height"":921,""window_innerWidth"":1920,""window_innerHeight"":969,""devicePixelRatio"":1}",,,,,,,,,,,,,,,,,,,,,,,,,,,,,,,,,,,,,,,,,,,,,,,,,,,,,,,,,,,,,,,,,,,,,,,,,,,,,,,,,,,,,,,,,,,,,,,,,,,,,,,,,,,,,,,,,,,4739.755000000882,,form submission,,,,,,,,,,,,,,,,,,,,,,,,,,,,,,,,,,,,,,,,,,,,,,,,,,,,,,,,,,,,,,,,,,,,,,,,,,,,,,,,,,,,,,,6999.244999999064,6998.885000000882,2242.483,2233.6900000009337,2259.13,7009.184,,,"{""PROLIFIC_PID"":""5f2333481102fd0cc9dc13b8"",""STUDY_ID"":""60008f34cd719d13b0d706dd"",""SESSION_ID"":""60abd02089470c7177d7177b""}",
get_systemInfo,canvas.Screen,1,2021-05-24T16:11:28.898Z,,,,,,,,,,,,,,,,,,,,,,,,,,,,,,,,,,,,,,,,,,,,,,,,,,,,,,,,,,,,,,,,,,,,,,,,,,,,,,,,,,,,,,,,,,,,,,,,,,,,,,,,,Chrome,,,,,,,,,,,3050.177999999999,,timeout,,90.0.4430.212,,,,,,,,,,,,90,,,,,,,,Netscape,"Mozilla/5.0 (Windows NT 10.0; Win64; x64) AppleWebKit/537.36 (KHTML, like Gecko) Chrome/90.0.4430.212 Safari/537.36",Windows,,,,,,,,,,,,,,,,,,,,,,,,,,,,,,,,,,,,,,,,,,,,,,,,5f2333481102fd0cc9dc13b8,,60008f34cd719d13b0d706dd,,,,,,,,,,,,,7015.3600000012375,7015.114999998332,6992.689,7000.25000000096,7009.184,10059.362,,,,
ConsentForm,html.Form,2_0,2021-05-24T16:11:57.314Z,,,,,,,,,,,,,,,,,,,,,,,,,,,,,,,,,,,,,,,,,,,,,,,,,,,,,,,,,,,,,,,,,,,,,,,,,,,,,,,,,,,,,,,,,,,,,,,,,,,,,,,,,,,,true,true,,,,,,,25371.64800000024,,form submission,,,,,,,,,,,,,,,,,,,,,,,,,,,,,,,,,,,,,,,,,,,,,,,,,,,,,,,,,,,,,,,,,,,,,,,,,,,,,,,,,,,,,,,35431.25499999951,35431.01000000024,7015.114999998332,10079.949999999371,10059.362,35443.139,,,,
PepTalk,html.Page,2_1,2021-05-24T16:12:06.388Z,,,,,,,,,,,,,,,,,,,,,,,,,,,,,,,,,,,,,,,,,,,,,,,,,,,,,,,,,,,,,,,,,,,,,,,,,,,,,,,,,,,,,,,,,,,,,,,,,,,,,,,,,,,,,,,,,,,,9061.3409999996,,form submission,,,,,,,,,,,,,,,,,,,,,,,,,,,,,,,,,,,,,,,,,,,,,,,,,,,,,,,,,,,,,,,,,,,,,,,,,,,,,,,,,,,,,,,44504.64999999895,44504.4799999996,35426.558,35431.38999999792,35443.139,44509.975,,,,
Demographics,html.Form,2_2,2021-05-24T16:12:23.046Z,,,,,,,,,,,,,,,,,,,,,,,,,,,,,,,,,,,,,,,,,,,,,,,,,,,,,,,,,,,,,,,,,,,,,,,,,,,,,,,,,,,,,,,,,,,,,,,,,,,,,,,,,,,,,,,,,,,,16652.80499999875,2,form submission,,,2,,,,,18,,Student,,,,,,,,,,,,,,,,,,,,,,,,,,,,,,,,,,,,,,,,,,,,,,,,,,,,,,,,,,,,,,,,,,,,,,,,,,,,,61162.95999999784,61162.77999999875,44493.381,44504.75499999811,44509.975,61176.986,,,,
InclusionCrit,html.Form,2_3,2021-05-24T16:12:33.432Z,,,,,,,,,,,,,,,,,,,,,,,,,,,,,,,,,,,,,,,,,,,,,,,,,,,,,,,,,,,,,,,,,,,,,,,,,,,,,,,,,,,,,,,,,,,,,,,,,,,,,,,,,,,,,,,,,,1,1,10371.63899999945,,form submission,0,,,,,,,,,,,,,,,,,,,,,,,,,,,,,,,,,,,,,,,,,,,,,,,,,,,,,,,,,,,,,,,,,,,,,,,,,,,,,,,,,,,,,,71548.81999999998,71548.62499999945,61160.389,61163.06500000064,61176.986,71560.595,,,,
Selection,html.Page,2_4_0,2021-05-24T16:12:40.430Z,,,,,,,,,,,,,,,,,,,,,,,,,,,,,,,,,,,,,,,,,,,,,,,,,,,,,,,,,,,,,,,,,,,,,,,,,,,,,,,,,,,,,,,,,,,,,,,,,,,,,,,,,,,,,,,,,,,,6985.944999999367,,form submission,,,,,,,,,,,,,,,,,,,,,,,,,,,,,,,,,,,,,,,,,,,,,,,,,,,,,,,,,,,,,,,,,,,,,,,,,,,,,,,0,,,,,,,,78546.71999999846,78546.53999999937,71543.896,71548.98500000127,71560.595,78560.75,,,,
Load,html.Page,2_4_1,2021-05-24T16:12:40.444Z,,,,,,,,,,,,,,,,,,,,,,,,,,,,,,,,,,,,,,,,,,,,,,,,,,,,,,,,,,,,,,,,,,,,,,,,,,,,,,,,,,,,,,,,,,,,,,,,,,,,,,,,,,,,,,,,,,,,2599.926999999996,,timeout,,,,,,,,,,,,,,,,,,,,,,,,,,,,,,,,,,,,,,,,,,,,,,,,,,,,,,,,,,,,,,,,,,,,,,,,,,,,,,,,,,,,,,,78561.31499999901,78561.11999999848,78544.095,78546.81499999788,78560.75,81160.677,,,,
ratings_instructions,html.Screen,2_4_2_0,2021-05-24T16:12:53.341Z,,,,,,,,,,,,,,,,,,,,,,,,,,,,,,,,,,,,,,,,,,,,,,,,,,,,,,,,,,,,,,,,,,,,,,,,,,,,,,,,,,,,,,,,,,,,,,,,,,,,,,,,,,,,,,,,,,,,10290.623000000633,,response,,,,,,,,,,,,,,,,,,,,,,,,,,,,,,,,,,,,,,,,,,,,,,,,,,,,,,,,,,,,,,,,,,,,,,,,,,,,continue,keypress(Space),false,,,,,,,,,91457.68999999927,91451.30000000063,78561.11999999848,81172.62499999924,81160.677,91477.975,0,0,,
fixCross,canvas.Screen,2_4_2_1_0_0,2021-05-24T16:12:53.845Z,,,,,,,,,,,,,,,,,,,,,,,,,,,,,,,,,,,,,,,,,,,,,,,,,,,,,,,,,,,,,,,,,,,,,,,,,,,,,,,,,,,,,,,,,,,,,,,,,,,,,,,,,,,,,,,,,,,,499.65699999999197,,timeout,,,,healthy,,orange.png,,,,,,,,,,,,,,,orange,,,,,,,,,,,,,,,,,,,,,,,,,,,,,,,,,,,,,,,,,,,,,,,,,,,,,,,,,false,,,,,,,,,91961.76999999807,91960.986,91460.947,91458.31499999986,91477.975,91977.632,,,,
Rating,html.Form,2_4_2_1_0_1,2021-05-24T16:12:58.897Z,,,,,,,,,,,,,,,,,,,,,,,,,,,,,,,,,,,,,,,,,,,,,,,,,,,,,,,,,,,,,,,,,,,,,,,,,,,,,,,,,,,,,,,,,,,,,,,,,,,,,,,,,,,,,,,,,,,,5036.117999998256,,form submission,,,,healthy,,orange.png,,,,,,,,,,,,,,,orange,,,,,,,,,,,,,,,,,,,,,,,,,,,,,,,,,,,,,,,,,,,,,,,,,,,,,,,,,false,,,,,,,,,97013.94000000073,97013.74999999825,91960.986,91961.87999999893,91977.632,97027.74,,,,78
rating_sequence,flow.Sequence,2_4_2_1_0,2021-05-24T16:12:58.897Z,,,,,,,,,,,,,,,,,,,,,,,,,,,,,,,,,,,,,,,,,,,,,,,,,,,,,,,,,,,,,,,,,,,,,,,,,,,,,,,,,,,,,,,,,,,,,,,,,,,,,,,,,,,,,,,,,,,,5535.774999998248,,completion,,,,healthy,,orange.png,,,,,,,,,,,,,,,orange,,,,,,,,,,,,,,,,,,,,,,,,,,,,,,,,,,,,,,,,,,,,,,,,,,,,,,,,,false,,,,,,,,,97014.12999999957,97013.74999999825,91460.947,91458.204999999,91477.975,97027.74,,,,
fixCross,canvas.Screen,2_4_2_1_1_0,2021-05-24T16:12:59.395Z,,,,,,,,,,,,,,,,,,,,,,,,,,,,,,,,,,,,,,,,,,,,,,,,,,,,,,,,,,,,,,,,,,,,,,,,,,,,,,,,,,,,,,,,,,,,,,,,,,,,,,,,,,,,,,,,,,,,500.00599999999395,,timeout,,,,unhealthy,,chocolate.png,,,,,,,,,,,,,,,chocolate,,,,,,,,,,,,,,,,,,,,,,,,,,,,,,,,,,,,,,,,,,,,,,,,,,,,,,,,,false,,,,,,,,,97511.93499999863,97511.035,97011.068,97014.22000000093,97027.74,97527.746,,,,
Rating,html.Form,2_4_2_1_1_1,2021-05-24T16:13:05.562Z,,,,,,,,,,,,,,,,,,,,,,,,,,,,,,,,,,,,,,,,,,,,,,,,,,,,,,,,,,,,,,,,,,,,,,,,,,,,,,,,,,,,,,,,,,,,,,,,,,,,,,,,,,,,,,,,,,,,6150.869000000719,,form submission,,,,unhealthy,,chocolate.png,,,,,,,,,,,,,,,chocolate,,,,,,,,,,,,,,,,,,,,,,,,,,,,,,,,,,,,,,,,,,,,,,,,,,,,,,,,,false,,,,,,,,,103678.75500000082,103678.61500000072,97511.035,97512.19499999934,97527.746,103694.564,,,,39
rating_sequence,flow.Sequence,2_4_2_1_1,2021-05-24T16:13:05.562Z,,,,,,,,,,,,,,,,,,,,,,,,,,,,,,,,,,,,,,,,,,,,,,,,,,,,,,,,,,,,,,,,,,,,,,,,,,,,,,,,,,,,,,,,,,,,,,,,,,,,,,,,,,,,,,,,,,,,6650.875000000713,,completion,,,,unhealthy,,chocolate.png,,,,,,,,,,,,,,,chocolate,,,,,,,,,,,,,,,,,,,,,,,,,,,,,,,,,,,,,,,,,,,,,,,,,,,,,,,,,false,,,,,,,,,103678.87499999779,103678.61500000072,97011.068,97014.19499999975,97027.74,103694.564,,,,
fixCross,canvas.Screen,2_4_2_1_2_0,2021-05-24T16:13:06.061Z,,,,,,,,,,,,,,,,,,,,,,,,,,,,,,,,,,,,,,,,,,,,,,,,,,,,,,,,,,,,,,,,,,,,,,,,,,,,,,,,,,,,,,,,,,,,,,,,,,,,,,,,,,,,,,,,,,,,500.0109999999986,,timeout,,,,unhealthy,,gummybear.png,,,,,,,,,,,,,,,gummybear,,,,,,,,,,,,,,,,,,,,,,,,,,,,,,,,,,,,,,,,,,,,,,,,,,,,,,,,,false,,,,,,,,,104178.42499999824,104177.905,103677.919,103678.9549999994,103694.564,104194.575,,,,
Rating,html.Form,2_4_2_1_2_1,2021-05-24T16:13:10.281Z,,,,,,,,,,,,,,,,,,,,,,,,,,,,,,,,,,,,,,,,,,,,,,,,,,,,,,,,,,,,,,,,,,,,,,,,,,,,,,,,,,,,,,,,,,,,,,,,,,,,,,,,,,,,,,,,,,,,4203.889999998399,,form submission,,,,unhealthy,,gummybear.png,,,,,,,,,,,,,,,gummybear,,,,,,,,,,,,,,,,,,,,,,,,,,,,,,,,,,,,,,,,,,,,,,,,,,,,,,,,,false,,,,,,,,,108398.62499999799,108398.4649999984,104177.905,104178.53000000105,104194.575,108411.323,,,,97
rating_sequence,flow.Sequence,2_4_2_1_2,2021-05-24T16:13:10.282Z,,,,,,,,,,,,,,,,,,,,,,,,,,,,,,,,,,,,,,,,,,,,,,,,,,,,,,,,,,,,,,,,,,,,,,,,,,,,,,,,,,,,,,,,,,,,,,,,,,,,,,,,,,,,,,,,,,,,4703.900999998397,,completion,,,,unhealthy,,gummybear.png,,,,,,,,,,,,,,,gummybear,,,,,,,,,,,,,,,,,,,,,,,,,,,,,,,,,,,,,,,,,,,,,,,,,,,,,,,,,false,,,,,,,,,108398.77499999784,108398.4649999984,103677.919,103678.92999999822,103694.564,108411.323,,,,
fixCross,canvas.Screen,2_4_2_1_3_0,2021-05-24T16:13:10.778Z,,,,,,,,,,,,,,,,,,,,,,,,,,,,,,,,,,,,,,,,,,,,,,,,,,,,,,,,,,,,,,,,,,,,,,,,,,,,,,,,,,,,,,,,,,,,,,,,,,,,,,,,,,,,,,,,,,,,499.90200000000186,,timeout,,,,healthy,,blueberry.png,,,,,,,,,,,,,,,blueberry,,,,,,,,,,,,,,,,,,,,,,,,,,,,,,,,,,,,,,,,,,,,,,,,,,,,,,,,,false,,,,,,,,,108895.18999999927,108894.597,108394.621,108398.87499999895,108411.323,108911.225,,,,
Rating,html.Form,2_4_2_1_3_1,2021-05-24T16:13:14.770Z,,,,,,,,,,,,,,,,,,,,,,,,,,,,,,,,,,,,,,,,,,,,,,,,,,,,,,,,,,,,,,,,,,,,,,,,,,,,,,,,,,,,,,,,,,,,,,,,,,,,,,,,,,,,,,,,,,,,3975.4800000007963,,form submission,,,,healthy,,blueberry.png,,,,,,,,,,,,,,,blueberry,,,,,,,,,,,,,,,,,,,,,,,,,,,,,,,,,,,,,,,,,,,,,,,,,,,,,,,,,false,,,,,,,,,112886.84999999896,112886.7050000008,108894.597,108895.27499999895,108911.225,112894.656,,,,39
rating_sequence,flow.Sequence,2_4_2_1_3,2021-05-24T16:13:14.770Z,,,,,,,,,,,,,,,,,,,,,,,,,,,,,,,,,,,,,,,,,,,,,,,,,,,,,,,,,,,,,,,,,,,,,,,,,,,,,,,,,,,,,,,,,,,,,,,,,,,,,,,,,,,,,,,,,,,,4475.382000000798,,completion,,,,healthy,,blueberry.png,,,,,,,,,,,,,,,blueberry,,,,,,,,,,,,,,,,,,,,,,,,,,,,,,,,,,,,,,,,,,,,,,,,,,,,,,,,,false,,,,,,,,,112886.97999999931,112886.7050000008,108394.621,108398.83999999802,108411.323,112894.656,,,,
fixCross,canvas.Screen,2_4_2_1_4_0,2021-05-24T16:13:15.261Z,,,,,,,,,,,,,,,,,,,,,,,,,,,,,,,,,,,,,,,,,,,,,,,,,,,,,,,,,,,,,,,,,,,,,,,,,,,,,,,,,,,,,,,,,,,,,,,,,,,,,,,,,,,,,,,,,,,,500.06999999999243,,timeout,,,,healthy,,strawberry.png,,,,,,,,,,,,,,,strawberry,,,,,,,,,,,,,,,,,,,,,,,,,,,,,,,,,,,,,,,,,,,,,,,,,,,,,,,,,false,,,,,,,,,113378.51999999839,113378.041,112878.069,112887.07000000068,112894.656,113394.726,,,,
Rating,html.Form,2_4_2_1_4_1,2021-05-24T16:13:18.079Z,,,,,,,,,,,,,,,,,,,,,,,,,,,,,,,,,,,,,,,,,,,,,,,,,,,,,,,,,,,,,,,,,,,,,,,,,,,,,,,,,,,,,,,,,,,,,,,,,,,,,,,,,,,,,,,,,,,,2801.8040000010806,,form submission,,,,healthy,,strawberry.png,,,,,,,,,,,,,,,strawberry,,,,,,,,,,,,,,,,,,,,,,,,,,,,,,,,,,,,,,,,,,,,,,,,,,,,,,,,,false,,,,,,,,,116196.67499999923,116196.53000000108,113378.041,113378.68999999773,113394.726,116211.466,,,,95
rating_sequence,flow.Sequence,2_4_2_1_4,2021-05-24T16:13:18.080Z,,,,,,,,,,,,,,,,,,,,,,,,,,,,,,,,,,,,,,,,,,,,,,,,,,,,,,,,,,,,,,,,,,,,,,,,,,,,,,,,,,,,,,,,,,,,,,,,,,,,,,,,,,,,,,,,,,,,3301.874000001073,,completion,,,,healthy,,strawberry.png,,,,,,,,,,,,,,,strawberry,,,,,,,,,,,,,,,,,,,,,,,,,,,,,,,,,,,,,,,,,,,,,,,,,,,,,,,,,false,,,,,,,,,116196.82000000103,116196.53000000108,112878.069,112887.04499999949,112894.656,116211.466,,,,
fixCross,canvas.Screen,2_4_2_1_5_0,2021-05-24T16:13:18.579Z,,,,,,,,,,,,,,,,,,,,,,,,,,,,,,,,,,,,,,,,,,,,,,,,,,,,,,,,,,,,,,,,,,,,,,,,,,,,,,,,,,,,,,,,,,,,,,,,,,,,,,,,,,,,,,,,,,,,499.95500000000175,,timeout,,,,unhealthy,,praline.png,,,,,,,,,,,,,,,praline,,,,,,,,,,,,,,,,,,,,,,,,,,,,,,,,,,,,,,,,,,,,,,,,,,,,,,,,,false,,,,,,,,,116695.78999999794,116694.832,116194.812,116196.91500000044,116211.466,116711.421,,,,
Rating,html.Form,2_4_2_1_5_1,2021-05-24T16:13:22.916Z,,,,,,,,,,,,,,,,,,,,,,,,,,,,,,,,,,,,,,,,,,,,,,,,,,,,,,,,,,,,,,,,,,,,,,,,,,,,,,,,,,,,,,,,,,,,,,,,,,,,,,,,,,,,,,,,,,,,4321.278999999748,,form submission,,,,unhealthy,,praline.png,,,,,,,,,,,,,,,praline,,,,,,,,,,,,,,,,,,,,,,,,,,,,,,,,,,,,,,,,,,,,,,,,,,,,,,,,,false,,,,,,,,,121032.8449999979,121032.69999999975,116694.832,116696.10499999908,116711.421,121044.786,,,,86
rating_sequence,flow.Sequence,2_4_2_1_5,2021-05-24T16:13:22.916Z,,,,,,,,,,,,,,,,,,,,,,,,,,,,,,,,,,,,,,,,,,,,,,,,,,,,,,,,,,,,,,,,,,,,,,,,,,,,,,,,,,,,,,,,,,,,,,,,,,,,,,,,,,,,,,,,,,,,4821.233999999749,,completion,,,,unhealthy,,praline.png,,,,,,,,,,,,,,,praline,,,,,,,,,,,,,,,,,,,,,,,,,,,,,,,,,,,,,,,,,,,,,,,,,,,,,,,,,false,,,,,,,,,121032.9700000002,121032.69999999975,116194.812,116196.8850000012,116211.466,121044.786,,,,
fixCross,canvas.Screen,2_4_2_1_6_0,2021-05-24T16:13:23.412Z,,,,,,,,,,,,,,,,,,,,,,,,,,,,,,,,,,,,,,,,,,,,,,,,,,,,,,,,,,,,,,,,,,,,,,,,,,,,,,,,,,,,,,,,,,,,,,,,,,,,,,,,,,,,,,,,,,,,500.0880000000034,,timeout,,,,unhealthy,,m&m.png,,,,,,,,,,,,,,,m&m,,,,,,,,,,,,,,,,,,,,,,,,,,,,,,,,,,,,,,,,,,,,,,,,,,,,,,,,,false,,,,,,,,,121529.32499999952,121528.246,121028.197,121033.05999999793,121044.786,121544.874,,,,
Rating,html.Form,2_4_2_1_6_1,2021-05-24T16:13:27.966Z,,,,,,,,,,,,,,,,,,,,,,,,,,,,,,,,,,,,,,,,,,,,,,,,,,,,,,,,,,,,,,,,,,,,,,,,,,,,,,,,,,,,,,,,,,,,,,,,,,,,,,,,,,,,,,,,,,,,4537.701000000365,,form submission,,,,unhealthy,,m&m.png,,,,,,,,,,,,,,,m&m,,,,,,,,,,,,,,,,,,,,,,,,,,,,,,,,,,,,,,,,,,,,,,,,,,,,,,,,,false,,,,,,,,,126082.72999999826,126082.57500000036,121528.246,121529.70999999889,121544.874,126094.904,,,,83
rating_sequence,flow.Sequence,2_4_2_1_6,2021-05-24T16:13:27.966Z,,,,,,,,,,,,,,,,,,,,,,,,,,,,,,,,,,,,,,,,,,,,,,,,,,,,,,,,,,,,,,,,,,,,,,,,,,,,,,,,,,,,,,,,,,,,,,,,,,,,,,,,,,,,,,,,,,,,5037.789000000368,,completion,,,,unhealthy,,m&m.png,,,,,,,,,,,,,,,m&m,,,,,,,,,,,,,,,,,,,,,,,,,,,,,,,,,,,,,,,,,,,,,,,,,,,,,,,,,false,,,,,,,,,126082.86999999837,126082.57500000036,121028.197,121033.03500000038,121044.786,126094.904,,,,
fixCross,canvas.Screen,2_4_2_1_7_0,2021-05-24T16:13:28.463Z,,,,,,,,,,,,,,,,,,,,,,,,,,,,,,,,,,,,,,,,,,,,,,,,,,,,,,,,,,,,,,,,,,,,,,,,,,,,,,,,,,,,,,,,,,,,,,,,,,,,,,,,,,,,,,,,,,,,500.09500000000116,,timeout,,,,healthy,,pear.png,,,,,,,,,,,,,,,pear,,,,,,,,,,,,,,,,,,,,,,,,,,,,,,,,,,,,,,,,,,,,,,,,,,,,,,,,,false,,,,,,,,,126580.25500000076,126578.417,126078.307,126082.96499999778,126094.904,126594.999,,,,
Rating,html.Form,2_4_2_1_7_1,2021-05-24T16:13:31.166Z,,,,,,,,,,,,,,,,,,,,,,,,,,,,,,,,,,,,,,,,,,,,,,,,,,,,,,,,,,,,,,,,,,,,,,,,,,,,,,,,,,,,,,,,,,,,,,,,,,,,,,,,,,,,,,,,,,,,2687.8809999988443,,form submission,,,,healthy,,pear.png,,,,,,,,,,,,,,,pear,,,,,,,,,,,,,,,,,,,,,,,,,,,,,,,,,,,,,,,,,,,,,,,,,,,,,,,,,false,,,,,,,,,129283.01500000089,129282.87999999884,126578.417,126580.65999999963,126594.999,129295.059,,,,65
rating_sequence,flow.Sequence,2_4_2_1_7,2021-05-24T16:13:31.166Z,,,,,,,,,,,,,,,,,,,,,,,,,,,,,,,,,,,,,,,,,,,,,,,,,,,,,,,,,,,,,,,,,,,,,,,,,,,,,,,,,,,,,,,,,,,,,,,,,,,,,,,,,,,,,,,,,,,,3187.9759999988455,,completion,,,,healthy,,pear.png,,,,,,,,,,,,,,,pear,,,,,,,,,,,,,,,,,,,,,,,,,,,,,,,,,,,,,,,,,,,,,,,,,,,,,,,,,false,,,,,,,,,129283.13999999955,129282.87999999884,126078.307,126082.94000000024,126094.904,129295.059,,,,
fixCross,canvas.Screen,2_4_2_1_8_0,2021-05-24T16:13:31.662Z,,,,,,,,,,,,,,,,,,,,,,,,,,,,,,,,,,,,,,,,,,,,,,,,,,,,,,,,,,,,,,,,,,,,,,,,,,,,,,,,,,,,,,,,,,,,,,,,,,,,,,,,,,,,,,,,,,,,500.03600000000733,,timeout,,,,unhealthy,,maltesers.png,,,,,,,,,,,,,,,malteser,,,,,,,,,,,,,,,,,,,,,,,,,,,,,,,,,,,,,,,,,,,,,,,,,,,,,,,,,false,,,,,,,,,129778.7900000003,129778.399,129278.405,129283.23000000091,129295.059,129795.095,,,,
Rating,html.Form,2_4_2_1_8_1,2021-05-24T16:13:57.626Z,,,,,,,,,,,,,,,,,,,,,,,,,,,,,,,,,,,,,,,,,,,,,,,,,,,,,,,,,,,,,,,,,,,,,,,,,,,,,,,,,,,,,,,,,,,,,,,,,,,,,,,,,,,,,,,,,,,,25947.385000000795,,form submission,,,,unhealthy,,maltesers.png,,,,,,,,,,,,,,,malteser,,,,,,,,,,,,,,,,,,,,,,,,,,,,,,,,,,,,,,,,,,,,,,,,,,,,,,,,,false,,,,,,,,,155742.6349999987,155742.4800000008,129778.399,129778.90000000116,129795.095,155745.501,,,,73
rating_sequence,flow.Sequence,2_4_2_1_8,2021-05-24T16:13:57.626Z,,,,,,,,,,,,,,,,,,,,,,,,,,,,,,,,,,,,,,,,,,,,,,,,,,,,,,,,,,,,,,,,,,,,,,,,,,,,,,,,,,,,,,,,,,,,,,,,,,,,,,,,,,,,,,,,,,,,26447.421000000802,,completion,,,,unhealthy,,maltesers.png,,,,,,,,,,,,,,,malteser,,,,,,,,,,,,,,,,,,,,,,,,,,,,,,,,,,,,,,,,,,,,,,,,,,,,,,,,,false,,,,,,,,,155742.7749999988,155742.4800000008,129278.405,129283.20499999973,129295.059,155745.501,,,,
fixCross,canvas.Screen,2_4_2_1_9_0,2021-05-24T16:13:58.113Z,,,,,,,,,,,,,,,,,,,,,,,,,,,,,,,,,,,,,,,,,,,,,,,,,,,,,,,,,,,,,,,,,,,,,,,,,,,,,,,,,,,,,,,,,,,,,,,,,,,,,,,,,,,,,,,,,,,,500.1240000000107,,timeout,,,,unhealthy,,liqorice.png,,,,,,,,,,,,,,,liquorice,,,,,,,,,,,,,,,,,,,,,,,,,,,,,,,,,,,,,,,,,,,,,,,,,,,,,,,,,false,,,,,,,,,156229.79000000123,156228.957,155728.89,155742.86500000017,155745.501,156245.625,,,,
Rating,html.Form,2_4_2_1_9_1,2021-05-24T16:14:04.438Z,,,,,,,,,,,,,,,,,,,,,,,,,,,,,,,,,,,,,,,,,,,,,,,,,,,,,,,,,,,,,,,,,,,,,,,,,,,,,,,,,,,,,,,,,,,,,,,,,,,,,,,,,,,,,,,,,,,,6308.925000000745,,form submission,,,,unhealthy,,liqorice.png,,,,,,,,,,,,,,,liquorice,,,,,,,,,,,,,,,,,,,,,,,,,,,,,,,,,,,,,,,,,,,,,,,,,,,,,,,,,false,,,,,,,,,162554.69000000085,162554.55000000075,156228.957,156230.18500000035,156245.625,162562.394,,,,10
rating_sequence,flow.Sequence,2_4_2_1_9,2021-05-24T16:14:04.438Z,,,,,,,,,,,,,,,,,,,,,,,,,,,,,,,,,,,,,,,,,,,,,,,,,,,,,,,,,,,,,,,,,,,,,,,,,,,,,,,,,,,,,,,,,,,,,,,,,,,,,,,,,,,,,,,,,,,,6809.049000000756,,completion,,,,unhealthy,,liqorice.png,,,,,,,,,,,,,,,liquorice,,,,,,,,,,,,,,,,,,,,,,,,,,,,,,,,,,,,,,,,,,,,,,,,,,,,,,,,,false,,,,,,,,,162554.8149999995,162554.55000000075,155728.89,155742.83999999898,155745.501,162562.394,,,,
fixCross,canvas.Screen,2_4_2_1_10_0,2021-05-24T16:14:04.930Z,,,,,,,,,,,,,,,,,,,,,,,,,,,,,,,,,,,,,,,,,,,,,,,,,,,,,,,,,,,,,,,,,,,,,,,,,,,,,,,,,,,,,,,,,,,,,,,,,,,,,,,,,,,,,,,,,,,,499.8949999999895,,timeout,,,,healthy,,grape.png,,,,,,,,,,,,,,,grape,,,,,,,,,,,,,,,,,,,,,,,,,,,,,,,,,,,,,,,,,,,,,,,,,,,,,,,,,false,,,,,,,,,163046.8550000005,163045.714,162545.655,162554.90500000087,162562.394,163062.289,,,,
Rating,html.Form,2_4_2_1_10_1,2021-05-24T16:14:07.774Z,,,,,,,,,,,,,,,,,,,,,,,,,,,,,,,,,,,,,,,,,,,,,,,,,,,,,,,,,,,,,,,,,,,,,,,,,,,,,,,,,,,,,,,,,,,,,,,,,,,,,,,,,,,,,,,,,,,,2828.210999997711,,form submission,,,,healthy,,grape.png,,,,,,,,,,,,,,,grape,,,,,,,,,,,,,,,,,,,,,,,,,,,,,,,,,,,,,,,,,,,,,,,,,,,,,,,,,false,,,,,,,,,165890.6449999995,165890.4999999977,163045.714,163047.2750000008,163062.289,165895.747,,,,61
rating_sequence,flow.Sequence,2_4_2_1_10,2021-05-24T16:14:07.774Z,,,,,,,,,,,,,,,,,,,,,,,,,,,,,,,,,,,,,,,,,,,,,,,,,,,,,,,,,,,,,,,,,,,,,,,,,,,,,,,,,,,,,,,,,,,,,,,,,,,,,,,,,,,,,,,,,,,,3328.1059999977006,,completion,,,,healthy,,grape.png,,,,,,,,,,,,,,,grape,,,,,,,,,,,,,,,,,,,,,,,,,,,,,,,,,,,,,,,,,,,,,,,,,,,,,,,,,false,,,,,,,,,165890.7799999979,165890.4999999977,162545.655,162554.87999999968,162562.394,165895.747,,,,
fixCross,canvas.Screen,2_4_2_1_11_0,2021-05-24T16:14:08.263Z,,,,,,,,,,,,,,,,,,,,,,,,,,,,,,,,,,,,,,,,,,,,,,,,,,,,,,,,,,,,,,,,,,,,,,,,,,,,,,,,,,,,,,,,,,,,,,,,,,,,,,,,,,,,,,,,,,,,500.0480000000098,,timeout,,,,unhealthy,,marshmallow.png,,,,,,,,,,,,,,,marshmallow,,,,,,,,,,,,,,,,,,,,,,,,,,,,,,,,,,,,,,,,,,,,,,,,,,,,,,,,,false,,,,,,,,,166379.84499999948,166379.056,165879.075,165890.87999999902,165895.747,166395.795,,,,
Rating,html.Form,2_4_2_1_11_1,2021-05-24T16:14:10.650Z,,,,,,,,,,,,,,,,,,,,,,,,,,,,,,,,,,,,,,,,,,,,,,,,,,,,,,,,,,,,,,,,,,,,,,,,,,,,,,,,,,,,,,,,,,,,,,,,,,,,,,,,,,,,,,,,,,,,2371.019999999029,,form submission,,,,unhealthy,,marshmallow.png,,,,,,,,,,,,,,,marshmallow,,,,,,,,,,,,,,,,,,,,,,,,,,,,,,,,,,,,,,,,,,,,,,,,,,,,,,,,,false,,,,,,,,,168766.9649999989,168766.81499999904,166379.056,166379.99499999933,166395.795,168779.165,,,,84
rating_sequence,flow.Sequence,2_4_2_1_11,2021-05-24T16:14:10.650Z,,,,,,,,,,,,,,,,,,,,,,,,,,,,,,,,,,,,,,,,,,,,,,,,,,,,,,,,,,,,,,,,,,,,,,,,,,,,,,,,,,,,,,,,,,,,,,,,,,,,,,,,,,,,,,,,,,,,2871.067999999039,,completion,,,,unhealthy,,marshmallow.png,,,,,,,,,,,,,,,marshmallow,,,,,,,,,,,,,,,,,,,,,,,,,,,,,,,,,,,,,,,,,,,,,,,,,,,,,,,,,false,,,,,,,,,168767.0799999978,168766.81499999904,165879.075,165890.84999999977,165895.747,168779.165,,,,
fixCross,canvas.Screen,2_4_2_1_12_0,2021-05-24T16:14:11.147Z,,,,,,,,,,,,,,,,,,,,,,,,,,,,,,,,,,,,,,,,,,,,,,,,,,,,,,,,,,,,,,,,,,,,,,,,,,,,,,,,,,,,,,,,,,,,,,,,,,,,,,,,,,,,,,,,,,,,500.00800000000163,,timeout,,,,unhealthy,,chocolate_truffle.png,,,,,,,,,,,,,,,chocolate truffle,,,,,,,,,,,,,,,,,,,,,,,,,,,,,,,,,,,,,,,,,,,,,,,,,,,,,,,,,false,,,,,,,,,169263.66499999858,169262.528,168762.452,168767.15499999773,168779.165,169279.173,,,,
Rating,html.Form,2_4_2_1_12_1,2021-05-24T16:14:13.500Z,,,,,,,,,,,,,,,,,,,,,,,,,,,,,,,,,,,,,,,,,,,,,,,,,,,,,,,,,,,,,,,,,,,,,,,,,,,,,,,,,,,,,,,,,,,,,,,,,,,,,,,,,,,,,,,,,,,,2337.3920000002545,,form submission,,,,unhealthy,,chocolate_truffle.png,,,,,,,,,,,,,,,chocolate truffle,,,,,,,,,,,,,,,,,,,,,,,,,,,,,,,,,,,,,,,,,,,,,,,,,,,,,,,,,false,,,,,,,,,171616.70500000037,171616.56500000026,169262.528,169264.07499999914,169279.173,171629.141,,,,68
rating_sequence,flow.Sequence,2_4_2_1_12,2021-05-24T16:14:13.500Z,,,,,,,,,,,,,,,,,,,,,,,,,,,,,,,,,,,,,,,,,,,,,,,,,,,,,,,,,,,,,,,,,,,,,,,,,,,,,,,,,,,,,,,,,,,,,,,,,,,,,,,,,,,,,,,,,,,,2837.400000000256,,completion,,,,unhealthy,,chocolate_truffle.png,,,,,,,,,,,,,,,chocolate truffle,,,,,,,,,,,,,,,,,,,,,,,,,,,,,,,,,,,,,,,,,,,,,,,,,,,,,,,,,false,,,,,,,,,171616.84500000047,171616.56500000026,168762.452,168767.13000000018,168779.165,171629.141,,,,
fixCross,canvas.Screen,2_4_2_1_13_0,2021-05-24T16:14:13.996Z,,,,,,,,,,,,,,,,,,,,,,,,,,,,,,,,,,,,,,,,,,,,,,,,,,,,,,,,,,,,,,,,,,,,,,,,,,,,,,,,,,,,,,,,,,,,,,,,,,,,,,,,,,,,,,,,,,,,500.08499999999185,,timeout,,,,healthy,,cherry.png,,,,,,,,,,,,,,,cherry,,,,,,,,,,,,,,,,,,,,,,,,,,,,,,,,,,,,,,,,,,,,,,,,,,,,,,,,,false,,,,,,,,,172113.02499999874,172112.557,171612.523,171616.9399999999,171629.141,172129.226,,,,
Rating,html.Form,2_4_2_1_13_1,2021-05-24T16:14:15.962Z,,,,,,,,,,,,,,,,,,,,,,,,,,,,,,,,,,,,,,,,,,,,,,,,,,,,,,,,,,,,,,,,,,,,,,,,,,,,,,,,,,,,,,,,,,,,,,,,,,,,,,,,,,,,,,,,,,,,1949.2140000011423,,form submission,,,,healthy,,cherry.png,,,,,,,,,,,,,,,cherry,,,,,,,,,,,,,,,,,,,,,,,,,,,,,,,,,,,,,,,,,,,,,,,,,,,,,,,,,false,,,,,,,,,174078.56999999785,174078.44000000114,172112.557,172113.18499999834,172129.226,174107.929,,,,56
rating_sequence,flow.Sequence,2_4_2_1_13,2021-05-24T16:14:15.962Z,,,,,,,,,,,,,,,,,,,,,,,,,,,,,,,,,,,,,,,,,,,,,,,,,,,,,,,,,,,,,,,,,,,,,,,,,,,,,,,,,,,,,,,,,,,,,,,,,,,,,,,,,,,,,,,,,,,,2449.299000001134,,completion,,,,healthy,,cherry.png,,,,,,,,,,,,,,,cherry,,,,,,,,,,,,,,,,,,,,,,,,,,,,,,,,,,,,,,,,,,,,,,,,,,,,,,,,,false,,,,,,,,,174078.68999999846,174078.44000000114,171612.523,171616.91000000064,171629.141,174107.929,,,,
fixCross,canvas.Screen,2_4_2_1_14_0,2021-05-24T16:14:16.480Z,,,,,,,,,,,,,,,,,,,,,,,,,,,,,,,,,,,,,,,,,,,,,,,,,,,,,,,,,,,,,,,,,,,,,,,,,,,,,,,,,,,,,,,,,,,,,,,,,,,,,,,,,,,,,,,,,,,,504.61900000000605,,timeout,,,,healthy,,coconut.png,,,,,,,,,,,,,,,coconut,,,,,,,,,,,,,,,,,,,,,,,,,,,,,,,,,,,,,,,,,,,,,,,,,,,,,,,,,false,,,,,,,,,174597.16000000117,174596.019,174062.606,174078.77999999982,174107.929,174612.548,,,,
Rating,html.Form,2_4_2_1_14_1,2021-05-24T16:14:19.006Z,,,,,,,,,,,,,,,,,,,,,,,,,,,,,,,,,,,,,,,,,,,,,,,,,,,,,,,,,,,,,,,,,,,,,,,,,,,,,,,,,,,,,,,,,,,,,,,,,,,,,,,,,,,,,,,,,,,,2509.982000000542,,form submission,,,,healthy,,coconut.png,,,,,,,,,,,,,,,coconut,,,,,,,,,,,,,,,,,,,,,,,,,,,,,,,,,,,,,,,,,,,,,,,,,,,,,,,,,false,,,,,,,,,177122.66499999896,177122.53000000055,174596.019,174597.58499999953,174612.548,177129.228,,,,58
rating_sequence,flow.Sequence,2_4_2_1_14,2021-05-24T16:14:19.006Z,,,,,,,,,,,,,,,,,,,,,,,,,,,,,,,,,,,,,,,,,,,,,,,,,,,,,,,,,,,,,,,,,,,,,,,,,,,,,,,,,,,,,,,,,,,,,,,,,,,,,,,,,,,,,,,,,,,,3014.601000000548,,completion,,,,healthy,,coconut.png,,,,,,,,,,,,,,,coconut,,,,,,,,,,,,,,,,,,,,,,,,,,,,,,,,,,,,,,,,,,,,,,,,,,,,,,,,,false,,,,,,,,,177122.80499999906,177122.53000000055,174062.606,174078.75499999864,174107.929,177129.228,,,,
fixCross,canvas.Screen,2_4_2_1_15_0,2021-05-24T16:14:19.496Z,,,,,,,,,,,,,,,,,,,,,,,,,,,,,,,,,,,,,,,,,,,,,,,,,,,,,,,,,,,,,,,,,,,,,,,,,,,,,,,,,,,,,,,,,,,,,,,,,,,,,,,,,,,,,,,,,,,,500.05100000000675,,timeout,,,,healthy,,raspberry.png,,,,,,,,,,,,,,,raspberry,,,,,,,,,,,,,,,,,,,,,,,,,,,,,,,,,,,,,,,,,,,,,,,,,,,,,,,,,false,,,,,,,,,177613.2749999997,177612.655,177112.676,177122.89999999848,177129.228,177629.279,,,,
Rating,html.Form,2_4_2_1_15_1,2021-05-24T16:14:23.232Z,,,,,,,,,,,,,,,,,,,,,,,,,,,,,,,,,,,,,,,,,,,,,,,,,,,,,,,,,,,,,,,,,,,,,,,,,,,,,,,,,,,,,,,,,,,,,,,,,,,,,,,,,,,,,,,,,,,,3719.195999998861,,form submission,,,,healthy,,raspberry.png,,,,,,,,,,,,,,,raspberry,,,,,,,,,,,,,,,,,,,,,,,,,,,,,,,,,,,,,,,,,,,,,,,,,,,,,,,,,false,,,,,,,,,181348.61000000092,181348.47499999887,177612.655,177613.38999999862,177629.279,181362.748,,,,96
rating_sequence,flow.Sequence,2_4_2_1_15,2021-05-24T16:14:23.232Z,,,,,,,,,,,,,,,,,,,,,,,,,,,,,,,,,,,,,,,,,,,,,,,,,,,,,,,,,,,,,,,,,,,,,,,,,,,,,,,,,,,,,,,,,,,,,,,,,,,,,,,,,,,,,,,,,,,,4219.246999998868,,completion,,,,healthy,,raspberry.png,,,,,,,,,,,,,,,raspberry,,,,,,,,,,,,,,,,,,,,,,,,,,,,,,,,,,,,,,,,,,,,,,,,,,,,,,,,,false,,,,,,,,,181348.73499999958,181348.47499999887,177112.676,177122.86500000118,177129.228,181362.748,,,,
fixCross,canvas.Screen,2_4_2_1_16_0,2021-05-24T16:14:23.730Z,,,,,,,,,,,,,,,,,,,,,,,,,,,,,,,,,,,,,,,,,,,,,,,,,,,,,,,,,,,,,,,,,,,,,,,,,,,,,,,,,,,,,,,,,,,,,,,,,,,,,,,,,,,,,,,,,,,,499.9900000000198,,timeout,,,,healthy,,apple.png,,,,,,,,,,,,,,,apple,,,,,,,,,,,,,,,,,,,,,,,,,,,,,,,,,,,,,,,,,,,,,,,,,,,,,,,,,false,,,,,,,,,181847.05499999836,181846.062,181346.089,181348.82500000094,181362.748,181862.738,,,,
Rating,html.Form,2_4_2_1_16_1,2021-05-24T16:14:26.638Z,,,,,,,,,,,,,,,,,,,,,,,,,,,,,,,,,,,,,,,,,,,,,,,,,,,,,,,,,,,,,,,,,,,,,,,,,,,,,,,,,,,,,,,,,,,,,,,,,,,,,,,,,,,,,,,,,,,,2891.7319999998435,,form submission,,,,healthy,,apple.png,,,,,,,,,,,,,,,apple,,,,,,,,,,,,,,,,,,,,,,,,,,,,,,,,,,,,,,,,,,,,,,,,,,,,,,,,,false,,,,,,,,,184754.60999999996,184754.46999999986,181846.062,181847.45000000112,181862.738,184762.779,,,,83
rating_sequence,flow.Sequence,2_4_2_1_16,2021-05-24T16:14:26.638Z,,,,,,,,,,,,,,,,,,,,,,,,,,,,,,,,,,,,,,,,,,,,,,,,,,,,,,,,,,,,,,,,,,,,,,,,,,,,,,,,,,,,,,,,,,,,,,,,,,,,,,,,,,,,,,,,,,,,3391.7219999998633,,completion,,,,healthy,,apple.png,,,,,,,,,,,,,,,apple,,,,,,,,,,,,,,,,,,,,,,,,,,,,,,,,,,,,,,,,,,,,,,,,,,,,,,,,,false,,,,,,,,,184754.75000000006,184754.46999999986,181346.089,181348.79999999976,181362.748,184762.779,,,,
fixCross,canvas.Screen,2_4_2_1_17_0,2021-05-24T16:14:27.130Z,,,,,,,,,,,,,,,,,,,,,,,,,,,,,,,,,,,,,,,,,,,,,,,,,,,,,,,,,,,,,,,,,,,,,,,,,,,,,,,,,,,,,,,,,,,,,,,,,,,,,,,,,,,,,,,,,,,,500.0589999999793,,timeout,,,,unhealthy,,candy.png,,,,,,,,,,,,,,,candy,,,,,,,,,,,,,,,,,,,,,,,,,,,,,,,,,,,,,,,,,,,,,,,,,,,,,,,,,false,,,,,,,,,185247.06499999957,185246.171,184746.062,184754.85000000117,184762.779,185262.838,,,,
Rating,html.Form,2_4_2_1_17_1,2021-05-24T16:14:29.664Z,,,,,,,,,,,,,,,,,,,,,,,,,,,,,,,,,,,,,,,,,,,,,,,,,,,,,,,,,,,,,,,,,,,,,,,,,,,,,,,,,,,,,,,,,,,,,,,,,,,,,,,,,,,,,,,,,,,,2518.126999998116,,form submission,,,,unhealthy,,candy.png,,,,,,,,,,,,,,,candy,,,,,,,,,,,,,,,,,,,,,,,,,,,,,,,,,,,,,,,,,,,,,,,,,,,,,,,,,false,,,,,,,,,187781.09499999846,187780.9649999981,185246.171,185247.39000000045,185262.838,187796.135,,,,63
rating_sequence,flow.Sequence,2_4_2_1_17,2021-05-24T16:14:29.664Z,,,,,,,,,,,,,,,,,,,,,,,,,,,,,,,,,,,,,,,,,,,,,,,,,,,,,,,,,,,,,,,,,,,,,,,,,,,,,,,,,,,,,,,,,,,,,,,,,,,,,,,,,,,,,,,,,,,,3018.185999998095,,completion,,,,unhealthy,,candy.png,,,,,,,,,,,,,,,candy,,,,,,,,,,,,,,,,,,,,,,,,,,,,,,,,,,,,,,,,,,,,,,,,,,,,,,,,,false,,,,,,,,,187781.22000000076,187780.9649999981,184746.062,184754.8199999983,184762.779,187796.135,,,,
rating_loop,flow.Loop,2_4_2_1,2021-05-24T16:14:29.664Z,,,,,,,,,,,,,,,,,,,,,,,,,,,,,,,,,,,,,,,,,,,,,,,,,,,,,,,,,,,,,,,,,,,,,,,,,,,,,,,,,,,,,,,,,,,,,,,,,,,,,,,,,,,,,,,,,,,,96302.9899999981,,completion,,,,,,,,,,,,,,,,,,,,,,,,,,,,,,,,,,,,,,,,,,,,,,,,,,,,,,,,,,,,,,,,,,,,,,,,,,,,,,false,,,,,,,,,187781.33499999967,187780.9649999981,91460.947,91458.09000000008,91477.975,187796.135,,,,
data_transmission,html.Screen,2_4_2_2,2021-05-24T16:14:29.672Z,,,,,,,,,,,,,,,,,,,,,,,,,,,,,,,,,,,,,,,,,,,,,,,,,,,,,,,,,,,,,,,,,,,,,,,,,,,,,,,,,,,,,,,,,,,,,,,,,,,,,,,,,,,,,,,,,,,,NaN,,no compatible backend,,,,,,,,,,,,,,,Transferring data,,,,,,,,,,,,,,,,,,,,,,,,,,,,,,,,,,,,,,,,,,,,,,,,,,,,,,,,,,,,,,,false,,,Please wait a second…,,,,,,187789.10499999984,187788.9499999983,,187781.39999999985,,187796.135,,,,
instructions,html.Screen,2_4_2_3,2021-05-24T16:15:42.909Z,,,,,,,,,,,,,,,,,,,,,,,,,,,,,,,,,,,,,,,,,,,,,,,,,,,,,,,,,,,,,,,,,,,,,,,,,,,,,,,,,,,,,,,,,,,,,,,,,,,,,,,,,,,,,,,,,,,,73228.93999999773,,done,,,,,,,,,,,,,,,,,,,,,,,,,,,,,,,,,,,,,,,,,,,,,,,,,,,,,,,,,,,,,,,,,,,,,,,,,,,,,,false,,,,,,,,,261025.24500000072,261025.07499999774,187779.468,187789.209999999,187796.135,261030.92,,,,
Q1,html.Screen,2_4_2_4_0,2021-05-24T16:15:50.945Z,,,,,,,,,,,,,,,,,,,,,,,,,,,,,,,,,,,,,,,,,,,,,,,,,,,,,,,,,,,,,,,,,,,,,,,,,,,,,,,,,,,,,,,,,,,,,,,,,,,,,,,,,,,,,,,,false,input_Q1==3,,,8028.964999998716,,response,,,,,,,,,,,,,,,,,,,,,,,,,Q1_i1,Q1_i2,Q1_i3,Q1_i4,1,2,3,4,false,false,correct,false,,,,,,,,,,,,,,,,,,,,,,,,,,,,,,,,,,,,,,,,,click #Q1_i3,false,,,,,,,,,269061.6999999984,269059.8849999987,261013.654,261025.39999999863,261030.92,269064.414,,,,
Q1_correct,html.Screen,2_4_2_4_1,2021-05-24T16:15:52.952Z,,,,,,,,,,,,,,,,,,,,,,,,,,,,,,,,,,,,,,,,,,,,,,,,,,,,,,,,,,,,,,,,,,,,,,,,,,,,,,,,,,,,,,,,,,,,,,,,,,,,,,,,,,,,,,,,,,,,2003.565999999817,,response,,,,,,,,,,,,,,,,,,,,,,,,,,,,,,,,,,,,,,,,,,,,,,,,,,,,,,,,,,,,,,,,,,,,,,,,,,,,,keypress,false,,,,,,,,,271068.940000001,271067.9799999998,269047.762,269061.82500000065,269064.414,271081.138,,,,
Q2,html.Screen,2_4_2_4_2,2021-05-24T16:15:59.426Z,,,,,,,,,,,,,,,,,,,,,,,,,,,,,,,,,,,,,,,,,,,,,,,,,,,,,,,,,,,,,,,,,,,,,,,,,,,,,,,,,,,,,,,,,,,,,,,,,,,,,,,,,,,,,,,,,,,,6460.771999999939,,response,,,,,,,,,,,,,,,,,,,,,,,,,,,,,,,,,,,,,Q2_i2,Q2_i3,Q2_i1,Option 2,Same amount,Option 1,opt2,same,correct,,,,,,,,,,,,,,,,,,,,,,,,,,,,,,,,click #Q2_i1,false,,,,,,,,,277542.6449999977,277541.9099999999,271064.279,271069.19500000007,271081.138,277547.826,,,,
Q2_correct,html.Screen,2_4_2_4_3,2021-05-24T16:16:02.092Z,,,,,,,,,,,,,,,,,,,,,,,,,,,,,,,,,,,,,,,,,,,,,,,,,,,,,,,,,,,,,,,,,,,,,,,,,,,,,,,,,,,,,,,,,,,,,,,,,,,,,,,,,,,,,,,,,,,,2661.0590000000084,,response,,,,,,,,,,,,,,,,,,,,,,,,,,,,,,,,,,,,,,,,,,,,,,,,,,,,,,,,,,,,,,,,,,,,,,,,,,,,,keypress,false,,,,,,,,,280209.25999999966,280208.885,277531.217,277542.7500000005,277547.826,280214.597,,,,
Q4,html.Screen,2_4_2_4_4,2021-05-24T16:16:10.639Z,,,,,,,,,,,,,,,,,,,,,,,,,,,,,,,,,,,,,,,,,,,,,,,,,,,,,,,,,,,,,,,,,,,,,,,,,,,,,,,,,,,,,,,,,,,,,,,,,,,,,,,,,,,,,,,,,,,,8541.167999998026,,response,,,,,,,,,,,,,,,,,,,,,,,,,,,,,,,,,,,,,,,,,,,,,,Q4_i4,Q4_i3,Q4_i2,Q4_i1,Press the space key,Press the arrow key that corresponds with the snack option with more food items,Indicate the number of food items in each snack option,Press the arrow key that corresponds with the snack option I prefer,pressspace,morefood,indicate,correct,,,,,,,,,,,,,,,,,,,,click #Q4_i1,false,,,,,,,,,288756.27499999973,288755.76499999803,280197.918,280209.3449999993,280214.597,288764.728,,,,
Q4_correct,html.Screen,2_4_2_4_5,2021-05-24T16:16:12.068Z,,,,,,,,,,,,,,,,,,,,,,,,,,,,,,,,,,,,,,,,,,,,,,,,,,,,,,,,,,,,,,,,,,,,,,,,,,,,,,,,,,,,,,,,,,,,,,,,,,,,,,,,,,,,,,,,,,,,1419.6819999980507,,response,,,,,,,,,,,,,,,,,,,,,,,,,,,,,,,,,,,,,,,,,,,,,,,,,,,,,,,,,,,,,,,,,,,,,,,,,,,,,keypress,false,,,,,,,,,290185.26999999816,290184.40999999805,288748.113,288756.3999999984,288764.728,290198.152,,,,
Q5,html.Screen,2_4_2_4_6,2021-05-24T16:16:21.422Z,,,,,,,,,,,,,,,,,,,,,,,,,,,,,,,,,,,,,,,,,,,,,,,,,,,,,,,,,,,,,,,,,,,,,,,,,,,,,,,,,,,,,,,,,,,,,,,,,,,,,,,,,,,,,,,,,,,,9339.797999998089,,response,,,,,,,,,,,,,,,,,,,,,,,,,,,,,,,,,,,,,,,,,,,,,,,,,,,,,,,,,,Q5_i3,Q5_i2,Q5_i4,Q5_i1,There are more slices of kiwi in snack Option 1,There are more pieces of chocolate in snack Option 2,Snack Option 1 has been chosen,Snack Option 2 has been chosen,morekiwi1,morechoc2,chose1,correct,,,,,,,,click #Q5_i1,false,,,,,,,,,299538.4699999995,299537.9499999981,290181.491,290185.4949999979,290198.152,299548.357,,,,
Q5_correct,html.Screen,2_4_2_4_7,2021-05-24T16:16:22.467Z,,,,,,,,,,,,,,,,,,,,,,,,,,,,,,,,,,,,,,,,,,,,,,,,,,,,,,,,,,,,,,,,,,,,,,,,,,,,,,,,,,,,,,,,,,,,,,,,,,,,,,,,,,,,,,,,,,,,1033.6579999999376,,response,,,,,,,,,,,,,,,,,,,,,,,,,,,,,,,,,,,,,,,,,,,,,,,,,,,,,,,,,,,,,,,,,,,,,,,,,,,,,keypress,false,,,,,,,,,300583.53499999794,300582.01499999996,299531.717,299538.59999999986,299548.357,300598.463,,,,
practice_sequence,flow.Sequence,2_4_2_4,2021-05-24T16:16:22.467Z,,,,,,,,,,,,,,,,,,,,,,,,,,,,,,,,,,,,,,,,,,,,,,,,,,,,,,,,,,,,,,,,,,,,,,,,,,,,,,,,,,,,,,,,,,,,,,,,,,,,,,,,,,,,,,,,,,,,39551.09499999994,,completion,,,,,,,,,,,,,,,,,,,,,,,,,,,,,,,,,,,,,,,,,,,,,,,,,,,,,,,,,,,,,,,,,,,,,,,,,,,,,,false,,,,,,,,,300584.06000000105,300582.01499999996,261013.654,261025.3649999977,261030.92,300598.463,,,,
final_instru,html.Screen,2_4_2_5,2021-05-24T16:16:44.312Z,,,,,,,,,,,,,,,,,,,,,,,,,,,,,,,,,,,,,,,,,,,,,,,,,,,,,,,,,,,,,,,,,,,,,,,,,,,,,,,,,,,,,,,,,,,,,,,,,,,,,,,,,,,,,,,,,,,,21830.56699999934,,done,,,,,,,,,,,,,,,,,,,,,,,,,,,,,,,,,,,,,,,,,,,,,,,,,,,,,,,,,,,,,,,,,,,,,,,,,,,,,,false,,,,,,,,,322429.1799999992,322429.02999999933,300581.754,300584.3449999993,300598.463,322432.069,,,,
blank_screen,canvas.Screen,2_4_2_6_0,2021-05-24T16:16:46.300Z,,,,,,,,,,,,,,,,,,,,,,,,,,,,,,,,,,,,,,,,,,,,,,,,,,,,,,,,,,,,,,,,,,,,,,,,,,,,,,,,,,,,,,,,,,,,,,,,,,,,,,,,,,,,,,,,,,,,2033.4099999999744,,timeout,,,,,,,,,,,,,,,,,,,,,,,,,,,,,,,,,,,,,,,,,,,,,,,,,,,,,,,,,,,,,,,,,,,,,,,,,,,,,,false,,,,,,,,,324417.1849999984,324415.555,322414.67,322429.28000000026,322432.069,324465.479,,,,
fixCross,canvas.Screen,2_4_2_6_1_0_0_0_0_0_0,2021-05-24T16:16:46.935Z,,,blank.png,blank.png,blank.png,blank.png,blank.png,blank.png,blank.png,"[""gummybear.png""]",blank.png,blank.png,blank.png,blank.png,blank.png,,,,,,,,,,,,,,,,,,,,,,,,,,,,,"[""gummybear.png""]","[""raspberry.png""]",PB18.png,,,,,,,,,,,0,6,"[""raspberry.png""]","[""raspberry.png""]","[""raspberry.png""]","[""raspberry.png""]","[""raspberry.png""]","[""raspberry.png""]",blank.png,PB18.png,PB01.png,"[""raspberry.png""]","[""raspberry.png""]","[""raspberry.png""]","[""raspberry.png""]","[""raspberry.png""]","[""raspberry.png""]",blank.png,blank.png,blank.png,blank.png,blank.png,blank.png,1,"[""gummybear.png""]",blank.png,blank.png,blank.png,0,blank.png,blank.png,blank.png,blank.png,blank.png,blank.png,PB01.png,,,,,,,,,,,1,,,,,,,,,,,,,883.3020000000251,,timeout,,,,,,,,,,,,,4,,,,,,,,,,,,,,,,,,,,,,,,,,,,,,,,,,,,,,,,,,,,,,,,,,,,,,,,,"[""raspberry.png""]","[""gummybear.png""]",,,,6,,,false,,1,,,,,,,325051.8549999979,325048.889,324415.555,324464.645,324465.479,325348.781,1,,,
timeout,canvas.Screen,2_4_2_6_1_0_0_0_0_0_1,2021-05-24T16:16:47.717Z,,,blank.png,blank.png,blank.png,blank.png,blank.png,blank.png,blank.png,"[""gummybear.png""]",blank.png,blank.png,blank.png,blank.png,blank.png,,,,,,,,,,,,,,,,,,,,,,,,,,,,,"[""gummybear.png""]","[""raspberry.png""]",PB18.png,,,,,,,,,,,0,6,"[""raspberry.png""]","[""raspberry.png""]","[""raspberry.png""]","[""raspberry.png""]","[""raspberry.png""]","[""raspberry.png""]",blank.png,PB18.png,PB01.png,"[""raspberry.png""]","[""raspberry.png""]","[""raspberry.png""]","[""raspberry.png""]","[""raspberry.png""]","[""raspberry.png""]",blank.png,blank.png,blank.png,blank.png,blank.png,blank.png,1,"[""gummybear.png""]",blank.png,blank.png,blank.png,0,blank.png,blank.png,blank.png,blank.png,blank.png,blank.png,PB01.png,,,,,,,,,,,1,,,,,,,,,,,,,850.1219999999739,,timeout,,,,,,,,,,,,,4,,,,,,,,,,,,,,,,,,,,,,,,,,,,,,,,,,,,,,,,,,,,,,,,,,,,,,,,,"[""raspberry.png""]","[""gummybear.png""]",,,,6,,,false,,1,,,,,,,325833.78000000084,325832.26,325048.889,325476.3549999989,325348.781,326198.903,,,,
choice,canvas.Screen,2_4_2_6_1_0_0_0_0_0_2,2021-05-24T16:16:49.326Z,,,blank.png,blank.png,blank.png,blank.png,blank.png,blank.png,blank.png,"[""gummybear.png""]",blank.png,blank.png,blank.png,blank.png,blank.png,,,,,,,,,,,,,,,,,,,,,,,,,,,,,"[""gummybear.png""]","[""raspberry.png""]",PB18.png,,,,,,,,,,,0,6,"[""raspberry.png""]","[""raspberry.png""]","[""raspberry.png""]","[""raspberry.png""]","[""raspberry.png""]","[""raspberry.png""]",blank.png,PB18.png,PB01.png,"[""raspberry.png""]","[""raspberry.png""]","[""raspberry.png""]","[""raspberry.png""]","[""raspberry.png""]","[""raspberry.png""]",blank.png,blank.png,blank.png,blank.png,blank.png,blank.png,1,"[""gummybear.png""]",blank.png,blank.png,blank.png,0,blank.png,blank.png,blank.png,blank.png,blank.png,blank.png,PB01.png,,,,,,,,,,,1,,,,,,,,,,,,,1242.0619999979972,,response,,,,,,,,,,,,,4,,,,,,,,,,,,,,,,,,,,,,,,,,,,,,,,,,,,,,,,,,,,,,,,,,,,,,,,,"[""raspberry.png""]","[""gummybear.png""]",,,,6,left,keydown(ArrowLeft),false,,1,,,,,,,327442.4299999991,327440.964999998,325832.26,326202.68999999826,326198.903,327832.167,,1,,
square,canvas.Screen,2_4_2_6_1_0_0_0_0_0_3,2021-05-24T16:16:50.699Z,,,blank.png,blank.png,blank.png,blank.png,blank.png,blank.png,blank.png,"[""gummybear.png""]",blank.png,blank.png,blank.png,blank.png,blank.png,,,,,,,,,,,,,,,,,,,,,,,,,,,,,"[""gummybear.png""]","[""raspberry.png""]",PB18.png,,,,,,,,,,,0,6,"[""raspberry.png""]","[""raspberry.png""]","[""raspberry.png""]","[""raspberry.png""]","[""raspberry.png""]","[""raspberry.png""]",blank.png,PB18.png,PB01.png,"[""raspberry.png""]","[""raspberry.png""]","[""raspberry.png""]","[""raspberry.png""]","[""raspberry.png""]","[""raspberry.png""]",blank.png,blank.png,blank.png,blank.png,blank.png,blank.png,1,"[""gummybear.png""]",blank.png,blank.png,blank.png,0,blank.png,blank.png,blank.png,blank.png,blank.png,blank.png,PB01.png,,,,,,,,,,,1,,,#33ff3f,#808080,,,,,,,,,1000.1229999999632,,timeout,,,,,,,,,,,,,4,,,,,,,,,,,,,,,,,,,,,,,,,,,,,,,,,,,,,,,,,,,,,,,,,,,,,,,,,"[""raspberry.png""]","[""gummybear.png""]",,,,6,,,false,,1,,,,,black,white,328816.16999999824,328815.611,327798.86,327808.3750000005,327832.167,328832.29,,,,
ITI_late,canvas.Screen,2_4_2_6_1_0_0_0_0_0_4,2021-05-24T16:16:50.949Z,,,blank.png,blank.png,blank.png,blank.png,blank.png,blank.png,blank.png,"[""gummybear.png""]",blank.png,blank.png,blank.png,blank.png,blank.png,,,,,,,,,,,,,,,,,,,,,,,,,,,,,"[""gummybear.png""]","[""raspberry.png""]",PB18.png,,,,,,,,,,,0,6,"[""raspberry.png""]","[""raspberry.png""]","[""raspberry.png""]","[""raspberry.png""]","[""raspberry.png""]","[""raspberry.png""]",blank.png,PB18.png,PB01.png,"[""raspberry.png""]","[""raspberry.png""]","[""raspberry.png""]","[""raspberry.png""]","[""raspberry.png""]","[""raspberry.png""]",blank.png,blank.png,blank.png,blank.png,blank.png,blank.png,1,"[""gummybear.png""]",blank.png,blank.png,blank.png,0,blank.png,blank.png,blank.png,blank.png,blank.png,blank.png,PB01.png,,,,,,,,,,,1,,,,,,,,,,,,,249.95900000003166,,timeout,,,,,,,,,,,,white,4,,,,,,,,,,,,,,,,,,,,,,,,,,,,,,,,,,,,,,,,,,,,,,,,,,,,,,,,,"[""raspberry.png""]","[""gummybear.png""]",,,,6,,,false,,1,,,,,,,329066.0199999984,329065.527,328815.611,328817.96499999834,328832.29,329082.249,,,,
choice_sequence,flow.Sequence,2_4_2_6_1_0_0_0_0_0,2021-05-24T16:16:50.950Z,,,blank.png,blank.png,blank.png,blank.png,blank.png,blank.png,blank.png,"[""gummybear.png""]",blank.png,blank.png,blank.png,blank.png,blank.png,,,,,,,,,,,,,,,,,,,,,,,,,,,,,"[""gummybear.png""]","[""raspberry.png""]",PB18.png,,,,,,,,,,,0,6,"[""raspberry.png""]","[""raspberry.png""]","[""raspberry.png""]","[""raspberry.png""]","[""raspberry.png""]","[""raspberry.png""]",blank.png,PB18.png,PB01.png,"[""raspberry.png""]","[""raspberry.png""]","[""raspberry.png""]","[""raspberry.png""]","[""raspberry.png""]","[""raspberry.png""]",blank.png,blank.png,blank.png,blank.png,blank.png,blank.png,1,"[""gummybear.png""]",blank.png,blank.png,blank.png,0,blank.png,blank.png,blank.png,blank.png,blank.png,blank.png,PB01.png,,,,,,,,,,,1,,,,,,,,,,,,,4600.04800000001,,completion,,,,,,,,,,,,,4,,,,,,,,,,,,,,,,,,,,,,,,,,,,,,,,,,,,,,,,,,,,,,,,,,,,,,,,,"[""raspberry.png""]","[""gummybear.png""]",,,,6,,,false,,1,,,,,,,329066.35499999905,329065.527,324415.555,324463.4699999988,324465.479,329082.249,,,,
fixCross,canvas.Screen,2_4_2_6_1_0_0_0_0_1_0,2021-05-24T16:16:51.700Z,,,blank.png,blank.png,blank.png,blank.png,blank.png,blank.png,blank.png,"[""gummybear.png""]",blank.png,blank.png,blank.png,blank.png,blank.png,,,,,,,,,,,,,,,,,,,,,,,,,,,,,"[""gummybear.png""]","[""raspberry.png""]",PB18.png,,,,,,,,,,,0,6,"[""raspberry.png""]","[""raspberry.png""]","[""raspberry.png""]","[""raspberry.png""]","[""raspberry.png""]","[""raspberry.png""]",blank.png,PB18.png,PB17.png,"[""raspberry.png""]","[""raspberry.png""]","[""raspberry.png""]","[""raspberry.png""]","[""raspberry.png""]","[""raspberry.png""]","[""raspberry.png""]","[""raspberry.png""]","[""raspberry.png""]","[""raspberry.png""]","[""raspberry.png""]","[""raspberry.png""]",1,"[""gummybear.png""]",blank.png,blank.png,blank.png,6,"[""raspberry.png""]","[""raspberry.png""]","[""raspberry.png""]","[""raspberry.png""]","[""raspberry.png""]","[""raspberry.png""]",PB17.png,,,,,,,,,,,1,,,,,,,,,,,,,1233.3069999999716,,timeout,,,,,,,,,,,,,4,,,,,,,,,,,,,,,,,,,,,,,,,,,,,,,,,,,,,,,,,,,,,,,,,,,,,,,,,"[""raspberry.png""]","[""gummybear.png""]",,,,6,,,false,,1,,,,,,,329816.8299999997,329815.659,329065.527,329069.4149999981,329082.249,330315.556,2,,,
timeout,canvas.Screen,2_4_2_6_1_0_0_0_0_1_1,2021-05-24T16:16:52.683Z,,,blank.png,blank.png,blank.png,blank.png,blank.png,blank.png,blank.png,"[""gummybear.png""]",blank.png,blank.png,blank.png,blank.png,blank.png,,,,,,,,,,,,,,,,,,,,,,,,,,,,,"[""gummybear.png""]","[""raspberry.png""]",PB18.png,,,,,,,,,,,0,6,"[""raspberry.png""]","[""raspberry.png""]","[""raspberry.png""]","[""raspberry.png""]","[""raspberry.png""]","[""raspberry.png""]",blank.png,PB18.png,PB17.png,"[""raspberry.png""]","[""raspberry.png""]","[""raspberry.png""]","[""raspberry.png""]","[""raspberry.png""]","[""raspberry.png""]","[""raspberry.png""]","[""raspberry.png""]","[""raspberry.png""]","[""raspberry.png""]","[""raspberry.png""]","[""raspberry.png""]",1,"[""gummybear.png""]",blank.png,blank.png,blank.png,6,"[""raspberry.png""]","[""raspberry.png""]","[""raspberry.png""]","[""raspberry.png""]","[""raspberry.png""]","[""raspberry.png""]",PB17.png,,,,,,,,,,,1,,,,,,,,,,,,,999.9890000000014,,timeout,,,,,,,,,,,,,4,,,,,,,,,,,,,,,,,,,,,,,,,,,,,,,,,,,,,,,,,,,,,,,,,,,,,,,,,"[""raspberry.png""]","[""gummybear.png""]",,,,6,,,false,,1,,,,,,,330799.5100000007,330798.955,329815.659,330318.8149999987,330315.556,331315.545,,,,
choice,canvas.Screen,2_4_2_6_1_0_0_0_0_1_2,2021-05-24T16:16:53.352Z,,,blank.png,blank.png,blank.png,blank.png,blank.png,blank.png,blank.png,"[""gummybear.png""]",blank.png,blank.png,blank.png,blank.png,blank.png,,,,,,,,,,,,,,,,,,,,,,,,,,,,,"[""gummybear.png""]","[""raspberry.png""]",PB18.png,,,,,,,,,,,0,6,"[""raspberry.png""]","[""raspberry.png""]","[""raspberry.png""]","[""raspberry.png""]","[""raspberry.png""]","[""raspberry.png""]",blank.png,PB18.png,PB17.png,"[""raspberry.png""]","[""raspberry.png""]","[""raspberry.png""]","[""raspberry.png""]","[""raspberry.png""]","[""raspberry.png""]","[""raspberry.png""]","[""raspberry.png""]","[""raspberry.png""]","[""raspberry.png""]","[""raspberry.png""]","[""raspberry.png""]",1,"[""gummybear.png""]",blank.png,blank.png,blank.png,6,"[""raspberry.png""]","[""raspberry.png""]","[""raspberry.png""]","[""raspberry.png""]","[""raspberry.png""]","[""raspberry.png""]",PB17.png,,,,,,,,,,,1,,,,,,,,,,,,,152.5500000002212,,response,,,,,,,,,,,,,4,,,,,,,,,,,,,,,,,,,,,,,,,,,,,,,,,,,,,,,,,,,,,,,,,,,,,,,,,"[""raspberry.png""]","[""gummybear.png""]",,,,6,right,keydown(ArrowRight),false,,1,,,,,,,331468.86499999894,331468.0950000002,330798.955,331302.86999999953,331315.545,331932.295,,2,,
square,canvas.Screen,2_4_2_6_1_0_0_0_0_1_3,2021-05-24T16:16:54.800Z,,,blank.png,blank.png,blank.png,blank.png,blank.png,blank.png,blank.png,"[""gummybear.png""]",blank.png,blank.png,blank.png,blank.png,blank.png,,,,,,,,,,,,,,,,,,,,,,,,,,,,,"[""gummybear.png""]","[""raspberry.png""]",PB18.png,,,,,,,,,,,0,6,"[""raspberry.png""]","[""raspberry.png""]","[""raspberry.png""]","[""raspberry.png""]","[""raspberry.png""]","[""raspberry.png""]",blank.png,PB18.png,PB17.png,"[""raspberry.png""]","[""raspberry.png""]","[""raspberry.png""]","[""raspberry.png""]","[""raspberry.png""]","[""raspberry.png""]","[""raspberry.png""]","[""raspberry.png""]","[""raspberry.png""]","[""raspberry.png""]","[""raspberry.png""]","[""raspberry.png""]",1,"[""gummybear.png""]",blank.png,blank.png,blank.png,6,"[""raspberry.png""]","[""raspberry.png""]","[""raspberry.png""]","[""raspberry.png""]","[""raspberry.png""]","[""raspberry.png""]",PB17.png,,,,,,,,,,,1,,,#808080,#33ff3f,,,,,,,,,1000.0320000000065,,timeout,,,,,,,,,,,,,4,,,,,,,,,,,,,,,,,,,,,,,,,,,,,,,,,,,,,,,,,,,,,,,,,,,,,,,,,"[""raspberry.png""]","[""gummybear.png""]",,,,6,,,false,,1,,,,,white,black,332916.6799999984,332915.668,331915.547,331923.3749999985,331932.295,332932.327,,,,
ITI_late,canvas.Screen,2_4_2_6_1_0_0_0_0_1_4,2021-05-24T16:16:55.050Z,,,blank.png,blank.png,blank.png,blank.png,blank.png,blank.png,blank.png,"[""gummybear.png""]",blank.png,blank.png,blank.png,blank.png,blank.png,,,,,,,,,,,,,,,,,,,,,,,,,,,,,"[""gummybear.png""]","[""raspberry.png""]",PB18.png,,,,,,,,,,,0,6,"[""raspberry.png""]","[""raspberry.png""]","[""raspberry.png""]","[""raspberry.png""]","[""raspberry.png""]","[""raspberry.png""]",blank.png,PB18.png,PB17.png,"[""raspberry.png""]","[""raspberry.png""]","[""raspberry.png""]","[""raspberry.png""]","[""raspberry.png""]","[""raspberry.png""]","[""raspberry.png""]","[""raspberry.png""]","[""raspberry.png""]","[""raspberry.png""]","[""raspberry.png""]","[""raspberry.png""]",1,"[""gummybear.png""]",blank.png,blank.png,blank.png,6,"[""raspberry.png""]","[""raspberry.png""]","[""raspberry.png""]","[""raspberry.png""]","[""raspberry.png""]","[""raspberry.png""]",PB17.png,,,,,,,,,,,1,,,,,,,,,,,,,250.0910000000149,,timeout,,,,,,,,,,,,white,4,,,,,,,,,,,,,,,,,,,,,,,,,,,,,,,,,,,,,,,,,,,,,,,,,,,,,,,,,"[""raspberry.png""]","[""gummybear.png""]",,,,6,,,false,,1,,,,,,,333166.86000000115,333165.714,332915.668,332919.07999999967,332932.327,333182.418,,,,
choice_sequence,flow.Sequence,2_4_2_6_1_0_0_0_0_1,2021-05-24T16:16:55.051Z,,,blank.png,blank.png,blank.png,blank.png,blank.png,blank.png,blank.png,"[""gummybear.png""]",blank.png,blank.png,blank.png,blank.png,blank.png,,,,,,,,,,,,,,,,,,,,,,,,,,,,,"[""gummybear.png""]","[""raspberry.png""]",PB18.png,,,,,,,,,,,0,6,"[""raspberry.png""]","[""raspberry.png""]","[""raspberry.png""]","[""raspberry.png""]","[""raspberry.png""]","[""raspberry.png""]",blank.png,PB18.png,PB17.png,"[""raspberry.png""]","[""raspberry.png""]","[""raspberry.png""]","[""raspberry.png""]","[""raspberry.png""]","[""raspberry.png""]","[""raspberry.png""]","[""raspberry.png""]","[""raspberry.png""]","[""raspberry.png""]","[""raspberry.png""]","[""raspberry.png""]",1,"[""gummybear.png""]",blank.png,blank.png,blank.png,6,"[""raspberry.png""]","[""raspberry.png""]","[""raspberry.png""]","[""raspberry.png""]","[""raspberry.png""]","[""raspberry.png""]",PB17.png,,,,,,,,,,,1,,,,,,,,,,,,,4083.4649999999674,,completion,,,,,,,,,,,,,4,,,,,,,,,,,,,,,,,,,,,,,,,,,,,,,,,,,,,,,,,,,,,,,,,,,,,,,,,"[""raspberry.png""]","[""gummybear.png""]",,,,6,,,false,,1,,,,,,,333168.2299999993,333165.714,329065.527,329068.8200000004,329082.249,333182.418,,,,
fixCross,canvas.Screen,2_4_2_6_1_0_0_0_0_2_0,2021-05-24T16:16:55.399Z,,,blank.png,blank.png,blank.png,blank.png,blank.png,blank.png,blank.png,"[""gummybear.png""]",blank.png,blank.png,blank.png,blank.png,blank.png,,,,,,,,,,,,,,,,,,,,,,,,,,,,,"[""gummybear.png""]","[""raspberry.png""]",PB18.png,,,,,,,,,,,0,6,"[""raspberry.png""]","[""raspberry.png""]","[""raspberry.png""]","[""raspberry.png""]","[""raspberry.png""]","[""raspberry.png""]",blank.png,PB18.png,PB16.png,"[""raspberry.png""]","[""raspberry.png""]","[""raspberry.png""]","[""raspberry.png""]","[""raspberry.png""]","[""raspberry.png""]","[""raspberry.png""]","[""raspberry.png""]","[""raspberry.png""]","[""raspberry.png""]","[""raspberry.png""]",blank.png,1,"[""gummybear.png""]",blank.png,blank.png,blank.png,5,"[""raspberry.png""]","[""raspberry.png""]","[""raspberry.png""]","[""raspberry.png""]","[""raspberry.png""]",blank.png,PB16.png,,,,,,,,,,,1,,,,,,,,,,,,,783.2860000000219,,timeout,,,,,,,,,,,,,4,,,,,,,,,,,,,,,,,,,,,,,,,,,,,,,,,,,,,,,,,,,,,,,,,,,,,,,,,"[""raspberry.png""]","[""gummybear.png""]",,,,6,,,false,,1,,,,,,,333516.11000000045,333515.631,333165.714,333182.3000000004,333182.418,333965.704,3,,,
timeout,canvas.Screen,2_4_2_6_1_0_0_0_0_2_1,2021-05-24T16:16:56.333Z,,,blank.png,blank.png,blank.png,blank.png,blank.png,blank.png,blank.png,"[""gummybear.png""]",blank.png,blank.png,blank.png,blank.png,blank.png,,,,,,,,,,,,,,,,,,,,,,,,,,,,,"[""gummybear.png""]","[""raspberry.png""]",PB18.png,,,,,,,,,,,0,6,"[""raspberry.png""]","[""raspberry.png""]","[""raspberry.png""]","[""raspberry.png""]","[""raspberry.png""]","[""raspberry.png""]",blank.png,PB18.png,PB16.png,"[""raspberry.png""]","[""raspberry.png""]","[""raspberry.png""]","[""raspberry.png""]","[""raspberry.png""]","[""raspberry.png""]","[""raspberry.png""]","[""raspberry.png""]","[""raspberry.png""]","[""raspberry.png""]","[""raspberry.png""]",blank.png,1,"[""gummybear.png""]",blank.png,blank.png,blank.png,5,"[""raspberry.png""]","[""raspberry.png""]","[""raspberry.png""]","[""raspberry.png""]","[""raspberry.png""]",blank.png,PB16.png,,,,,,,,,,,1,,,,,,,,,,,,,983.3429999999935,,timeout,,,,,,,,,,,,,4,,,,,,,,,,,,,,,,,,,,,,,,,,,,,,,,,,,,,,,,,,,,,,,,,,,,,,,,,"[""raspberry.png""]","[""gummybear.png""]",,,,6,,,false,,1,,,,,,,334450.2399999983,334449.087,333515.631,333968.86499999894,333965.704,334949.047,,,,
choice,canvas.Screen,2_4_2_6_1_0_0_0_0_2_2,2021-05-24T16:16:57.204Z,,,blank.png,blank.png,blank.png,blank.png,blank.png,blank.png,blank.png,"[""gummybear.png""]",blank.png,blank.png,blank.png,blank.png,blank.png,,,,,,,,,,,,,,,,,,,,,,,,,,,,,"[""gummybear.png""]","[""raspberry.png""]",PB18.png,,,,,,,,,,,0,6,"[""raspberry.png""]","[""raspberry.png""]","[""raspberry.png""]","[""raspberry.png""]","[""raspberry.png""]","[""raspberry.png""]",blank.png,PB18.png,PB16.png,"[""raspberry.png""]","[""raspberry.png""]","[""raspberry.png""]","[""raspberry.png""]","[""raspberry.png""]","[""raspberry.png""]","[""raspberry.png""]","[""raspberry.png""]","[""raspberry.png""]","[""raspberry.png""]","[""raspberry.png""]",blank.png,1,"[""gummybear.png""]",blank.png,blank.png,blank.png,5,"[""raspberry.png""]","[""raspberry.png""]","[""raspberry.png""]","[""raspberry.png""]","[""raspberry.png""]",blank.png,PB16.png,,,,,,,,,,,1,,,,,,,,,,,,,368.72299999778625,,response,,,,,,,,,,,,,4,,,,,,,,,,,,,,,,,,,,,,,,,,,,,,,,,,,,,,,,,,,,,,,,,,,,,,,,,"[""raspberry.png""]","[""gummybear.png""]",,,,6,right,keydown(ArrowRight),false,,1,,,,,,,335320.45500000095,335317.7699999978,334449.087,334928.2549999989,334949.047,335815.684,,3,,
square,canvas.Screen,2_4_2_6_1_0_0_0_0_2_3,2021-05-24T16:16:58.684Z,,,blank.png,blank.png,blank.png,blank.png,blank.png,blank.png,blank.png,"[""gummybear.png""]",blank.png,blank.png,blank.png,blank.png,blank.png,,,,,,,,,,,,,,,,,,,,,,,,,,,,,"[""gummybear.png""]","[""raspberry.png""]",PB18.png,,,,,,,,,,,0,6,"[""raspberry.png""]","[""raspberry.png""]","[""raspberry.png""]","[""raspberry.png""]","[""raspberry.png""]","[""raspberry.png""]",blank.png,PB18.png,PB16.png,"[""raspberry.png""]","[""raspberry.png""]","[""raspberry.png""]","[""raspberry.png""]","[""raspberry.png""]","[""raspberry.png""]","[""raspberry.png""]","[""raspberry.png""]","[""raspberry.png""]","[""raspberry.png""]","[""raspberry.png""]",blank.png,1,"[""gummybear.png""]",blank.png,blank.png,blank.png,5,"[""raspberry.png""]","[""raspberry.png""]","[""raspberry.png""]","[""raspberry.png""]","[""raspberry.png""]",blank.png,PB16.png,,,,,,,,,,,1,,,#808080,#33ff3f,,,,,,,,,1000.1489999999758,,timeout,,,,,,,,,,,,,4,,,,,,,,,,,,,,,,,,,,,,,,,,,,,,,,,,,,,,,,,,,,,,,,,,,,,,,,,"[""raspberry.png""]","[""gummybear.png""]",,,,6,,,false,,1,,,,,white,black,336800.82499999844,336799.118,335782.387,335788.90999999933,335815.684,336815.833,,,,
ITI_late,canvas.Screen,2_4_2_6_1_0_0_0_0_2_4,2021-05-24T16:16:59.684Z,,,blank.png,blank.png,blank.png,blank.png,blank.png,blank.png,blank.png,"[""gummybear.png""]",blank.png,blank.png,blank.png,blank.png,blank.png,,,,,,,,,,,,,,,,,,,,,,,,,,,,,"[""gummybear.png""]","[""raspberry.png""]",PB18.png,,,,,,,,,,,0,6,"[""raspberry.png""]","[""raspberry.png""]","[""raspberry.png""]","[""raspberry.png""]","[""raspberry.png""]","[""raspberry.png""]",blank.png,PB18.png,PB16.png,"[""raspberry.png""]","[""raspberry.png""]","[""raspberry.png""]","[""raspberry.png""]","[""raspberry.png""]","[""raspberry.png""]","[""raspberry.png""]","[""raspberry.png""]","[""raspberry.png""]","[""raspberry.png""]","[""raspberry.png""]",blank.png,1,"[""gummybear.png""]",blank.png,blank.png,blank.png,5,"[""raspberry.png""]","[""raspberry.png""]","[""raspberry.png""]","[""raspberry.png""]","[""raspberry.png""]",blank.png,PB16.png,,,,,,,,,,,1,,,,,,,,,,,,,999.939000000013,,timeout,,,,,,,,,,,,white,4,,,,,,,,,,,,,,,,,,,,,,,,,,,,,,,,,,,,,,,,,,,,,,,,,,,,,,,,,"[""raspberry.png""]","[""gummybear.png""]",,,,6,,,false,,1,,,,,,,337800.4000000001,337799.156,336799.118,336806.059999999,336815.833,337815.772,,,,
choice_sequence,flow.Sequence,2_4_2_6_1_0_0_0_0_2,2021-05-24T16:16:59.685Z,,,blank.png,blank.png,blank.png,blank.png,blank.png,blank.png,blank.png,"[""gummybear.png""]",blank.png,blank.png,blank.png,blank.png,blank.png,,,,,,,,,,,,,,,,,,,,,,,,,,,,,"[""gummybear.png""]","[""raspberry.png""]",PB18.png,,,,,,,,,,,0,6,"[""raspberry.png""]","[""raspberry.png""]","[""raspberry.png""]","[""raspberry.png""]","[""raspberry.png""]","[""raspberry.png""]",blank.png,PB18.png,PB16.png,"[""raspberry.png""]","[""raspberry.png""]","[""raspberry.png""]","[""raspberry.png""]","[""raspberry.png""]","[""raspberry.png""]","[""raspberry.png""]","[""raspberry.png""]","[""raspberry.png""]","[""raspberry.png""]","[""raspberry.png""]",blank.png,1,"[""gummybear.png""]",blank.png,blank.png,blank.png,5,"[""raspberry.png""]","[""raspberry.png""]","[""raspberry.png""]","[""raspberry.png""]","[""raspberry.png""]",blank.png,PB16.png,,,,,,,,,,,1,,,,,,,,,,,,,4616.738000000012,,completion,,,,,,,,,,,,,4,,,,,,,,,,,,,,,,,,,,,,,,,,,,,,,,,,,,,,,,,,,,,,,,,,,,,,,,,"[""raspberry.png""]","[""gummybear.png""]",,,,6,,,false,,1,,,,,,,337801.7749999999,337799.156,333165.714,333179.6299999987,333182.418,337815.772,,,,
fixCross,canvas.Screen,2_4_2_6_1_0_0_0_0_3_0,2021-05-24T16:16:59.983Z,,,blank.png,"[""gummybear.png""]",blank.png,blank.png,blank.png,blank.png,blank.png,blank.png,blank.png,blank.png,blank.png,blank.png,blank.png,,,,,,,,,,,,,,,,,,,,,,,,,,,,,"[""gummybear.png""]","[""raspberry.png""]",PB07.png,,,,,,,,,,,0,6,"[""raspberry.png""]","[""raspberry.png""]","[""raspberry.png""]","[""raspberry.png""]","[""raspberry.png""]","[""raspberry.png""]",blank.png,PB18.png,PB18.png,"[""raspberry.png""]",blank.png,blank.png,blank.png,blank.png,blank.png,"[""raspberry.png""]","[""raspberry.png""]","[""raspberry.png""]","[""raspberry.png""]","[""raspberry.png""]","[""raspberry.png""]",1,"[""gummybear.png""]",blank.png,blank.png,blank.png,1,"[""raspberry.png""]",blank.png,blank.png,blank.png,blank.png,blank.png,PB07.png,,,,,,,,,,,1,,,,,,,,,,,,,649.9189999999944,,timeout,,,,,,,,,,,,,3,,,,,,,,,,,,,,,,,,,,,,,,,,,,,,,,,,,,,,,,,,,,,,,,,,,,,,,,,"[""raspberry.png""]","[""gummybear.png""]",,,,6,,,false,,1,,,,,,,338099.764999999,338099.08,337799.156,337813.3449999987,337815.772,338465.691,4,,,
timeout,canvas.Screen,2_4_2_6_1_0_0_0_0_3_1,2021-05-24T16:17:00.834Z,,,blank.png,"[""gummybear.png""]",blank.png,blank.png,blank.png,blank.png,blank.png,blank.png,blank.png,blank.png,blank.png,blank.png,blank.png,,,,,,,,,,,,,,,,,,,,,,,,,,,,,"[""gummybear.png""]","[""raspberry.png""]",PB07.png,,,,,,,,,,,0,6,"[""raspberry.png""]","[""raspberry.png""]","[""raspberry.png""]","[""raspberry.png""]","[""raspberry.png""]","[""raspberry.png""]",blank.png,PB18.png,PB18.png,"[""raspberry.png""]",blank.png,blank.png,blank.png,blank.png,blank.png,"[""raspberry.png""]","[""raspberry.png""]","[""raspberry.png""]","[""raspberry.png""]","[""raspberry.png""]","[""raspberry.png""]",1,"[""gummybear.png""]",blank.png,blank.png,blank.png,1,"[""raspberry.png""]",blank.png,blank.png,blank.png,blank.png,blank.png,PB07.png,,,,,,,,,,,1,,,,,,,,,,,,,900.0960000000196,,timeout,,,,,,,,,,,,,3,,,,,,,,,,,,,,,,,,,,,,,,,,,,,,,,,,,,,,,,,,,,,,,,,,,,,,,,,"[""raspberry.png""]","[""gummybear.png""]",,,,6,,,false,,1,,,,,,,338950.63500000106,338949.115,338099.08,338468.94500000053,338465.691,339365.787,,,,
choice,canvas.Screen,2_4_2_6_1_0_0_0_0_3_2,2021-05-24T16:17:01.772Z,,,blank.png,"[""gummybear.png""]",blank.png,blank.png,blank.png,blank.png,blank.png,blank.png,blank.png,blank.png,blank.png,blank.png,blank.png,,,,,,,,,,,,,,,,,,,,,,,,,,,,,"[""gummybear.png""]","[""raspberry.png""]",PB07.png,,,,,,,,,,,0,6,"[""raspberry.png""]","[""raspberry.png""]","[""raspberry.png""]","[""raspberry.png""]","[""raspberry.png""]","[""raspberry.png""]",blank.png,PB18.png,PB18.png,"[""raspberry.png""]",blank.png,blank.png,blank.png,blank.png,blank.png,"[""raspberry.png""]","[""raspberry.png""]","[""raspberry.png""]","[""raspberry.png""]","[""raspberry.png""]","[""raspberry.png""]",1,"[""gummybear.png""]",blank.png,blank.png,blank.png,1,"[""raspberry.png""]",blank.png,blank.png,blank.png,blank.png,blank.png,PB07.png,,,,,,,,,,,1,,,,,,,,,,,,,520.5879999982426,,response,,,,,,,,,,,,,3,,,,,,,,,,,,,,,,,,,,,,,,,,,,,,,,,,,,,,,,,,,,,,,,,,,,,,,,,"[""raspberry.png""]","[""gummybear.png""]",,,,6,right,keydown(ArrowRight),false,,1,,,,,,,339888.5750000009,339886.37499999825,338949.115,339341.54499999934,339365.787,340265.801,,4,,
square,canvas.Screen,2_4_2_6_1_0_0_0_0_3_3,2021-05-24T16:17:03.134Z,,,blank.png,"[""gummybear.png""]",blank.png,blank.png,blank.png,blank.png,blank.png,blank.png,blank.png,blank.png,blank.png,blank.png,blank.png,,,,,,,,,,,,,,,,,,,,,,,,,,,,,"[""gummybear.png""]","[""raspberry.png""]",PB07.png,,,,,,,,,,,0,6,"[""raspberry.png""]","[""raspberry.png""]","[""raspberry.png""]","[""raspberry.png""]","[""raspberry.png""]","[""raspberry.png""]",blank.png,PB18.png,PB18.png,"[""raspberry.png""]",blank.png,blank.png,blank.png,blank.png,blank.png,"[""raspberry.png""]","[""raspberry.png""]","[""raspberry.png""]","[""raspberry.png""]","[""raspberry.png""]","[""raspberry.png""]",1,"[""gummybear.png""]",blank.png,blank.png,blank.png,1,"[""raspberry.png""]",blank.png,blank.png,blank.png,blank.png,blank.png,PB07.png,,,,,,,,,,,1,,,#808080,#33ff3f,,,,,,,,,1000.1020000000135,,timeout,,,,,,,,,,,,,3,,,,,,,,,,,,,,,,,,,,,,,,,,,,,,,,,,,,,,,,,,,,,,,,,,,,,,,,,"[""raspberry.png""]","[""gummybear.png""]",,,,6,,,false,,1,,,,,white,black,341250.45999999926,341249.184,340232.359,340242.7800000005,340265.801,341265.903,,,,
ITI_late,canvas.Screen,2_4_2_6_1_0_0_0_0_3_4,2021-05-24T16:17:03.383Z,,,blank.png,"[""gummybear.png""]",blank.png,blank.png,blank.png,blank.png,blank.png,blank.png,blank.png,blank.png,blank.png,blank.png,blank.png,,,,,,,,,,,,,,,,,,,,,,,,,,,,,"[""gummybear.png""]","[""raspberry.png""]",PB07.png,,,,,,,,,,,0,6,"[""raspberry.png""]","[""raspberry.png""]","[""raspberry.png""]","[""raspberry.png""]","[""raspberry.png""]","[""raspberry.png""]",blank.png,PB18.png,PB18.png,"[""raspberry.png""]",blank.png,blank.png,blank.png,blank.png,blank.png,"[""raspberry.png""]","[""raspberry.png""]","[""raspberry.png""]","[""raspberry.png""]","[""raspberry.png""]","[""raspberry.png""]",1,"[""gummybear.png""]",blank.png,blank.png,blank.png,1,"[""raspberry.png""]",blank.png,blank.png,blank.png,blank.png,blank.png,PB07.png,,,,,,,,,,,1,,,,,,,,,,,,,249.97399999998743,,timeout,,,,,,,,,,,,white,3,,,,,,,,,,,,,,,,,,,,,,,,,,,,,,,,,,,,,,,,,,,,,,,,,,,,,,,,,"[""raspberry.png""]","[""gummybear.png""]",,,,6,,,false,,1,,,,,,,341499.90999999864,341499.193,341249.184,341254.0249999984,341265.903,341515.877,,,,
choice_sequence,flow.Sequence,2_4_2_6_1_0_0_0_0_3,2021-05-24T16:17:03.384Z,,,blank.png,"[""gummybear.png""]",blank.png,blank.png,blank.png,blank.png,blank.png,blank.png,blank.png,blank.png,blank.png,blank.png,blank.png,,,,,,,,,,,,,,,,,,,,,,,,,,,,,"[""gummybear.png""]","[""raspberry.png""]",PB07.png,,,,,,,,,,,0,6,"[""raspberry.png""]","[""raspberry.png""]","[""raspberry.png""]","[""raspberry.png""]","[""raspberry.png""]","[""raspberry.png""]",blank.png,PB18.png,PB18.png,"[""raspberry.png""]",blank.png,blank.png,blank.png,blank.png,blank.png,"[""raspberry.png""]","[""raspberry.png""]","[""raspberry.png""]","[""raspberry.png""]","[""raspberry.png""]","[""raspberry.png""]",1,"[""gummybear.png""]",blank.png,blank.png,blank.png,1,"[""raspberry.png""]",blank.png,blank.png,blank.png,blank.png,blank.png,PB07.png,,,,,,,,,,,1,,,,,,,,,,,,,3683.421000000031,,completion,,,,,,,,,,,,,3,,,,,,,,,,,,,,,,,,,,,,,,,,,,,,,,,,,,,,,,,,,,,,,,,,,,,,,,,"[""raspberry.png""]","[""gummybear.png""]",,,,6,,,false,,1,,,,,,,341500.5799999999,341499.193,337799.156,337811.6100000007,337815.772,341515.877,,,,
fixCross,canvas.Screen,2_4_2_6_1_0_0_0_0_4_0,2021-05-24T16:17:03.833Z,,,blank.png,blank.png,blank.png,blank.png,blank.png,blank.png,blank.png,"[""gummybear.png""]",blank.png,blank.png,blank.png,blank.png,blank.png,,,,,,,,,,,,,,,,,,,,,,,,,,,,,"[""gummybear.png""]","[""raspberry.png""]",PB18.png,,,,,,,,,,,0,6,"[""raspberry.png""]","[""raspberry.png""]","[""raspberry.png""]","[""raspberry.png""]","[""raspberry.png""]","[""raspberry.png""]",blank.png,PB18.png,PB14.png,"[""raspberry.png""]","[""raspberry.png""]","[""raspberry.png""]","[""raspberry.png""]","[""raspberry.png""]","[""raspberry.png""]","[""raspberry.png""]","[""raspberry.png""]","[""raspberry.png""]",blank.png,blank.png,blank.png,1,"[""gummybear.png""]",blank.png,blank.png,blank.png,3,"[""raspberry.png""]","[""raspberry.png""]","[""raspberry.png""]",blank.png,blank.png,blank.png,PB14.png,,,,,,,,,,,1,,,,,,,,,,,,,866.5770000000484,,timeout,,,,,,,,,,,,,4,,,,,,,,,,,,,,,,,,,,,,,,,,,,,,,,,,,,,,,,,,,,,,,,,,,,,,,,,"[""raspberry.png""]","[""gummybear.png""]",,,,6,,,false,,1,,,,,,,341950.02999999997,341949.215,341499.193,341507.4649999988,341515.877,342382.454,5,,,
timeout,canvas.Screen,2_4_2_6_1_0_0_0_0_4_1,2021-05-24T16:17:04.751Z,,,blank.png,blank.png,blank.png,blank.png,blank.png,blank.png,blank.png,"[""gummybear.png""]",blank.png,blank.png,blank.png,blank.png,blank.png,,,,,,,,,,,,,,,,,,,,,,,,,,,,,"[""gummybear.png""]","[""raspberry.png""]",PB18.png,,,,,,,,,,,0,6,"[""raspberry.png""]","[""raspberry.png""]","[""raspberry.png""]","[""raspberry.png""]","[""raspberry.png""]","[""raspberry.png""]",blank.png,PB18.png,PB14.png,"[""raspberry.png""]","[""raspberry.png""]","[""raspberry.png""]","[""raspberry.png""]","[""raspberry.png""]","[""raspberry.png""]","[""raspberry.png""]","[""raspberry.png""]","[""raspberry.png""]",blank.png,blank.png,blank.png,1,"[""gummybear.png""]",blank.png,blank.png,blank.png,3,"[""raspberry.png""]","[""raspberry.png""]","[""raspberry.png""]",blank.png,blank.png,blank.png,PB14.png,,,,,,,,,,,1,,,,,,,,,,,,,933.3919999999925,,timeout,,,,,,,,,,,,,4,,,,,,,,,,,,,,,,,,,,,,,,,,,,,,,,,,,,,,,,,,,,,,,,,,,,,,,,,"[""raspberry.png""]","[""gummybear.png""]",,,,6,,,false,,1,,,,,,,342867.2100000003,342865.974,341949.215,342385.4649999994,342382.454,343315.846,,,,
choice,canvas.Screen,2_4_2_6_1_0_0_0_0_4_2,2021-05-24T16:17:05.329Z,,,blank.png,blank.png,blank.png,blank.png,blank.png,blank.png,blank.png,"[""gummybear.png""]",blank.png,blank.png,blank.png,blank.png,blank.png,,,,,,,,,,,,,,,,,,,,,,,,,,,,,"[""gummybear.png""]","[""raspberry.png""]",PB18.png,,,,,,,,,,,0,6,"[""raspberry.png""]","[""raspberry.png""]","[""raspberry.png""]","[""raspberry.png""]","[""raspberry.png""]","[""raspberry.png""]",blank.png,PB18.png,PB14.png,"[""raspberry.png""]","[""raspberry.png""]","[""raspberry.png""]","[""raspberry.png""]","[""raspberry.png""]","[""raspberry.png""]","[""raspberry.png""]","[""raspberry.png""]","[""raspberry.png""]",blank.png,blank.png,blank.png,1,"[""gummybear.png""]",blank.png,blank.png,blank.png,3,"[""raspberry.png""]","[""raspberry.png""]","[""raspberry.png""]",blank.png,blank.png,blank.png,PB14.png,,,,,,,,,,,1,,,,,,,,,,,,,127.75900000036927,,response,,,,,,,,,,,,,4,,,,,,,,,,,,,,,,,,,,,,,,,,,,,,,,,,,,,,,,,,,,,,,,,,,,,,,,,"[""raspberry.png""]","[""gummybear.png""]",,,,6,left,keydown(ArrowLeft),false,,1,,,,,,,343445.77999999817,343443.6050000004,342865.974,343296.194999999,343315.846,343899.166,,5,,
square,canvas.Screen,2_4_2_6_1_0_0_0_0_4_3,2021-05-24T16:17:06.767Z,,,blank.png,blank.png,blank.png,blank.png,blank.png,blank.png,blank.png,"[""gummybear.png""]",blank.png,blank.png,blank.png,blank.png,blank.png,,,,,,,,,,,,,,,,,,,,,,,,,,,,,"[""gummybear.png""]","[""raspberry.png""]",PB18.png,,,,,,,,,,,0,6,"[""raspberry.png""]","[""raspberry.png""]","[""raspberry.png""]","[""raspberry.png""]","[""raspberry.png""]","[""raspberry.png""]",blank.png,PB18.png,PB14.png,"[""raspberry.png""]","[""raspberry.png""]","[""raspberry.png""]","[""raspberry.png""]","[""raspberry.png""]","[""raspberry.png""]","[""raspberry.png""]","[""raspberry.png""]","[""raspberry.png""]",blank.png,blank.png,blank.png,1,"[""gummybear.png""]",blank.png,blank.png,blank.png,3,"[""raspberry.png""]","[""raspberry.png""]","[""raspberry.png""]",blank.png,blank.png,blank.png,PB14.png,,,,,,,,,,,1,,,#33ff3f,#808080,,,,,,,,,1000.0069999999832,,timeout,,,,,,,,,,,,,4,,,,,,,,,,,,,,,,,,,,,,,,,,,,,,,,,,,,,,,,,,,,,,,,,,,,,,,,,"[""raspberry.png""]","[""gummybear.png""]",,,,6,,,false,,1,,,,,black,white,344883.8599999981,344882.576,343882.554,343885.7299999981,343899.166,344899.173,,,,
ITI_late,canvas.Screen,2_4_2_6_1_0_0_0_0_4_4,2021-05-24T16:17:07.017Z,,,blank.png,blank.png,blank.png,blank.png,blank.png,blank.png,blank.png,"[""gummybear.png""]",blank.png,blank.png,blank.png,blank.png,blank.png,,,,,,,,,,,,,,,,,,,,,,,,,,,,,"[""gummybear.png""]","[""raspberry.png""]",PB18.png,,,,,,,,,,,0,6,"[""raspberry.png""]","[""raspberry.png""]","[""raspberry.png""]","[""raspberry.png""]","[""raspberry.png""]","[""raspberry.png""]",blank.png,PB18.png,PB14.png,"[""raspberry.png""]","[""raspberry.png""]","[""raspberry.png""]","[""raspberry.png""]","[""raspberry.png""]","[""raspberry.png""]","[""raspberry.png""]","[""raspberry.png""]","[""raspberry.png""]",blank.png,blank.png,blank.png,1,"[""gummybear.png""]",blank.png,blank.png,blank.png,3,"[""raspberry.png""]","[""raspberry.png""]","[""raspberry.png""]",blank.png,blank.png,blank.png,PB14.png,,,,,,,,,,,1,,,,,,,,,,,,,250.0669999999809,,timeout,,,,,,,,,,,,white,4,,,,,,,,,,,,,,,,,,,,,,,,,,,,,,,,,,,,,,,,,,,,,,,,,,,,,,,,,"[""raspberry.png""]","[""gummybear.png""]",,,,6,,,false,,1,,,,,,,345133.7749999984,345132.649,344882.576,344886.3300000012,344899.173,345149.24,,,,
choice_sequence,flow.Sequence,2_4_2_6_1_0_0_0_0_4,2021-05-24T16:17:07.018Z,,,blank.png,blank.png,blank.png,blank.png,blank.png,blank.png,blank.png,"[""gummybear.png""]",blank.png,blank.png,blank.png,blank.png,blank.png,,,,,,,,,,,,,,,,,,,,,,,,,,,,,"[""gummybear.png""]","[""raspberry.png""]",PB18.png,,,,,,,,,,,0,6,"[""raspberry.png""]","[""raspberry.png""]","[""raspberry.png""]","[""raspberry.png""]","[""raspberry.png""]","[""raspberry.png""]",blank.png,PB18.png,PB14.png,"[""raspberry.png""]","[""raspberry.png""]","[""raspberry.png""]","[""raspberry.png""]","[""raspberry.png""]","[""raspberry.png""]","[""raspberry.png""]","[""raspberry.png""]","[""raspberry.png""]",blank.png,blank.png,blank.png,1,"[""gummybear.png""]",blank.png,blank.png,blank.png,3,"[""raspberry.png""]","[""raspberry.png""]","[""raspberry.png""]",blank.png,blank.png,blank.png,PB14.png,,,,,,,,,,,1,,,,,,,,,,,,,3616.771999999997,,completion,,,,,,,,,,,,,4,,,,,,,,,,,,,,,,,,,,,,,,,,,,,,,,,,,,,,,,,,,,,,,,,,,,,,,,,"[""raspberry.png""]","[""gummybear.png""]",,,,6,,,false,,1,,,,,,,345135.05000000075,345132.649,341499.193,341506.1800000003,341515.877,345149.24,,,,
fixCross,canvas.Screen,2_4_2_6_1_0_0_0_0_5_0,2021-05-24T16:17:07.667Z,,,blank.png,blank.png,blank.png,blank.png,blank.png,blank.png,blank.png,"[""gummybear.png""]",blank.png,blank.png,blank.png,blank.png,blank.png,,,,,,,,,,,,,,,,,,,,,,,,,,,,,"[""gummybear.png""]","[""raspberry.png""]",PB18.png,,,,,,,,,,,0,6,"[""raspberry.png""]","[""raspberry.png""]","[""raspberry.png""]","[""raspberry.png""]","[""raspberry.png""]","[""raspberry.png""]",blank.png,PB18.png,PB15.png,"[""raspberry.png""]","[""raspberry.png""]","[""raspberry.png""]","[""raspberry.png""]","[""raspberry.png""]","[""raspberry.png""]","[""raspberry.png""]","[""raspberry.png""]","[""raspberry.png""]","[""raspberry.png""]",blank.png,blank.png,1,"[""gummybear.png""]",blank.png,blank.png,blank.png,4,"[""raspberry.png""]","[""raspberry.png""]","[""raspberry.png""]","[""raspberry.png""]",blank.png,blank.png,PB15.png,,,,,,,,,,,1,,,,,,,,,,,,,1450.0690000000177,,timeout,,,,,,,,,,,,,4,,,,,,,,,,,,,,,,,,,,,,,,,,,,,,,,,,,,,,,,,,,,,,,,,,,,,,,,,"[""raspberry.png""]","[""gummybear.png""]",,,,6,,,false,,1,,,,,,,345783.9500000009,345782.649,345132.649,345146.1449999988,345149.24,346599.309,6,,,
timeout,canvas.Screen,2_4_2_6_1_0_0_0_0_5_1,2021-05-24T16:17:08.967Z,,,blank.png,blank.png,blank.png,blank.png,blank.png,blank.png,blank.png,"[""gummybear.png""]",blank.png,blank.png,blank.png,blank.png,blank.png,,,,,,,,,,,,,,,,,,,,,,,,,,,,,"[""gummybear.png""]","[""raspberry.png""]",PB18.png,,,,,,,,,,,0,6,"[""raspberry.png""]","[""raspberry.png""]","[""raspberry.png""]","[""raspberry.png""]","[""raspberry.png""]","[""raspberry.png""]",blank.png,PB18.png,PB15.png,"[""raspberry.png""]","[""raspberry.png""]","[""raspberry.png""]","[""raspberry.png""]","[""raspberry.png""]","[""raspberry.png""]","[""raspberry.png""]","[""raspberry.png""]","[""raspberry.png""]","[""raspberry.png""]",blank.png,blank.png,1,"[""gummybear.png""]",blank.png,blank.png,blank.png,4,"[""raspberry.png""]","[""raspberry.png""]","[""raspberry.png""]","[""raspberry.png""]",blank.png,blank.png,PB15.png,,,,,,,,,,,1,,,,,,,,,,,,,933.310999999987,,timeout,,,,,,,,,,,,,4,,,,,,,,,,,,,,,,,,,,,,,,,,,,,,,,,,,,,,,,,,,,,,,,,,,,,,,,,"[""raspberry.png""]","[""gummybear.png""]",,,,6,,,false,,1,,,,,,,347083.3700000003,347082.65,345782.649,346608.2099999985,346599.309,347532.62,,,,
choice,canvas.Screen,2_4_2_6_1_0_0_0_0_5_2,2021-05-24T16:17:10.320Z,,,blank.png,blank.png,blank.png,blank.png,blank.png,blank.png,blank.png,"[""gummybear.png""]",blank.png,blank.png,blank.png,blank.png,blank.png,,,,,,,,,,,,,,,,,,,,,,,,,,,,,"[""gummybear.png""]","[""raspberry.png""]",PB18.png,,,,,,,,,,,0,6,"[""raspberry.png""]","[""raspberry.png""]","[""raspberry.png""]","[""raspberry.png""]","[""raspberry.png""]","[""raspberry.png""]",blank.png,PB18.png,PB15.png,"[""raspberry.png""]","[""raspberry.png""]","[""raspberry.png""]","[""raspberry.png""]","[""raspberry.png""]","[""raspberry.png""]","[""raspberry.png""]","[""raspberry.png""]","[""raspberry.png""]","[""raspberry.png""]",blank.png,blank.png,1,"[""gummybear.png""]",blank.png,blank.png,blank.png,4,"[""raspberry.png""]","[""raspberry.png""]","[""raspberry.png""]","[""raspberry.png""]",blank.png,blank.png,PB15.png,,,,,,,,,,,1,,,,,,,,,,,,,901.6849999988917,,response,,,,,,,,,,,,,4,,,,,,,,,,,,,,,,,,,,,,,,,,,,,,,,,,,,,,,,,,,,,,,,,,,,,,,,,"[""raspberry.png""]","[""gummybear.png""]",,,,6,left,keydown(ArrowLeft),false,,1,,,,,,,348436.3449999982,348434.3049999989,347082.65,347521.9799999977,347532.62,348899.323,,6,,
square,canvas.Screen,2_4_2_6_1_0_0_0_0_5_3,2021-05-24T16:17:11.767Z,,,blank.png,blank.png,blank.png,blank.png,blank.png,blank.png,blank.png,"[""gummybear.png""]",blank.png,blank.png,blank.png,blank.png,blank.png,,,,,,,,,,,,,,,,,,,,,,,,,,,,,"[""gummybear.png""]","[""raspberry.png""]",PB18.png,,,,,,,,,,,0,6,"[""raspberry.png""]","[""raspberry.png""]","[""raspberry.png""]","[""raspberry.png""]","[""raspberry.png""]","[""raspberry.png""]",blank.png,PB18.png,PB15.png,"[""raspberry.png""]","[""raspberry.png""]","[""raspberry.png""]","[""raspberry.png""]","[""raspberry.png""]","[""raspberry.png""]","[""raspberry.png""]","[""raspberry.png""]","[""raspberry.png""]","[""raspberry.png""]",blank.png,blank.png,1,"[""gummybear.png""]",blank.png,blank.png,blank.png,4,"[""raspberry.png""]","[""raspberry.png""]","[""raspberry.png""]","[""raspberry.png""]",blank.png,blank.png,PB15.png,,,,,,,,,,,1,,,#33ff3f,#808080,,,,,,,,,1000.0630000000237,,timeout,,,,,,,,,,,,,4,,,,,,,,,,,,,,,,,,,,,,,,,,,,,,,,,,,,,,,,,,,,,,,,,,,,,,,,,"[""raspberry.png""]","[""gummybear.png""]",,,,6,,,false,,1,,,,,black,white,349884.05000000057,349882.717,348882.67,348884.38999999926,348899.323,349899.386,,,,
ITI_late,canvas.Screen,2_4_2_6_1_0_0_0_0_5_4,2021-05-24T16:17:12.767Z,,,blank.png,blank.png,blank.png,blank.png,blank.png,blank.png,blank.png,"[""gummybear.png""]",blank.png,blank.png,blank.png,blank.png,blank.png,,,,,,,,,,,,,,,,,,,,,,,,,,,,,"[""gummybear.png""]","[""raspberry.png""]",PB18.png,,,,,,,,,,,0,6,"[""raspberry.png""]","[""raspberry.png""]","[""raspberry.png""]","[""raspberry.png""]","[""raspberry.png""]","[""raspberry.png""]",blank.png,PB18.png,PB15.png,"[""raspberry.png""]","[""raspberry.png""]","[""raspberry.png""]","[""raspberry.png""]","[""raspberry.png""]","[""raspberry.png""]","[""raspberry.png""]","[""raspberry.png""]","[""raspberry.png""]","[""raspberry.png""]",blank.png,blank.png,1,"[""gummybear.png""]",blank.png,blank.png,blank.png,4,"[""raspberry.png""]","[""raspberry.png""]","[""raspberry.png""]","[""raspberry.png""]",blank.png,blank.png,PB15.png,,,,,,,,,,,1,,,,,,,,,,,,,1000.0190000000293,,timeout,,,,,,,,,,,,white,4,,,,,,,,,,,,,,,,,,,,,,,,,,,,,,,,,,,,,,,,,,,,,,,,,,,,,,,,,"[""raspberry.png""]","[""gummybear.png""]",,,,6,,,false,,1,,,,,,,350883.26500000036,350882.725,349882.717,349888.46499999997,349899.386,350899.405,,,,
choice_sequence,flow.Sequence,2_4_2_6_1_0_0_0_0_5,2021-05-24T16:17:12.767Z,,,blank.png,blank.png,blank.png,blank.png,blank.png,blank.png,blank.png,"[""gummybear.png""]",blank.png,blank.png,blank.png,blank.png,blank.png,,,,,,,,,,,,,,,,,,,,,,,,,,,,,"[""gummybear.png""]","[""raspberry.png""]",PB18.png,,,,,,,,,,,0,6,"[""raspberry.png""]","[""raspberry.png""]","[""raspberry.png""]","[""raspberry.png""]","[""raspberry.png""]","[""raspberry.png""]",blank.png,PB18.png,PB15.png,"[""raspberry.png""]","[""raspberry.png""]","[""raspberry.png""]","[""raspberry.png""]","[""raspberry.png""]","[""raspberry.png""]","[""raspberry.png""]","[""raspberry.png""]","[""raspberry.png""]","[""raspberry.png""]",blank.png,blank.png,1,"[""gummybear.png""]",blank.png,blank.png,blank.png,4,"[""raspberry.png""]","[""raspberry.png""]","[""raspberry.png""]","[""raspberry.png""]",blank.png,blank.png,PB15.png,,,,,,,,,,,1,,,,,,,,,,,,,5733.484999999986,,completion,,,,,,,,,,,,,4,,,,,,,,,,,,,,,,,,,,,,,,,,,,,,,,,,,,,,,,,,,,,,,,,,,,,,,,,"[""raspberry.png""]","[""gummybear.png""]",,,,6,,,false,,1,,,,,,,350883.7050000002,350882.725,345132.649,345144.57499999844,345149.24,350899.405,,,,
fixCross,canvas.Screen,2_4_2_6_1_0_0_0_0_6_0,2021-05-24T16:17:13.467Z,,,blank.png,blank.png,blank.png,blank.png,blank.png,blank.png,blank.png,"[""gummybear.png""]",blank.png,blank.png,blank.png,blank.png,blank.png,,,,,,,,,,,,,,,,,,,,,,,,,,,,,"[""gummybear.png""]","[""raspberry.png""]",PB18.png,,,,,,,,,,,0,6,"[""raspberry.png""]","[""raspberry.png""]","[""raspberry.png""]","[""raspberry.png""]","[""raspberry.png""]","[""raspberry.png""]",blank.png,PB18.png,PB12.png,"[""raspberry.png""]","[""raspberry.png""]","[""raspberry.png""]","[""raspberry.png""]","[""raspberry.png""]","[""raspberry.png""]","[""raspberry.png""]","[""raspberry.png""]",blank.png,blank.png,blank.png,blank.png,1,"[""gummybear.png""]",blank.png,blank.png,blank.png,2,"[""raspberry.png""]","[""raspberry.png""]",blank.png,blank.png,blank.png,blank.png,PB12.png,,,,,,,,,,,1,,,,,,,,,,,,,3383.3559999999707,,timeout,,,,,,,,,,,,,4,,,,,,,,,,,,,,,,,,,,,,,,,,,,,,,,,,,,,,,,,,,,,,,,,,,,,,,,,"[""raspberry.png""]","[""gummybear.png""]",,,,6,,,false,,1,,,,,,,351584.03999999794,351582.766,350882.725,350887.63000000105,350899.405,354282.761,7,,,
timeout,canvas.Screen,2_4_2_6_1_0_0_0_0_6_1,2021-05-24T16:17:16.651Z,,,blank.png,blank.png,blank.png,blank.png,blank.png,blank.png,blank.png,"[""gummybear.png""]",blank.png,blank.png,blank.png,blank.png,blank.png,,,,,,,,,,,,,,,,,,,,,,,,,,,,,"[""gummybear.png""]","[""raspberry.png""]",PB18.png,,,,,,,,,,,0,6,"[""raspberry.png""]","[""raspberry.png""]","[""raspberry.png""]","[""raspberry.png""]","[""raspberry.png""]","[""raspberry.png""]",blank.png,PB18.png,PB12.png,"[""raspberry.png""]","[""raspberry.png""]","[""raspberry.png""]","[""raspberry.png""]","[""raspberry.png""]","[""raspberry.png""]","[""raspberry.png""]","[""raspberry.png""]",blank.png,blank.png,blank.png,blank.png,1,"[""gummybear.png""]",blank.png,blank.png,blank.png,2,"[""raspberry.png""]","[""raspberry.png""]",blank.png,blank.png,blank.png,blank.png,PB12.png,,,,,,,,,,,1,,,,,,,,,,,,,916.6479999999865,,timeout,,,,,,,,,,,,,4,,,,,,,,,,,,,,,,,,,,,,,,,,,,,,,,,,,,,,,,,,,,,,,,,,,,,,,,,"[""raspberry.png""]","[""gummybear.png""]",,,,6,,,false,,1,,,,,,,354767.4000000006,354766.169,351582.766,354289.14499999885,354282.761,355199.409,,,,
choice,canvas.Screen,2_4_2_6_1_0_0_0_0_6_2,2021-05-24T16:17:17.495Z,,,blank.png,blank.png,blank.png,blank.png,blank.png,blank.png,blank.png,"[""gummybear.png""]",blank.png,blank.png,blank.png,blank.png,blank.png,,,,,,,,,,,,,,,,,,,,,,,,,,,,,"[""gummybear.png""]","[""raspberry.png""]",PB18.png,,,,,,,,,,,0,6,"[""raspberry.png""]","[""raspberry.png""]","[""raspberry.png""]","[""raspberry.png""]","[""raspberry.png""]","[""raspberry.png""]",blank.png,PB18.png,PB12.png,"[""raspberry.png""]","[""raspberry.png""]","[""raspberry.png""]","[""raspberry.png""]","[""raspberry.png""]","[""raspberry.png""]","[""raspberry.png""]","[""raspberry.png""]",blank.png,blank.png,blank.png,blank.png,1,"[""gummybear.png""]",blank.png,blank.png,blank.png,2,"[""raspberry.png""]","[""raspberry.png""]",blank.png,blank.png,blank.png,blank.png,PB12.png,,,,,,,,,,,1,,,,,,,,,,,,,411.6509999992559,,response,,,,,,,,,,,,,4,,,,,,,,,,,,,,,,,,,,,,,,,,,,,,,,,,,,,,,,,,,,,,,,,,,,,,,,,"[""raspberry.png""]","[""gummybear.png""]",,,,6,left,keydown(ArrowLeft),false,,1,,,,,,,355611.87000000064,355611.05999999924,354766.169,355201.5700000011,355199.409,356016.111,,7,,
square,canvas.Screen,2_4_2_6_1_0_0_0_0_6_3,2021-05-24T16:17:18.886Z,,,blank.png,blank.png,blank.png,blank.png,blank.png,blank.png,blank.png,"[""gummybear.png""]",blank.png,blank.png,blank.png,blank.png,blank.png,,,,,,,,,,,,,,,,,,,,,,,,,,,,,"[""gummybear.png""]","[""raspberry.png""]",PB18.png,,,,,,,,,,,0,6,"[""raspberry.png""]","[""raspberry.png""]","[""raspberry.png""]","[""raspberry.png""]","[""raspberry.png""]","[""raspberry.png""]",blank.png,PB18.png,PB12.png,"[""raspberry.png""]","[""raspberry.png""]","[""raspberry.png""]","[""raspberry.png""]","[""raspberry.png""]","[""raspberry.png""]","[""raspberry.png""]","[""raspberry.png""]",blank.png,blank.png,blank.png,blank.png,1,"[""gummybear.png""]",blank.png,blank.png,blank.png,2,"[""raspberry.png""]","[""raspberry.png""]",blank.png,blank.png,blank.png,blank.png,PB12.png,,,,,,,,,,,1,,,#33ff3f,#808080,,,,,,,,,1000.1040000000503,,timeout,,,,,,,,,,,,,4,,,,,,,,,,,,,,,,,,,,,,,,,,,,,,,,,,,,,,,,,,,,,,,,,,,,,,,,,"[""raspberry.png""]","[""gummybear.png""]",,,,6,,,false,,1,,,,,black,white,357002.3499999988,356999.567,355999.383,355999.85499999824,356016.111,357016.215,,,,
ITI_late,canvas.Screen,2_4_2_6_1_0_0_0_0_6_4,2021-05-24T16:17:19.134Z,,,blank.png,blank.png,blank.png,blank.png,blank.png,blank.png,blank.png,"[""gummybear.png""]",blank.png,blank.png,blank.png,blank.png,blank.png,,,,,,,,,,,,,,,,,,,,,,,,,,,,,"[""gummybear.png""]","[""raspberry.png""]",PB18.png,,,,,,,,,,,0,6,"[""raspberry.png""]","[""raspberry.png""]","[""raspberry.png""]","[""raspberry.png""]","[""raspberry.png""]","[""raspberry.png""]",blank.png,PB18.png,PB12.png,"[""raspberry.png""]","[""raspberry.png""]","[""raspberry.png""]","[""raspberry.png""]","[""raspberry.png""]","[""raspberry.png""]","[""raspberry.png""]","[""raspberry.png""]",blank.png,blank.png,blank.png,blank.png,1,"[""gummybear.png""]",blank.png,blank.png,blank.png,2,"[""raspberry.png""]","[""raspberry.png""]",blank.png,blank.png,blank.png,blank.png,PB12.png,,,,,,,,,,,1,,,,,,,,,,,,,283.2589999999618,,timeout,,,,,,,,,,,,white,4,,,,,,,,,,,,,,,,,,,,,,,,,,,,,,,,,,,,,,,,,,,,,,,,,,,,,,,,,"[""raspberry.png""]","[""gummybear.png""]",,,,6,,,false,,1,,,,,,,357250.5899999996,357249.542,356999.567,357011.5299999998,357016.215,357299.474,,,,
choice_sequence,flow.Sequence,2_4_2_6_1_0_0_0_0_6,2021-05-24T16:17:19.135Z,,,blank.png,blank.png,blank.png,blank.png,blank.png,blank.png,blank.png,"[""gummybear.png""]",blank.png,blank.png,blank.png,blank.png,blank.png,,,,,,,,,,,,,,,,,,,,,,,,,,,,,"[""gummybear.png""]","[""raspberry.png""]",PB18.png,,,,,,,,,,,0,6,"[""raspberry.png""]","[""raspberry.png""]","[""raspberry.png""]","[""raspberry.png""]","[""raspberry.png""]","[""raspberry.png""]",blank.png,PB18.png,PB12.png,"[""raspberry.png""]","[""raspberry.png""]","[""raspberry.png""]","[""raspberry.png""]","[""raspberry.png""]","[""raspberry.png""]","[""raspberry.png""]","[""raspberry.png""]",blank.png,blank.png,blank.png,blank.png,1,"[""gummybear.png""]",blank.png,blank.png,blank.png,2,"[""raspberry.png""]","[""raspberry.png""]",blank.png,blank.png,blank.png,blank.png,PB12.png,,,,,,,,,,,1,,,,,,,,,,,,,6350.136999999988,,completion,,,,,,,,,,,,,4,,,,,,,,,,,,,,,,,,,,,,,,,,,,,,,,,,,,,,,,,,,,,,,,,,,,,,,,,"[""raspberry.png""]","[""gummybear.png""]",,,,6,,,false,,1,,,,,,,357251.7899999984,357249.542,350882.725,350886.8999999977,350899.405,357299.474,,,,
choice_loop,flow.Loop,2_4_2_6_1_0_0_0_0,2021-05-24T16:17:19.136Z,,,,,,,,,,,,,,,,,,,,,,,,,,,,,,,,,,,,,,,,,,,,"[""gummybear.png""]","[""raspberry.png""]",,,,,,,,,,,,,,,,,,,,,,,,,,,,,,,,,,,,,,,,,,,,,,,,,,,,,,,,,,,,,,,,,,,,,,,32784.063000000024,,completion,,,,,,,,,,,,,,,,,,,,,,,,,,,,,,,,,,,,,,,,,,,,,,,,,,,,,,,,,,,,,,,,,,,,,,"[""raspberry.png""]","[""gummybear.png""]",,,,6,,,false,,,,,,,,,357252.5900000001,357249.542,324415.555,324459.4649999999,324465.479,357299.474,,,,
choice_frame,html.Frame,2_4_2_6_1_0_0_0,2021-05-24T16:17:19.137Z,,,,,,,,,,,,,,,,,,,,,,,,,,,,,,,,,,,,,,,,,,,,,,,,,,,,,,,,,,,,,,,,,,,,,,,,,,,,,,,,,,,,,,,,,,,,,,,,,,,,,,,,,,,,,,,,,,,,32787.33099999814,,,,,,,,,,,,,,,,,,,,,,,,,,,,,,,,,,,,,,,,,,,,,,,,,,,,,,,,,,,,,,,,,,,,,,,,,,,,,6,,,false,,,,,,,,,357253.1600000002,357252.80999999814,324415.555,324417.88499999896,324465.479,357316.158,,,,
sublock_1,flow.Sequence,2_4_2_6_1_0_0,2021-05-24T16:17:19.137Z,,,,,,,,,,,,,,,,,,,,,,,,,,,,,,,,,,,,,,,,,,,,,,,,,,,,,,,,,,,,,,,,,,,,,,,,,,,,,,,,,,,,,,,,,,,,,,,,,,,,,,,,,,,,,,,,,,,,32787.33099999814,,completion,,,,,,,,,,,,,,,,,,,,,,,,,,,,,,,,,,,,,,,,,,,,,,,,,,,,,,,,,,,,,,,,,,,,,,,,,,,6,,,false,,,,,,,,,357253.51500000036,357252.80999999814,324415.555,324417.77,324465.479,357316.158,,,,
fixCross,canvas.Screen,2_4_2_6_1_0_1_0_0_0_0,2021-05-24T16:17:19.784Z,,,blank.png,"[""gummybear.png""]",blank.png,blank.png,blank.png,blank.png,blank.png,blank.png,blank.png,blank.png,blank.png,blank.png,blank.png,,,,,,,,,,,,,,,,,,,,,,,,,,,,,"[""gummybear.png""]","[""raspberry.png""]",PB14.png,,,,,,,,,,,0,6,"[""raspberry.png""]","[""raspberry.png""]","[""raspberry.png""]","[""raspberry.png""]","[""raspberry.png""]","[""raspberry.png""]",blank.png,PB18.png,PB18.png,"[""raspberry.png""]","[""raspberry.png""]","[""raspberry.png""]",blank.png,blank.png,blank.png,"[""raspberry.png""]","[""raspberry.png""]","[""raspberry.png""]","[""raspberry.png""]","[""raspberry.png""]","[""raspberry.png""]",1,"[""gummybear.png""]",blank.png,blank.png,blank.png,3,"[""raspberry.png""]","[""raspberry.png""]","[""raspberry.png""]",blank.png,blank.png,blank.png,PB14.png,,,,,,,,,,,1,,,,,,,,,,,,,999.9970000000321,,timeout,,,,,,,,,,,,,3,,,,,,,,,,,,,,,,,,,,,,,,,,,,,,,,,,,,,,,,,,,,,,,,,,,,,,,,,"[""raspberry.png""]","[""gummybear.png""]",,,,5,,,false,,1,,,,,,,357900.1349999999,357899.521,357299.474,357284.84499999834,357316.158,358316.155,8,,,
timeout,canvas.Screen,2_4_2_6_1_0_1_0_0_0_1,2021-05-24T16:17:20.684Z,,,blank.png,"[""gummybear.png""]",blank.png,blank.png,blank.png,blank.png,blank.png,blank.png,blank.png,blank.png,blank.png,blank.png,blank.png,,,,,,,,,,,,,,,,,,,,,,,,,,,,,"[""gummybear.png""]","[""raspberry.png""]",PB14.png,,,,,,,,,,,0,6,"[""raspberry.png""]","[""raspberry.png""]","[""raspberry.png""]","[""raspberry.png""]","[""raspberry.png""]","[""raspberry.png""]",blank.png,PB18.png,PB18.png,"[""raspberry.png""]","[""raspberry.png""]","[""raspberry.png""]",blank.png,blank.png,blank.png,"[""raspberry.png""]","[""raspberry.png""]","[""raspberry.png""]","[""raspberry.png""]","[""raspberry.png""]","[""raspberry.png""]",1,"[""gummybear.png""]",blank.png,blank.png,blank.png,3,"[""raspberry.png""]","[""raspberry.png""]","[""raspberry.png""]",blank.png,blank.png,blank.png,PB14.png,,,,,,,,,,,1,,,,,,,,,,,,,916.7019999999902,,timeout,,,,,,,,,,,,,3,,,,,,,,,,,,,,,,,,,,,,,,,,,,,,,,,,,,,,,,,,,,,,,,,,,,,,,,,"[""raspberry.png""]","[""gummybear.png""]",,,,5,,,false,,1,,,,,,,358800.76999999804,358799.564,357899.521,358318.3949999984,358316.155,359232.857,,,,
choice,canvas.Screen,2_4_2_6_1_0_1_0_0_0_2,2021-05-24T16:17:21.546Z,,,blank.png,"[""gummybear.png""]",blank.png,blank.png,blank.png,blank.png,blank.png,blank.png,blank.png,blank.png,blank.png,blank.png,blank.png,,,,,,,,,,,,,,,,,,,,,,,,,,,,,"[""gummybear.png""]","[""raspberry.png""]",PB14.png,,,,,,,,,,,0,6,"[""raspberry.png""]","[""raspberry.png""]","[""raspberry.png""]","[""raspberry.png""]","[""raspberry.png""]","[""raspberry.png""]",blank.png,PB18.png,PB18.png,"[""raspberry.png""]","[""raspberry.png""]","[""raspberry.png""]",blank.png,blank.png,blank.png,"[""raspberry.png""]","[""raspberry.png""]","[""raspberry.png""]","[""raspberry.png""]","[""raspberry.png""]","[""raspberry.png""]",1,"[""gummybear.png""]",blank.png,blank.png,blank.png,3,"[""raspberry.png""]","[""raspberry.png""]","[""raspberry.png""]",blank.png,blank.png,blank.png,PB14.png,,,,,,,,,,,1,,,,,,,,,,,,,427.4629999989993,,response,,,,,,,,,,,,,3,,,,,,,,,,,,,,,,,,,,,,,,,,,,,,,,,,,,,,,,,,,,,,,,,,,,,,,,,"[""raspberry.png""]","[""gummybear.png""]",,,,5,right,keydown(ArrowRight),false,,1,,,,,,,359662.6800000013,359660.319999999,358799.564,359223.1199999987,359232.857,360082.839,,8,,
square,canvas.Screen,2_4_2_6_1_0_1_0_0_0_3,2021-05-24T16:17:22.950Z,,,blank.png,"[""gummybear.png""]",blank.png,blank.png,blank.png,blank.png,blank.png,blank.png,blank.png,blank.png,blank.png,blank.png,blank.png,,,,,,,,,,,,,,,,,,,,,,,,,,,,,"[""gummybear.png""]","[""raspberry.png""]",PB14.png,,,,,,,,,,,0,6,"[""raspberry.png""]","[""raspberry.png""]","[""raspberry.png""]","[""raspberry.png""]","[""raspberry.png""]","[""raspberry.png""]",blank.png,PB18.png,PB18.png,"[""raspberry.png""]","[""raspberry.png""]","[""raspberry.png""]",blank.png,blank.png,blank.png,"[""raspberry.png""]","[""raspberry.png""]","[""raspberry.png""]","[""raspberry.png""]","[""raspberry.png""]","[""raspberry.png""]",1,"[""gummybear.png""]",blank.png,blank.png,blank.png,3,"[""raspberry.png""]","[""raspberry.png""]","[""raspberry.png""]",blank.png,blank.png,blank.png,PB14.png,,,,,,,,,,,1,,,#808080,#33ff3f,,,,,,,,,1000.0520000000251,,timeout,,,,,,,,,,,,,3,,,,,,,,,,,,,,,,,,,,,,,,,,,,,,,,,,,,,,,,,,,,,,,,,,,,,,,,,"[""raspberry.png""]","[""gummybear.png""]",,,,5,,,false,,1,,,,,white,black,361066.7949999988,361066.26,360066.155,360068.2699999998,360082.839,361082.891,,,,
ITI_late,canvas.Screen,2_4_2_6_1_0_1_0_0_0_4,2021-05-24T16:17:23.451Z,,,blank.png,"[""gummybear.png""]",blank.png,blank.png,blank.png,blank.png,blank.png,blank.png,blank.png,blank.png,blank.png,blank.png,blank.png,,,,,,,,,,,,,,,,,,,,,,,,,,,,,"[""gummybear.png""]","[""raspberry.png""]",PB14.png,,,,,,,,,,,0,6,"[""raspberry.png""]","[""raspberry.png""]","[""raspberry.png""]","[""raspberry.png""]","[""raspberry.png""]","[""raspberry.png""]",blank.png,PB18.png,PB18.png,"[""raspberry.png""]","[""raspberry.png""]","[""raspberry.png""]",blank.png,blank.png,blank.png,"[""raspberry.png""]","[""raspberry.png""]","[""raspberry.png""]","[""raspberry.png""]","[""raspberry.png""]","[""raspberry.png""]",1,"[""gummybear.png""]",blank.png,blank.png,blank.png,3,"[""raspberry.png""]","[""raspberry.png""]","[""raspberry.png""]",blank.png,blank.png,blank.png,PB14.png,,,,,,,,,,,1,,,,,,,,,,,,,500.04899999999907,,timeout,,,,,,,,,,,,white,3,,,,,,,,,,,,,,,,,,,,,,,,,,,,,,,,,,,,,,,,,,,,,,,,,,,,,,,,,"[""raspberry.png""]","[""gummybear.png""]",,,,5,,,false,,1,,,,,,,361567.4550000003,361566.261,361066.26,361068.73500000074,361082.891,361582.94,,,,
choice_sequence,flow.Sequence,2_4_2_6_1_0_1_0_0_0,2021-05-24T16:17:23.452Z,,,blank.png,"[""gummybear.png""]",blank.png,blank.png,blank.png,blank.png,blank.png,blank.png,blank.png,blank.png,blank.png,blank.png,blank.png,,,,,,,,,,,,,,,,,,,,,,,,,,,,,"[""gummybear.png""]","[""raspberry.png""]",PB14.png,,,,,,,,,,,0,6,"[""raspberry.png""]","[""raspberry.png""]","[""raspberry.png""]","[""raspberry.png""]","[""raspberry.png""]","[""raspberry.png""]",blank.png,PB18.png,PB18.png,"[""raspberry.png""]","[""raspberry.png""]","[""raspberry.png""]",blank.png,blank.png,blank.png,"[""raspberry.png""]","[""raspberry.png""]","[""raspberry.png""]","[""raspberry.png""]","[""raspberry.png""]","[""raspberry.png""]",1,"[""gummybear.png""]",blank.png,blank.png,blank.png,3,"[""raspberry.png""]","[""raspberry.png""]","[""raspberry.png""]",blank.png,blank.png,blank.png,PB14.png,,,,,,,,,,,1,,,,,,,,,,,,,4250.103000000003,,completion,,,,,,,,,,,,,3,,,,,,,,,,,,,,,,,,,,,,,,,,,,,,,,,,,,,,,,,,,,,,,,,,,,,,,,,"[""raspberry.png""]","[""gummybear.png""]",,,,5,,,false,,1,,,,,,,361568.96000000054,361566.261,357299.474,357284.26000000036,357316.158,361582.94,,,,
fixCross,canvas.Screen,2_4_2_6_1_0_1_0_0_1_0,2021-05-24T16:17:24.150Z,,,blank.png,blank.png,blank.png,blank.png,blank.png,blank.png,blank.png,"[""gummybear.png""]",blank.png,blank.png,blank.png,blank.png,blank.png,,,,,,,,,,,,,,,,,,,,,,,,,,,,,"[""gummybear.png""]","[""raspberry.png""]",PB18.png,,,,,,,,,,,0,6,"[""raspberry.png""]","[""raspberry.png""]","[""raspberry.png""]","[""raspberry.png""]","[""raspberry.png""]","[""raspberry.png""]",blank.png,PB18.png,PB01.png,"[""raspberry.png""]","[""raspberry.png""]","[""raspberry.png""]","[""raspberry.png""]","[""raspberry.png""]","[""raspberry.png""]",blank.png,blank.png,blank.png,blank.png,blank.png,blank.png,1,"[""gummybear.png""]",blank.png,blank.png,blank.png,0,blank.png,blank.png,blank.png,blank.png,blank.png,blank.png,PB01.png,,,,,,,,,,,1,,,,,,,,,,,,,1016.5879999999888,,timeout,,,,,,,,,,,,,4,,,,,,,,,,,,,,,,,,,,,,,,,,,,,,,,,,,,,,,,,,,,,,,,,,,,,,,,,"[""raspberry.png""]","[""gummybear.png""]",,,,5,,,false,,1,,,,,,,362266.7899999978,362266.151,361566.261,361583.42500000075,361582.94,362599.528,9,,,
timeout,canvas.Screen,2_4_2_6_1_0_1_0_0_1_1,2021-05-24T16:17:24.968Z,,,blank.png,blank.png,blank.png,blank.png,blank.png,blank.png,blank.png,"[""gummybear.png""]",blank.png,blank.png,blank.png,blank.png,blank.png,,,,,,,,,,,,,,,,,,,,,,,,,,,,,"[""gummybear.png""]","[""raspberry.png""]",PB18.png,,,,,,,,,,,0,6,"[""raspberry.png""]","[""raspberry.png""]","[""raspberry.png""]","[""raspberry.png""]","[""raspberry.png""]","[""raspberry.png""]",blank.png,PB18.png,PB01.png,"[""raspberry.png""]","[""raspberry.png""]","[""raspberry.png""]","[""raspberry.png""]","[""raspberry.png""]","[""raspberry.png""]",blank.png,blank.png,blank.png,blank.png,blank.png,blank.png,1,"[""gummybear.png""]",blank.png,blank.png,blank.png,0,blank.png,blank.png,blank.png,blank.png,blank.png,blank.png,PB01.png,,,,,,,,,,,1,,,,,,,,,,,,,850.0780000000377,,timeout,,,,,,,,,,,,,4,,,,,,,,,,,,,,,,,,,,,,,,,,,,,,,,,,,,,,,,,,,,,,,,,,,,,,,,,"[""raspberry.png""]","[""gummybear.png""]",,,,5,,,false,,1,,,,,,,363084.4450000004,363082.857,362266.151,362600.87999999814,362599.528,363449.606,,,,
choice,canvas.Screen,2_4_2_6_1_0_1_0_0_1_2,2021-05-24T16:17:25.335Z,,,blank.png,blank.png,blank.png,blank.png,blank.png,blank.png,blank.png,"[""gummybear.png""]",blank.png,blank.png,blank.png,blank.png,blank.png,,,,,,,,,,,,,,,,,,,,,,,,,,,,,"[""gummybear.png""]","[""raspberry.png""]",PB18.png,,,,,,,,,,,0,6,"[""raspberry.png""]","[""raspberry.png""]","[""raspberry.png""]","[""raspberry.png""]","[""raspberry.png""]","[""raspberry.png""]",blank.png,PB18.png,PB01.png,"[""raspberry.png""]","[""raspberry.png""]","[""raspberry.png""]","[""raspberry.png""]","[""raspberry.png""]","[""raspberry.png""]",blank.png,blank.png,blank.png,blank.png,blank.png,blank.png,1,"[""gummybear.png""]",blank.png,blank.png,blank.png,0,blank.png,blank.png,blank.png,blank.png,blank.png,blank.png,PB01.png,,,,,,,,,,,1,,,,,,,,,,,,,260.1779999980354,,response,,,,,,,,,,,,,4,,,,,,,,,,,,,,,,,,,,,,,,,,,,,,,,,,,,,,,,,,,,,,,,,,,,,,,,,"[""raspberry.png""]","[""gummybear.png""]",,,,5,left,keydown(ArrowLeft),false,,1,,,,,,,363451.25999999803,363343.03499999805,363082.857,363439.07000000036,,363816.248,,9,,
square,canvas.Screen,2_4_2_6_1_0_1_0_0_1_3,2021-05-24T16:17:26.684Z,,,blank.png,blank.png,blank.png,blank.png,blank.png,blank.png,blank.png,"[""gummybear.png""]",blank.png,blank.png,blank.png,blank.png,blank.png,,,,,,,,,,,,,,,,,,,,,,,,,,,,,"[""gummybear.png""]","[""raspberry.png""]",PB18.png,,,,,,,,,,,0,6,"[""raspberry.png""]","[""raspberry.png""]","[""raspberry.png""]","[""raspberry.png""]","[""raspberry.png""]","[""raspberry.png""]",blank.png,PB18.png,PB01.png,"[""raspberry.png""]","[""raspberry.png""]","[""raspberry.png""]","[""raspberry.png""]","[""raspberry.png""]","[""raspberry.png""]",blank.png,blank.png,blank.png,blank.png,blank.png,blank.png,1,"[""gummybear.png""]",blank.png,blank.png,blank.png,0,blank.png,blank.png,blank.png,blank.png,blank.png,blank.png,PB01.png,,,,,,,,,,,1,,,#33ff3f,#808080,,,,,,,,,1000.0829999999842,,timeout,,,,,,,,,,,,,4,,,,,,,,,,,,,,,,,,,,,,,,,,,,,,,,,,,,,,,,,,,,,,,,,,,,,,,,,"[""raspberry.png""]","[""gummybear.png""]",,,,5,,,false,,1,,,,,black,white,364800.16500000056,364799.646,363449.606,363800.1750000003,363816.248,364816.331,,,,
ITI_late,canvas.Screen,2_4_2_6_1_0_1_0_0_1_4,2021-05-24T16:17:27.934Z,,,blank.png,blank.png,blank.png,blank.png,blank.png,blank.png,blank.png,"[""gummybear.png""]",blank.png,blank.png,blank.png,blank.png,blank.png,,,,,,,,,,,,,,,,,,,,,,,,,,,,,"[""gummybear.png""]","[""raspberry.png""]",PB18.png,,,,,,,,,,,0,6,"[""raspberry.png""]","[""raspberry.png""]","[""raspberry.png""]","[""raspberry.png""]","[""raspberry.png""]","[""raspberry.png""]",blank.png,PB18.png,PB01.png,"[""raspberry.png""]","[""raspberry.png""]","[""raspberry.png""]","[""raspberry.png""]","[""raspberry.png""]","[""raspberry.png""]",blank.png,blank.png,blank.png,blank.png,blank.png,blank.png,1,"[""gummybear.png""]",blank.png,blank.png,blank.png,0,blank.png,blank.png,blank.png,blank.png,blank.png,blank.png,PB01.png,,,,,,,,,,,1,,,,,,,,,,,,,1249.926999999967,,timeout,,,,,,,,,,,,white,4,,,,,,,,,,,,,,,,,,,,,,,,,,,,,,,,,,,,,,,,,,,,,,,,,,,,,,,,,"[""raspberry.png""]","[""gummybear.png""]",,,,5,,,false,,1,,,,,,,366050.940000001,366049.727,364799.646,364802.5799999996,364816.331,366066.258,,,,
choice_sequence,flow.Sequence,2_4_2_6_1_0_1_0_0_1,2021-05-24T16:17:27.936Z,,,blank.png,blank.png,blank.png,blank.png,blank.png,blank.png,blank.png,"[""gummybear.png""]",blank.png,blank.png,blank.png,blank.png,blank.png,,,,,,,,,,,,,,,,,,,,,,,,,,,,,"[""gummybear.png""]","[""raspberry.png""]",PB18.png,,,,,,,,,,,0,6,"[""raspberry.png""]","[""raspberry.png""]","[""raspberry.png""]","[""raspberry.png""]","[""raspberry.png""]","[""raspberry.png""]",blank.png,PB18.png,PB01.png,"[""raspberry.png""]","[""raspberry.png""]","[""raspberry.png""]","[""raspberry.png""]","[""raspberry.png""]","[""raspberry.png""]",blank.png,blank.png,blank.png,blank.png,blank.png,blank.png,1,"[""gummybear.png""]",blank.png,blank.png,blank.png,0,blank.png,blank.png,blank.png,blank.png,blank.png,blank.png,PB01.png,,,,,,,,,,,1,,,,,,,,,,,,,4466.787000000011,,completion,,,,,,,,,,,,,4,,,,,,,,,,,,,,,,,,,,,,,,,,,,,,,,,,,,,,,,,,,,,,,,,,,,,,,,,"[""raspberry.png""]","[""gummybear.png""]",,,,5,,,false,,1,,,,,,,366052.47999999847,366049.727,361566.261,361580.26999999856,361582.94,366066.258,,,,
fixCross,canvas.Screen,2_4_2_6_1_0_1_0_0_2_0,2021-05-24T16:17:28.534Z,,,blank.png,blank.png,blank.png,blank.png,blank.png,blank.png,blank.png,"[""gummybear.png""]",blank.png,blank.png,blank.png,blank.png,blank.png,,,,,,,,,,,,,,,,,,,,,,,,,,,,,"[""gummybear.png""]","[""raspberry.png""]",PB18.png,,,,,,,,,,,0,6,"[""raspberry.png""]","[""raspberry.png""]","[""raspberry.png""]","[""raspberry.png""]","[""raspberry.png""]","[""raspberry.png""]",blank.png,PB18.png,PB15.png,"[""raspberry.png""]","[""raspberry.png""]","[""raspberry.png""]","[""raspberry.png""]","[""raspberry.png""]","[""raspberry.png""]","[""raspberry.png""]","[""raspberry.png""]","[""raspberry.png""]","[""raspberry.png""]",blank.png,blank.png,1,"[""gummybear.png""]",blank.png,blank.png,blank.png,4,"[""raspberry.png""]","[""raspberry.png""]","[""raspberry.png""]","[""raspberry.png""]",blank.png,blank.png,PB15.png,,,,,,,,,,,1,,,,,,,,,,,,,1016.7200000000303,,timeout,,,,,,,,,,,,,4,,,,,,,,,,,,,,,,,,,,,,,,,,,,,,,,,,,,,,,,,,,,,,,,,,,,,,,,,"[""raspberry.png""]","[""gummybear.png""]",,,,5,,,false,,1,,,,,,,366650.5450000004,366649.679,366049.727,366063.85999999836,366066.258,367082.978,10,,,
