sender,sender_type,sender_id,timestamp,meta,,Blank,DownLeft1,DownLeft2,DownLeft3,DownLeft4,DownLeft5,DownLeft6,DownRight1,DownRight2,DownRight3,DownRight4,DownRight5,DownRight6,FoodHabits_Fru_item1,FoodHabits_Fru_item2,FoodHabits_Fru_item3,FoodHabits_Fru_item4,FoodHabits_Fru_item5,FoodHabits_Fru_item6,FoodHabits_Fru_item7,FoodHabits_Meat_item1,FoodHabits_Meat_item2,FoodHabits_Meat_item3,FoodHabits_Meat_item4,FoodHabits_Meat_item5,FoodHabits_Meat_item6,FoodHabits_Meat_item7,FoodHabits_Swe_item1,FoodHabits_Swe_item2,FoodHabits_Swe_item3,FoodHabits_Swe_item4,FoodHabits_Swe_item5,FoodHabits_Swe_item6,FoodHabits_Swe_item7,FoodHabits_Veg_item1,FoodHabits_Veg_item2,FoodHabits_Veg_item3,FoodHabits_Veg_item4,FoodHabits_Veg_item5,FoodHabits_Veg_item6,FoodHabits_Veg_item7,ImgA,ImgB,LeftBar,PSS_item01,PSS_item02,PSS_item03,PSS_item04,PSS_item05,PSS_item06,PSS_item07,PSS_item08,PSS_item09,PSS_item10,RefA,RefB,RefB1,RefB2,RefB3,RefB4,RefB5,RefB6,RefB7,Ref_PB,RightBar,UpLeft1,UpLeft2,UpLeft3,UpLeft4,UpLeft5,UpLeft6,UpRight1,UpRight2,UpRight3,UpRight4,UpRight5,UpRight6,VarA,VarA1,VarA2,VarA3,VarA4,VarB,VarB1,VarB2,VarB3,VarB4,VarB5,VarB6,Var_PB,attCheck_fileA,attCheck_fileB,attCheck_fileC,attCheck_fileD,attCheck_options,attCheck_valueA,attCheck_valueB,attCheck_valueC,attCheck_valueD,attention_check,block,browser_name,choseL,choseR,consent_form1,consent_form2,consentconfirmation_form1,consentconfirmation_form2,correct,correctResponse,diet,disorder,duration,edu,ended_on,enjoy,full_version,gender,group,hunger,img,imgTask,input_age,input_meal,input_occ,input_remark,lateRespFeed,list,major_version,message,mixQ_item1,mixQ_item2,mixQ_item3,mixQ_item4,mixQ_item5,name,navigator_appName,navigator_userAgent,os,pracQ1_IDa,pracQ1_IDb,pracQ1_IDc,pracQ1_IDd,pracQ1_optionA,pracQ1_optionB,pracQ1_optionC,pracQ1_optionD,pracQ1_valueA,pracQ1_valueB,pracQ1_valueC,pracQ1_valueD,pracQ2_IDa,pracQ2_IDb,pracQ2_IDc,pracQ2_optionA,pracQ2_optionB,pracQ2_optionC,pracQ2_valueA,pracQ2_valueB,pracQ2_valueC,pracQ4_IDa,pracQ4_IDb,pracQ4_IDc,pracQ4_IDd,pracQ4_optionA,pracQ4_optionB,pracQ4_optionC,pracQ4_optionD,pracQ4_valueA,pracQ4_valueB,pracQ4_valueC,pracQ4_valueD,pracQ5_IDa,pracQ5_IDb,pracQ5_IDc,pracQ5_IDd,pracQ5_optionA,pracQ5_optionB,pracQ5_optionC,pracQ5_optionD,pracQ5_valueA,pracQ5_valueB,pracQ5_valueC,pracQ5_valueD,prefHealty,prefUnhealthy,prolific_ID,psessionID,pstudyID,rep,response,response_action,skip,snack,sublock,subtitle,task_difficulty,task_engagement,task_focus,textL,textR,time_commit,time_end,time_render,time_run,time_show,time_switch,trial_count,trial_countO,url,valence
Title,html.Page,0,2021-01-14T19:35:40.803Z,"{""labjs_version"":""20.1.1"",""labjs_build"":{""flavor"":""production"",""commit"":""c48ac4ada3769e8d34489594ab03097d5f256ac7""},""location"":""https://run.pavlovia.org/E3lab/rebund/html/?PROLIFIC_PID={{%PROLIFIC_PID%}}&STUDY_ID={{%STUDY_ID%}}&SESSION_ID={{%SESSION_ID%}}"",""userAgent"":""Mozilla/5.0 (Windows NT 10.0; Win64; x64) AppleWebKit/537.36 (KHTML, like Gecko) Chrome/87.0.4280.141 Safari/537.36"",""platform"":""Win32"",""language"":""en-US"",""locale"":""en-US"",""timeZone"":""Europe/London"",""timezoneOffset"":0,""screen_width"":1366,""screen_height"":768,""scroll_width"":1366,""scroll_height"":576,""window_innerWidth"":1366,""window_innerHeight"":624,""devicePixelRatio"":1}",,,,,,,,,,,,,,,,,,,,,,,,,,,,,,,,,,,,,,,,,,,,,,,,,,,,,,,,,,,,,,,,,,,,,,,,,,,,,,,,,,,,,,,,,,,,,,,,,,,,,,,,,,,,,,,,,,4244.446999992699,,form submission,,,,,,,,,,,,,,,,,,,,,,,,,,,,,,,,,,,,,,,,,,,,,,,,,,,,,,,,,,,,,,,,,,,,,,,,,,,,,,,,,,,,,,,9359.825000166893,9359.159999992698,5039.745,5052.515000104904,5114.713,9364.347,,,"{""PROLIFIC_PID"":""{{%PROLIFIC_PID%}}"",""STUDY_ID"":""{{%STUDY_ID%}}"",""SESSION_ID"":""{{%SESSION_ID%}}""}",
get_systemInfo,canvas.Screen,1,2021-01-14T19:35:40.826Z,,,,,,,,,,,,,,,,,,,,,,,,,,,,,,,,,,,,,,,,,,,,,,,,,,,,,,,,,,,,,,,,,,,,,,,,,,,,,,,,,,,,,,,,,,,,,,,,,,,,,,,,Chrome,,,,,,,,,,,2974.9840000000004,,timeout,,87.0.4280.141,,,,,,,,,,,,87,,,,,,,,Netscape,"Mozilla/5.0 (Windows NT 10.0; Win64; x64) AppleWebKit/537.36 (KHTML, like Gecko) Chrome/87.0.4280.141 Safari/537.36",Windows,,,,,,,,,,,,,,,,,,,,,,,,,,,,,,,,,,,,,,,,,,,,,,,,{{%PROLIFIC_PID%}},,{{%STUDY_ID%}},,,,,,,,,,,,,9382.784999907017,9380.869999993593,9339.39,9361.15500004962,9364.347,12339.331,,,,
ConsentForm,html.Form,2_0,2021-01-14T19:36:05.398Z,,,,,,,,,,,,,,,,,,,,,,,,,,,,,,,,,,,,,,,,,,,,,,,,,,,,,,,,,,,,,,,,,,,,,,,,,,,,,,,,,,,,,,,,,,,,,,,,,,,,,,,,,,,true,true,,,,,,,21614.993999824168,,form submission,,,,,,,,,,,,,,,,,,,,,,,,,,,,,,,,,,,,,,,,,,,,,,,,,,,,,,,,,,,,,,,,,,,,,,,,,,,,,,,,,,,,,,,33954.83499998227,33954.324999824166,9380.869999993593,12394.830000121146,12339.331,33962.406,,,,
PepTalk,html.Page,2_1,2021-01-14T19:36:09.537Z,,,,,,,,,,,,,,,,,,,,,,,,,,,,,,,,,,,,,,,,,,,,,,,,,,,,,,,,,,,,,,,,,,,,,,,,,,,,,,,,,,,,,,,,,,,,,,,,,,,,,,,,,,,,,,,,,,,4130.903999909249,,form submission,,,,,,,,,,,,,,,,,,,,,,,,,,,,,,,,,,,,,,,,,,,,,,,,,,,,,,,,,,,,,,,,,,,,,,,,,,,,,,,,,,,,,,,38093.61999994144,38093.30999990925,33937.605,33955.13499993831,33962.406,38112.188,,,,
Demographics,html.Form,2_2,2021-01-14T19:36:34.314Z,,,,,,,,,,,,,,,,,,,,,,,,,,,,,,,,,,,,,,,,,,,,,,,,,,,,,,,,,,,,,,,,,,,,,,,,,,,,,,,,,,,,,,,,,,,,,,,,,,,,,,,,,,,,,,,,,,,24754.566999849943,3,form submission,,,2,,,,,42,,civil servant,,,,,,,,,,,,,,,,,,,,,,,,,,,,,,,,,,,,,,,,,,,,,,,,,,,,,,,,,,,,,,,,,,,,,,,,,,,,,62867.070000153035,62866.754999849945,38087.108,38093.85500010103,38112.188,62910.301,,,,
InclusionCrit,html.Form,2_3,2021-01-14T19:36:53.935Z,,,,,,,,,,,,,,,,,,,,,,,,,,,,,,,,,,,,,,,,,,,,,,,,,,,,,,,,,,,,,,,,,,,,,,,,,,,,,,,,,,,,,,,,,,,,,,,,,,,,,,,,,,,,,,,,,1,1,19577.624000023097,,form submission,1,,,,,,,,,,,,,,,,,,,,,,,,,,,,,,,,,,,,,,,,,,,,,,,,,,,,,,,,,,,,,,,,,,,,,,,,,,,,,,,,,,,,,,82488.36500011384,82487.9250000231,62885.109,62867.240000050515,62910.301,82533.656,,,,
Selection,html.Page,2_4_0,2021-01-14T19:37:01.432Z,,,,,,,,,,,,,,,,,,,,,,,,,,,,,,,,,,,,,,,,,,,,,,,,,,,,,,,,,,,,,,,,,,,,,,,,,,,,,,,,,,,,,,,,,,,,,,,,,,,,,,,,,,,,,,,,,,,7450.549000102517,,form submission,,,,,,,,,,,,,,,,,,,,,,,,,,,,,,,,,,,,,,,,,,,,,,,,,,,,,,,,,,,,,,,,,,,,,,,,,,,,,,,0,,,,,,,,89984.57500012591,89984.20500010252,82508.744,82488.71999979019,82533.656,89982.982,,,,
Load,html.Page,2_4_1,2021-01-14T19:37:01.437Z,,,,,,,,,,,,,,,,,,,,,,,,,,,,,,,,,,,,,,,,,,,,,,,,,,,,,,,,,,,,,,,,,,,,,,,,,,,,,,,,,,,,,,,,,,,,,,,,,,,,,,,,,,,,,,,,,,,21298.300000000003,,timeout,,,,,,,,,,,,,,,,,,,,,,,,,,,,,,,,,,,,,,,,,,,,,,,,,,,,,,,,,,,,,,,,,,,,,,,,,,,,,,,,,,,,,,,89989.62000012398,89989.21999987215,89958.331,89984.75500009954,89982.982,111281.282,,,,
ratings_instructions,html.Screen,2_4_2_0,2021-01-14T19:37:30.106Z,,,,,,,,,,,,,,,,,,,,,,,,,,,,,,,,,,,,,,,,,,,,,,,,,,,,,,,,,,,,,,,,,,,,,,,,,,,,,,,,,,,,,,,,,,,,,,,,,,,,,,,,,,,,,,,,,,,7370.212999881827,,response,,,,,,,,,,,,,,,,,,,,,,,,,,,,,,,,,,,,,,,,,,,,,,,,,,,,,,,,,,,,,,,,,,,,,,,,,,,,continue,keypress(Space),false,,,,,,,,,118658.43999991193,118651.49499988183,89989.21999987215,111342.53000002354,111281.282,118655.707,0,0,,
fixCross,canvas.Screen,2_4_2_1_0_0,2021-01-14T19:37:30.579Z,,,,,,,,,,,,,,,,,,,,,,,,,,,,,,,,,,,,,,,,,,,,,,,,,,,,,,,,,,,,,,,,,,,,,,,,,,,,,,,,,,,,,,,,,,,,,,,,,,,,,,,,,,,,,,,,,,,499.98700000000827,,timeout,,,,healthy,,blueberry.png,,,,,,,,,,,,,,,blueberry,,,,,,,,,,,,,,,,,,,,,,,,,,,,,,,,,,,,,,,,,,,,,,,,,,,,,,,,,false,,,,,,,,,119132.30499997735,119130.87,118630.927,118659.27999978885,118655.707,119155.694,,,,
Rating,html.Form,2_4_2_1_0_1,2021-01-14T19:37:37.056Z,,,,,,,,,,,,,,,,,,,,,,,,,,,,,,,,,,,,,,,,,,,,,,,,,,,,,,,,,,,,,,,,,,,,,,,,,,,,,,,,,,,,,,,,,,,,,,,,,,,,,,,,,,,,,,,,,,,6453.5460001361935,,form submission,,,,healthy,,blueberry.png,,,,,,,,,,,,,,,blueberry,,,,,,,,,,,,,,,,,,,,,,,,,,,,,,,,,,,,,,,,,,,,,,,,,,,,,,,,,false,,,,,,,,,125609.52499974519,125609.2400001362,119130.87,119132.70499976352,119155.694,125605.136,,,,50
rating_sequence,flow.Sequence,2_4_2_1_0,2021-01-14T19:37:37.056Z,,,,,,,,,,,,,,,,,,,,,,,,,,,,,,,,,,,,,,,,,,,,,,,,,,,,,,,,,,,,,,,,,,,,,,,,,,,,,,,,,,,,,,,,,,,,,,,,,,,,,,,,,,,,,,,,,,,6953.533000136202,,completion,,,,healthy,,blueberry.png,,,,,,,,,,,,,,,blueberry,,,,,,,,,,,,,,,,,,,,,,,,,,,,,,,,,,,,,,,,,,,,,,,,,,,,,,,,,false,,,,,,,,,125609.84000004828,125609.2400001362,118630.927,118659.2149999924,118655.707,125605.136,,,,
fixCross,canvas.Screen,2_4_2_1_1_0,2021-01-14T19:37:37.528Z,,,,,,,,,,,,,,,,,,,,,,,,,,,,,,,,,,,,,,,,,,,,,,,,,,,,,,,,,,,,,,,,,,,,,,,,,,,,,,,,,,,,,,,,,,,,,,,,,,,,,,,,,,,,,,,,,,,499.9930000000022,,timeout,,,,healthy,,cherry.png,,,,,,,,,,,,,,,cherry,,,,,,,,,,,,,,,,,,,,,,,,,,,,,,,,,,,,,,,,,,,,,,,,,,,,,,,,,false,,,,,,,,,126081.25999988988,126080.195,125580.288,125609.97499991208,125605.136,126105.129,,,,
Rating,html.Form,2_4_2_1_1_1,2021-01-14T19:37:43.677Z,,,,,,,,,,,,,,,,,,,,,,,,,,,,,,,,,,,,,,,,,,,,,,,,,,,,,,,,,,,,,,,,,,,,,,,,,,,,,,,,,,,,,,,,,,,,,,,,,,,,,,,,,,,,,,,,,,,6125.381000139474,,form submission,,,,healthy,,cherry.png,,,,,,,,,,,,,,,cherry,,,,,,,,,,,,,,,,,,,,,,,,,,,,,,,,,,,,,,,,,,,,,,,,,,,,,,,,,false,,,,,,,,,132230.93499988317,132230.51000013947,126080.195,126081.49999985471,126105.129,132254.806,,,,59
rating_sequence,flow.Sequence,2_4_2_1_1,2021-01-14T19:37:43.677Z,,,,,,,,,,,,,,,,,,,,,,,,,,,,,,,,,,,,,,,,,,,,,,,,,,,,,,,,,,,,,,,,,,,,,,,,,,,,,,,,,,,,,,,,,,,,,,,,,,,,,,,,,,,,,,,,,,,6625.374000139476,,completion,,,,healthy,,cherry.png,,,,,,,,,,,,,,,cherry,,,,,,,,,,,,,,,,,,,,,,,,,,,,,,,,,,,,,,,,,,,,,,,,,,,,,,,,,false,,,,,,,,,132231.19999980554,132230.51000013947,125580.288,125609.9399998784,125605.136,132254.806,,,,
fixCross,canvas.Screen,2_4_2_1_2_0,2021-01-14T19:37:44.177Z,,,,,,,,,,,,,,,,,,,,,,,,,,,,,,,,,,,,,,,,,,,,,,,,,,,,,,,,,,,,,,,,,,,,,,,,,,,,,,,,,,,,,,,,,,,,,,,,,,,,,,,,,,,,,,,,,,,499.80199999999604,,timeout,,,,unhealthy,,gummybear.png,,,,,,,,,,,,,,,gummybear,,,,,,,,,,,,,,,,,,,,,,,,,,,,,,,,,,,,,,,,,,,,,,,,,,,,,,,,,false,,,,,,,,,132730.65999988467,132729.744,132229.61,132231.37499997392,132254.806,132754.608,,,,
Rating,html.Form,2_4_2_1_2_1,2021-01-14T19:37:49.235Z,,,,,,,,,,,,,,,,,,,,,,,,,,,,,,,,,,,,,,,,,,,,,,,,,,,,,,,,,,,,,,,,,,,,,,,,,,,,,,,,,,,,,,,,,,,,,,,,,,,,,,,,,,,,,,,,,,,5033.576999953948,,form submission,,,,unhealthy,,gummybear.png,,,,,,,,,,,,,,,gummybear,,,,,,,,,,,,,,,,,,,,,,,,,,,,,,,,,,,,,,,,,,,,,,,,,,,,,,,,,false,,,,,,,,,137788.56999985874,137788.18499995396,132729.744,132730.89500004426,132754.608,137804.338,,,,54
rating_sequence,flow.Sequence,2_4_2_1_2,2021-01-14T19:37:49.235Z,,,,,,,,,,,,,,,,,,,,,,,,,,,,,,,,,,,,,,,,,,,,,,,,,,,,,,,,,,,,,,,,,,,,,,,,,,,,,,,,,,,,,,,,,,,,,,,,,,,,,,,,,,,,,,,,,,,5533.378999953944,,completion,,,,unhealthy,,gummybear.png,,,,,,,,,,,,,,,gummybear,,,,,,,,,,,,,,,,,,,,,,,,,,,,,,,,,,,,,,,,,,,,,,,,,,,,,,,,,false,,,,,,,,,137788.82999997586,137788.18499995396,132229.61,132231.31999978796,132254.806,137804.338,,,,
fixCross,canvas.Screen,2_4_2_1_3_0,2021-01-14T19:37:49.727Z,,,,,,,,,,,,,,,,,,,,,,,,,,,,,,,,,,,,,,,,,,,,,,,,,,,,,,,,,,,,,,,,,,,,,,,,,,,,,,,,,,,,,,,,,,,,,,,,,,,,,,,,,,,,,,,,,,,499.89300000001094,,timeout,,,,unhealthy,,chocolate_truffle.png,,,,,,,,,,,,,,,chocolate truffle,,,,,,,,,,,,,,,,,,,,,,,,,,,,,,,,,,,,,,,,,,,,,,,,,,,,,,,,,false,,,,,,,,,138280.255000107,138279.375,137779.372,137788.9749999158,137804.338,138304.231,,,,
Rating,html.Form,2_4_2_1_3_1,2021-01-14T19:37:57.744Z,,,,,,,,,,,,,,,,,,,,,,,,,,,,,,,,,,,,,,,,,,,,,,,,,,,,,,,,,,,,,,,,,,,,,,,,,,,,,,,,,,,,,,,,,,,,,,,,,,,,,,,,,,,,,,,,,,,7992.923999803752,,form submission,,,,unhealthy,,chocolate_truffle.png,,,,,,,,,,,,,,,chocolate truffle,,,,,,,,,,,,,,,,,,,,,,,,,,,,,,,,,,,,,,,,,,,,,,,,,,,,,,,,,false,,,,,,,,,146297.58499981835,146297.15499980375,138279.375,138280.449999962,138304.231,146328.621,,,,0
rating_sequence,flow.Sequence,2_4_2_1_3,2021-01-14T19:37:57.744Z,,,,,,,,,,,,,,,,,,,,,,,,,,,,,,,,,,,,,,,,,,,,,,,,,,,,,,,,,,,,,,,,,,,,,,,,,,,,,,,,,,,,,,,,,,,,,,,,,,,,,,,,,,,,,,,,,,,8492.816999803763,,completion,,,,unhealthy,,chocolate_truffle.png,,,,,,,,,,,,,,,chocolate truffle,,,,,,,,,,,,,,,,,,,,,,,,,,,,,,,,,,,,,,,,,,,,,,,,,,,,,,,,,false,,,,,,,,,146297.83499985933,146297.15499980375,137779.372,137788.9350000769,137804.338,146328.621,,,,
fixCross,canvas.Screen,2_4_2_1_4_0,2021-01-14T19:37:58.251Z,,,,,,,,,,,,,,,,,,,,,,,,,,,,,,,,,,,,,,,,,,,,,,,,,,,,,,,,,,,,,,,,,,,,,,,,,,,,,,,,,,,,,,,,,,,,,,,,,,,,,,,,,,,,,,,,,,,499.86999999999534,,timeout,,,,healthy,,strawberry.png,,,,,,,,,,,,,,,strawberry,,,,,,,,,,,,,,,,,,,,,,,,,,,,,,,,,,,,,,,,,,,,,,,,,,,,,,,,,false,,,,,,,,,146804.57999976352,146803.664,146303.49,146298.0399997905,146328.621,146828.491,,,,
Rating,html.Form,2_4_2_1_4_1,2021-01-14T19:38:01.557Z,,,,,,,,,,,,,,,,,,,,,,,,,,,,,,,,,,,,,,,,,,,,,,,,,,,,,,,,,,,,,,,,,,,,,,,,,,,,,,,,,,,,,,,,,,,,,,,,,,,,,,,,,,,,,,,,,,,3282.083999824157,,form submission,,,,healthy,,strawberry.png,,,,,,,,,,,,,,,strawberry,,,,,,,,,,,,,,,,,,,,,,,,,,,,,,,,,,,,,,,,,,,,,,,,,,,,,,,,,false,,,,,,,,,150110.89000012726,150110.57499982417,146803.664,146804.93000010028,146828.491,150153.345,,,,95
rating_sequence,flow.Sequence,2_4_2_1_4,2021-01-14T19:38:01.557Z,,,,,,,,,,,,,,,,,,,,,,,,,,,,,,,,,,,,,,,,,,,,,,,,,,,,,,,,,,,,,,,,,,,,,,,,,,,,,,,,,,,,,,,,,,,,,,,,,,,,,,,,,,,,,,,,,,,3781.9539998241526,,completion,,,,healthy,,strawberry.png,,,,,,,,,,,,,,,strawberry,,,,,,,,,,,,,,,,,,,,,,,,,,,,,,,,,,,,,,,,,,,,,,,,,,,,,,,,,false,,,,,,,,,150111.20999976993,150110.57499982417,146303.49,146297.9649999179,146328.621,150153.345,,,,
fixCross,canvas.Screen,2_4_2_1_5_0,2021-01-14T19:38:02.076Z,,,,,,,,,,,,,,,,,,,,,,,,,,,,,,,,,,,,,,,,,,,,,,,,,,,,,,,,,,,,,,,,,,,,,,,,,,,,,,,,,,,,,,,,,,,,,,,,,,,,,,,,,,,,,,,,,,,499.81099999998696,,timeout,,,,healthy,,pear.png,,,,,,,,,,,,,,,pear,,,,,,,,,,,,,,,,,,,,,,,,,,,,,,,,,,,,,,,,,,,,,,,,,,,,,,,,,false,,,,,,,,,150629.2550000362,150628.383,150128.282,150111.37000005692,150153.345,150653.156,,,,
Rating,html.Form,2_4_2_1_5_1,2021-01-14T19:38:07.834Z,,,,,,,,,,,,,,,,,,,,,,,,,,,,,,,,,,,,,,,,,,,,,,,,,,,,,,,,,,,,,,,,,,,,,,,,,,,,,,,,,,,,,,,,,,,,,,,,,,,,,,,,,,,,,,,,,,,5734.448999821645,,form submission,,,,healthy,,pear.png,,,,,,,,,,,,,,,pear,,,,,,,,,,,,,,,,,,,,,,,,,,,,,,,,,,,,,,,,,,,,,,,,,,,,,,,,,false,,,,,,,,,156388.0150001496,156387.60499982163,150628.383,150629.44999989122,150653.156,156403.007,,,,55
rating_sequence,flow.Sequence,2_4_2_1_5,2021-01-14T19:38:07.835Z,,,,,,,,,,,,,,,,,,,,,,,,,,,,,,,,,,,,,,,,,,,,,,,,,,,,,,,,,,,,,,,,,,,,,,,,,,,,,,,,,,,,,,,,,,,,,,,,,,,,,,,,,,,,,,,,,,,6234.259999821632,,completion,,,,healthy,,pear.png,,,,,,,,,,,,,,,pear,,,,,,,,,,,,,,,,,,,,,,,,,,,,,,,,,,,,,,,,,,,,,,,,,,,,,,,,,false,,,,,,,,,156388.27499980107,156387.60499982163,150128.282,150111.3249999471,150153.345,156403.007,,,,
fixCross,canvas.Screen,2_4_2_1_6_0,2021-01-14T19:38:08.325Z,,,,,,,,,,,,,,,,,,,,,,,,,,,,,,,,,,,,,,,,,,,,,,,,,,,,,,,,,,,,,,,,,,,,,,,,,,,,,,,,,,,,,,,,,,,,,,,,,,,,,,,,,,,,,,,,,,,499.7699999999895,,timeout,,,,unhealthy,,candy.png,,,,,,,,,,,,,,,candy,,,,,,,,,,,,,,,,,,,,,,,,,,,,,,,,,,,,,,,,,,,,,,,,,,,,,,,,,false,,,,,,,,,156878.77500010654,156877.855,156377.819,156388.41999974102,156403.007,156902.777,,,,
Rating,html.Form,2_4_2_1_6_1,2021-01-14T19:38:14.172Z,,,,,,,,,,,,,,,,,,,,,,,,,,,,,,,,,,,,,,,,,,,,,,,,,,,,,,,,,,,,,,,,,,,,,,,,,,,,,,,,,,,,,,,,,,,,,,,,,,,,,,,,,,,,,,,,,,,5822.56299988809,,form submission,,,,unhealthy,,candy.png,,,,,,,,,,,,,,,candy,,,,,,,,,,,,,,,,,,,,,,,,,,,,,,,,,,,,,,,,,,,,,,,,,,,,,,,,,false,,,,,,,,,162725.73499986902,162725.3399998881,156877.855,156878.98499984294,156902.777,162752.387,,,,47
rating_sequence,flow.Sequence,2_4_2_1_6,2021-01-14T19:38:14.172Z,,,,,,,,,,,,,,,,,,,,,,,,,,,,,,,,,,,,,,,,,,,,,,,,,,,,,,,,,,,,,,,,,,,,,,,,,,,,,,,,,,,,,,,,,,,,,,,,,,,,,,,,,,,,,,,,,,,6322.33299988808,,completion,,,,unhealthy,,candy.png,,,,,,,,,,,,,,,candy,,,,,,,,,,,,,,,,,,,,,,,,,,,,,,,,,,,,,,,,,,,,,,,,,,,,,,,,,false,,,,,,,,,162726.01999994367,162725.3399998881,156377.819,156388.37500009686,156403.007,162752.387,,,,
fixCross,canvas.Screen,2_4_2_1_7_0,2021-01-14T19:38:14.675Z,,,,,,,,,,,,,,,,,,,,,,,,,,,,,,,,,,,,,,,,,,,,,,,,,,,,,,,,,,,,,,,,,,,,,,,,,,,,,,,,,,,,,,,,,,,,,,,,,,,,,,,,,,,,,,,,,,,499.8630000000121,,timeout,,,,unhealthy,,chocolate.png,,,,,,,,,,,,,,,chocolate,,,,,,,,,,,,,,,,,,,,,,,,,,,,,,,,,,,,,,,,,,,,,,,,,,,,,,,,,false,,,,,,,,,163228.40500017628,163227.375,162727.27,162726.17000015453,162752.387,163252.25,,,,
Rating,html.Form,2_4_2_1_7_1,2021-01-14T19:38:19.852Z,,,,,,,,,,,,,,,,,,,,,,,,,,,,,,,,,,,,,,,,,,,,,,,,,,,,,,,,,,,,,,,,,,,,,,,,,,,,,,,,,,,,,,,,,,,,,,,,,,,,,,,,,,,,,,,,,,,5153.139999970794,,form submission,,,,unhealthy,,chocolate.png,,,,,,,,,,,,,,,chocolate,,,,,,,,,,,,,,,,,,,,,,,,,,,,,,,,,,,,,,,,,,,,,,,,,,,,,,,,,false,,,,,,,,,168405.7450001128,168405.3899999708,163227.375,163228.5949997604,163252.25,168426.822,,,,0
rating_sequence,flow.Sequence,2_4_2_1_7,2021-01-14T19:38:19.852Z,,,,,,,,,,,,,,,,,,,,,,,,,,,,,,,,,,,,,,,,,,,,,,,,,,,,,,,,,,,,,,,,,,,,,,,,,,,,,,,,,,,,,,,,,,,,,,,,,,,,,,,,,,,,,,,,,,,5653.002999970806,,completion,,,,unhealthy,,chocolate.png,,,,,,,,,,,,,,,chocolate,,,,,,,,,,,,,,,,,,,,,,,,,,,,,,,,,,,,,,,,,,,,,,,,,,,,,,,,,false,,,,,,,,,168406.04500006884,168405.3899999708,162727.27,162726.1250000447,162752.387,168426.822,,,,
fixCross,canvas.Screen,2_4_2_1_8_0,2021-01-14T19:38:20.349Z,,,,,,,,,,,,,,,,,,,,,,,,,,,,,,,,,,,,,,,,,,,,,,,,,,,,,,,,,,,,,,,,,,,,,,,,,,,,,,,,,,,,,,,,,,,,,,,,,,,,,,,,,,,,,,,,,,,499.9880000000121,,timeout,,,,healthy,,orange.png,,,,,,,,,,,,,,,orange,,,,,,,,,,,,,,,,,,,,,,,,,,,,,,,,,,,,,,,,,,,,,,,,,,,,,,,,,false,,,,,,,,,168902.80999988317,168901.923,168401.798,168406.19499981403,168426.822,168926.81,,,,
Rating,html.Form,2_4_2_1_8_1,2021-01-14T19:38:22.751Z,,,,,,,,,,,,,,,,,,,,,,,,,,,,,,,,,,,,,,,,,,,,,,,,,,,,,,,,,,,,,,,,,,,,,,,,,,,,,,,,,,,,,,,,,,,,,,,,,,,,,,,,,,,,,,,,,,,2378.039999956789,,form submission,,,,healthy,,orange.png,,,,,,,,,,,,,,,orange,,,,,,,,,,,,,,,,,,,,,,,,,,,,,,,,,,,,,,,,,,,,,,,,,,,,,,,,,false,,,,,,,,,171305.2050000988,171304.8499999568,168901.923,168903.0049997382,168926.81,171326.792,,,,70
rating_sequence,flow.Sequence,2_4_2_1_8,2021-01-14T19:38:22.752Z,,,,,,,,,,,,,,,,,,,,,,,,,,,,,,,,,,,,,,,,,,,,,,,,,,,,,,,,,,,,,,,,,,,,,,,,,,,,,,,,,,,,,,,,,,,,,,,,,,,,,,,,,,,,,,,,,,,2878.027999956801,,completion,,,,healthy,,orange.png,,,,,,,,,,,,,,,orange,,,,,,,,,,,,,,,,,,,,,,,,,,,,,,,,,,,,,,,,,,,,,,,,,,,,,,,,,false,,,,,,,,,171305.43499998748,171304.8499999568,168401.798,168406.15000016987,168426.822,171326.792,,,,
fixCross,canvas.Screen,2_4_2_1_9_0,2021-01-14T19:38:23.249Z,,,,,,,,,,,,,,,,,,,,,,,,,,,,,,,,,,,,,,,,,,,,,,,,,,,,,,,,,,,,,,,,,,,,,,,,,,,,,,,,,,,,,,,,,,,,,,,,,,,,,,,,,,,,,,,,,,,499.82400000002235,,timeout,,,,healthy,,raspberry.png,,,,,,,,,,,,,,,raspberry,,,,,,,,,,,,,,,,,,,,,,,,,,,,,,,,,,,,,,,,,,,,,,,,,,,,,,,,,false,,,,,,,,,171802.47499980032,171801.692,171301.709,171305.57999992743,171326.792,171826.616,,,,
Rating,html.Form,2_4_2_1_9_1,2021-01-14T19:38:26.706Z,,,,,,,,,,,,,,,,,,,,,,,,,,,,,,,,,,,,,,,,,,,,,,,,,,,,,,,,,,,,,,,,,,,,,,,,,,,,,,,,,,,,,,,,,,,,,,,,,,,,,,,,,,,,,,,,,,,3433.0290001001267,,form submission,,,,healthy,,raspberry.png,,,,,,,,,,,,,,,raspberry,,,,,,,,,,,,,,,,,,,,,,,,,,,,,,,,,,,,,,,,,,,,,,,,,,,,,,,,,false,,,,,,,,,175259.9300001748,175259.64500010014,171801.692,171802.6499999687,171826.616,175301.249,,,,60
rating_sequence,flow.Sequence,2_4_2_1_9,2021-01-14T19:38:26.706Z,,,,,,,,,,,,,,,,,,,,,,,,,,,,,,,,,,,,,,,,,,,,,,,,,,,,,,,,,,,,,,,,,,,,,,,,,,,,,,,,,,,,,,,,,,,,,,,,,,,,,,,,,,,,,,,,,,,3932.853000100149,,completion,,,,healthy,,raspberry.png,,,,,,,,,,,,,,,raspberry,,,,,,,,,,,,,,,,,,,,,,,,,,,,,,,,,,,,,,,,,,,,,,,,,,,,,,,,,false,,,,,,,,,175260.16499986872,175259.64500010014,171301.709,171305.5349998176,171326.792,175301.249,,,,
fixCross,canvas.Screen,2_4_2_1_10_0,2021-01-14T19:38:27.223Z,,,,,,,,,,,,,,,,,,,,,,,,,,,,,,,,,,,,,,,,,,,,,,,,,,,,,,,,,,,,,,,,,,,,,,,,,,,,,,,,,,,,,,,,,,,,,,,,,,,,,,,,,,,,,,,,,,,500.0350000000035,,timeout,,,,unhealthy,,liqorice.png,,,,,,,,,,,,,,,liquorice,,,,,,,,,,,,,,,,,,,,,,,,,,,,,,,,,,,,,,,,,,,,,,,,,,,,,,,,,false,,,,,,,,,175777.02499972656,175776.199,175276.352,175260.4149999097,175301.249,175801.284,,,,
Rating,html.Form,2_4_2_1_10_1,2021-01-14T19:38:32.872Z,,,,,,,,,,,,,,,,,,,,,,,,,,,,,,,,,,,,,,,,,,,,,,,,,,,,,,,,,,,,,,,,,,,,,,,,,,,,,,,,,,,,,,,,,,,,,,,,,,,,,,,,,,,,,,,,,,,5624.010999964521,,form submission,,,,unhealthy,,liqorice.png,,,,,,,,,,,,,,,liquorice,,,,,,,,,,,,,,,,,,,,,,,,,,,,,,,,,,,,,,,,,,,,,,,,,,,,,,,,,false,,,,,,,,,181425.60999980196,181425.29499996454,175776.199,175777.29499991983,175801.284,181425.716,,,,0
rating_sequence,flow.Sequence,2_4_2_1_10,2021-01-14T19:38:32.873Z,,,,,,,,,,,,,,,,,,,,,,,,,,,,,,,,,,,,,,,,,,,,,,,,,,,,,,,,,,,,,,,,,,,,,,,,,,,,,,,,,,,,,,,,,,,,,,,,,,,,,,,,,,,,,,,,,,,6124.0459999645245,,completion,,,,unhealthy,,liqorice.png,,,,,,,,,,,,,,,liquorice,,,,,,,,,,,,,,,,,,,,,,,,,,,,,,,,,,,,,,,,,,,,,,,,,,,,,,,,,false,,,,,,,,,181426.34999984875,181425.29499996454,175276.352,175260.35000011325,175301.249,181425.716,,,,
fixCross,canvas.Screen,2_4_2_1_11_0,2021-01-14T19:38:33.348Z,,,,,,,,,,,,,,,,,,,,,,,,,,,,,,,,,,,,,,,,,,,,,,,,,,,,,,,,,,,,,,,,,,,,,,,,,,,,,,,,,,,,,,,,,,,,,,,,,,,,,,,,,,,,,,,,,,,500.01700000002165,,timeout,,,,unhealthy,,m&m.png,,,,,,,,,,,,,,,m&m,,,,,,,,,,,,,,,,,,,,,,,,,,,,,,,,,,,,,,,,,,,,,,,,,,,,,,,,,false,,,,,,,,,181901.67499985546,181900.87,181400.773,181426.51999974623,181425.716,181925.733,,,,
Rating,html.Form,2_4_2_1_11_1,2021-01-14T19:38:36.502Z,,,,,,,,,,,,,,,,,,,,,,,,,,,,,,,,,,,,,,,,,,,,,,,,,,,,,,,,,,,,,,,,,,,,,,,,,,,,,,,,,,,,,,,,,,,,,,,,,,,,,,,,,,,,,,,,,,,3129.5019998615608,,form submission,,,,unhealthy,,m&m.png,,,,,,,,,,,,,,,m&m,,,,,,,,,,,,,,,,,,,,,,,,,,,,,,,,,,,,,,,,,,,,,,,,,,,,,,,,,false,,,,,,,,,185055.61000015587,185055.23499986157,181900.87,181901.87000017613,181925.733,185100.629,,,,7
rating_sequence,flow.Sequence,2_4_2_1_11,2021-01-14T19:38:36.503Z,,,,,,,,,,,,,,,,,,,,,,,,,,,,,,,,,,,,,,,,,,,,,,,,,,,,,,,,,,,,,,,,,,,,,,,,,,,,,,,,,,,,,,,,,,,,,,,,,,,,,,,,,,,,,,,,,,,3629.5189998615824,,completion,,,,unhealthy,,m&m.png,,,,,,,,,,,,,,,m&m,,,,,,,,,,,,,,,,,,,,,,,,,,,,,,,,,,,,,,,,,,,,,,,,,,,,,,,,,false,,,,,,,,,185055.9249999933,185055.23499986157,181400.773,181426.47500010207,181425.716,185100.629,,,,
fixCross,canvas.Screen,2_4_2_1_12_0,2021-01-14T19:38:37.023Z,,,,,,,,,,,,,,,,,,,,,,,,,,,,,,,,,,,,,,,,,,,,,,,,,,,,,,,,,,,,,,,,,,,,,,,,,,,,,,,,,,,,,,,,,,,,,,,,,,,,,,,,,,,,,,,,,,,499.9900000000198,,timeout,,,,unhealthy,,marshmallow.png,,,,,,,,,,,,,,,marshmallow,,,,,,,,,,,,,,,,,,,,,,,,,,,,,,,,,,,,,,,,,,,,,,,,,,,,,,,,,false,,,,,,,,,185576.37999998406,185575.562,185075.613,185056.17500003427,185100.629,185600.619,,,,
Rating,html.Form,2_4_2_1_12_1,2021-01-14T19:38:40.995Z,,,,,,,,,,,,,,,,,,,,,,,,,,,,,,,,,,,,,,,,,,,,,,,,,,,,,,,,,,,,,,,,,,,,,,,,,,,,,,,,,,,,,,,,,,,,,,,,,,,,,,,,,,,,,,,,,,,3947.7010000598966,,form submission,,,,unhealthy,,marshmallow.png,,,,,,,,,,,,,,,marshmallow,,,,,,,,,,,,,,,,,,,,,,,,,,,,,,,,,,,,,,,,,,,,,,,,,,,,,,,,,false,,,,,,,,,189548.7449998036,189548.3200000599,185575.562,185576.58000010997,185600.619,189550.061,,,,74
rating_sequence,flow.Sequence,2_4_2_1_12,2021-01-14T19:38:40.996Z,,,,,,,,,,,,,,,,,,,,,,,,,,,,,,,,,,,,,,,,,,,,,,,,,,,,,,,,,,,,,,,,,,,,,,,,,,,,,,,,,,,,,,,,,,,,,,,,,,,,,,,,,,,,,,,,,,,4447.691000059916,,completion,,,,unhealthy,,marshmallow.png,,,,,,,,,,,,,,,marshmallow,,,,,,,,,,,,,,,,,,,,,,,,,,,,,,,,,,,,,,,,,,,,,,,,,,,,,,,,,false,,,,,,,,,189549.05000003055,189548.3200000599,185075.613,185056.09499989077,185100.629,189550.061,,,,
fixCross,canvas.Screen,2_4_2_1_13_0,2021-01-14T19:38:41.473Z,,,,,,,,,,,,,,,,,,,,,,,,,,,,,,,,,,,,,,,,,,,,,,,,,,,,,,,,,,,,,,,,,,,,,,,,,,,,,,,,,,,,,,,,,,,,,,,,,,,,,,,,,,,,,,,,,,,500.0800000000163,,timeout,,,,healthy,,grape.png,,,,,,,,,,,,,,,grape,,,,,,,,,,,,,,,,,,,,,,,,,,,,,,,,,,,,,,,,,,,,,,,,,,,,,,,,,false,,,,,,,,,190026.22999995947,190025.277,189525.196,189549.19999977574,189550.061,190050.141,,,,
Rating,html.Form,2_4_2_1_13_1,2021-01-14T19:38:44.088Z,,,,,,,,,,,,,,,,,,,,,,,,,,,,,,,,,,,,,,,,,,,,,,,,,,,,,,,,,,,,,,,,,,,,,,,,,,,,,,,,,,,,,,,,,,,,,,,,,,,,,,,,,,,,,,,,,,,2590.5139997627703,,form submission,,,,healthy,,grape.png,,,,,,,,,,,,,,,grape,,,,,,,,,,,,,,,,,,,,,,,,,,,,,,,,,,,,,,,,,,,,,,,,,,,,,,,,,false,,,,,,,,,192640.95499971882,192640.65499976277,190025.277,190026.44000016153,190050.141,192675.009,,,,84
rating_sequence,flow.Sequence,2_4_2_1_13,2021-01-14T19:38:44.088Z,,,,,,,,,,,,,,,,,,,,,,,,,,,,,,,,,,,,,,,,,,,,,,,,,,,,,,,,,,,,,,,,,,,,,,,,,,,,,,,,,,,,,,,,,,,,,,,,,,,,,,,,,,,,,,,,,,,3090.5939997627866,,completion,,,,healthy,,grape.png,,,,,,,,,,,,,,,grape,,,,,,,,,,,,,,,,,,,,,,,,,,,,,,,,,,,,,,,,,,,,,,,,,,,,,,,,,false,,,,,,,,,192641.22999971732,192640.65499976277,189525.196,189549.15500013158,189550.061,192675.009,,,,
fixCross,canvas.Screen,2_4_2_1_14_0,2021-01-14T19:38:44.597Z,,,,,,,,,,,,,,,,,,,,,,,,,,,,,,,,,,,,,,,,,,,,,,,,,,,,,,,,,,,,,,,,,,,,,,,,,,,,,,,,,,,,,,,,,,,,,,,,,,,,,,,,,,,,,,,,,,,499.88300000000163,,timeout,,,,healthy,,apple.png,,,,,,,,,,,,,,,apple,,,,,,,,,,,,,,,,,,,,,,,,,,,,,,,,,,,,,,,,,,,,,,,,,,,,,,,,,false,,,,,,,,,193150.810000021,193149.88,192649.995,192641.4100001566,192675.009,193174.892,,,,
Rating,html.Form,2_4_2_1_14_1,2021-01-14T19:38:48.600Z,,,,,,,,,,,,,,,,,,,,,,,,,,,,,,,,,,,,,,,,,,,,,,,,,,,,,,,,,,,,,,,,,,,,,,,,,,,,,,,,,,,,,,,,,,,,,,,,,,,,,,,,,,,,,,,,,,,3978.0029998319224,,form submission,,,,healthy,,apple.png,,,,,,,,,,,,,,,apple,,,,,,,,,,,,,,,,,,,,,,,,,,,,,,,,,,,,,,,,,,,,,,,,,,,,,,,,,false,,,,,,,,,197153.21499994025,197152.89499983191,193149.88,193151.0199997574,193174.892,197174.677,,,,21
rating_sequence,flow.Sequence,2_4_2_1_14,2021-01-14T19:38:48.600Z,,,,,,,,,,,,,,,,,,,,,,,,,,,,,,,,,,,,,,,,,,,,,,,,,,,,,,,,,,,,,,,,,,,,,,,,,,,,,,,,,,,,,,,,,,,,,,,,,,,,,,,,,,,,,,,,,,,4477.885999831924,,completion,,,,healthy,,apple.png,,,,,,,,,,,,,,,apple,,,,,,,,,,,,,,,,,,,,,,,,,,,,,,,,,,,,,,,,,,,,,,,,,,,,,,,,,false,,,,,,,,,197153.50499982014,197152.89499983191,192649.995,192641.36999985203,192675.009,197174.677,,,,
fixCross,canvas.Screen,2_4_2_1_15_0,2021-01-14T19:38:49.097Z,,,,,,,,,,,,,,,,,,,,,,,,,,,,,,,,,,,,,,,,,,,,,,,,,,,,,,,,,,,,,,,,,,,,,,,,,,,,,,,,,,,,,,,,,,,,,,,,,,,,,,,,,,,,,,,,,,,499.9459999999963,,timeout,,,,unhealthy,,praline.png,,,,,,,,,,,,,,,praline,,,,,,,,,,,,,,,,,,,,,,,,,,,,,,,,,,,,,,,,,,,,,,,,,,,,,,,,,false,,,,,,,,,197650.46499995515,197649.619,197149.682,197153.66999991238,197174.677,197674.623,,,,
Rating,html.Form,2_4_2_1_15_1,2021-01-14T19:38:52.139Z,,,,,,,,,,,,,,,,,,,,,,,,,,,,,,,,,,,,,,,,,,,,,,,,,,,,,,,,,,,,,,,,,,,,,,,,,,,,,,,,,,,,,,,,,,,,,,,,,,,,,,,,,,,,,,,,,,,3017.3720000010508,,form submission,,,,unhealthy,,praline.png,,,,,,,,,,,,,,,praline,,,,,,,,,,,,,,,,,,,,,,,,,,,,,,,,,,,,,,,,,,,,,,,,,,,,,,,,,false,,,,,,,,,200692.29499995708,200691.99500000104,197649.619,197650.65999981016,197674.623,200724.369,,,,1
rating_sequence,flow.Sequence,2_4_2_1_15,2021-01-14T19:38:52.139Z,,,,,,,,,,,,,,,,,,,,,,,,,,,,,,,,,,,,,,,,,,,,,,,,,,,,,,,,,,,,,,,,,,,,,,,,,,,,,,,,,,,,,,,,,,,,,,,,,,,,,,,,,,,,,,,,,,,3517.318000001047,,completion,,,,unhealthy,,praline.png,,,,,,,,,,,,,,,praline,,,,,,,,,,,,,,,,,,,,,,,,,,,,,,,,,,,,,,,,,,,,,,,,,,,,,,,,,false,,,,,,,,,200692.57499976084,200691.99500000104,197149.682,197153.62499980256,197174.677,200724.369,,,,
fixCross,canvas.Screen,2_4_2_1_16_0,2021-01-14T19:38:52.647Z,,,,,,,,,,,,,,,,,,,,,,,,,,,,,,,,,,,,,,,,,,,,,,,,,,,,,,,,,,,,,,,,,,,,,,,,,,,,,,,,,,,,,,,,,,,,,,,,,,,,,,,,,,,,,,,,,,,499.95999999999185,,timeout,,,,unhealthy,,maltesers.png,,,,,,,,,,,,,,,malteser,,,,,,,,,,,,,,,,,,,,,,,,,,,,,,,,,,,,,,,,,,,,,,,,,,,,,,,,,false,,,,,,,,,201200.25500003248,201199.359,200699.226,200692.73999985307,200724.369,201224.329,,,,
Rating,html.Form,2_4_2_1_16_1,2021-01-14T19:38:57.209Z,,,,,,,,,,,,,,,,,,,,,,,,,,,,,,,,,,,,,,,,,,,,,,,,,,,,,,,,,,,,,,,,,,,,,,,,,,,,,,,,,,,,,,,,,,,,,,,,,,,,,,,,,,,,,,,,,,,4538.006000094028,,form submission,,,,unhealthy,,maltesers.png,,,,,,,,,,,,,,,malteser,,,,,,,,,,,,,,,,,,,,,,,,,,,,,,,,,,,,,,,,,,,,,,,,,,,,,,,,,false,,,,,,,,,205762.674999889,205762.33500009403,201199.359,201200.45999996364,201224.329,205798.919,,,,73
rating_sequence,flow.Sequence,2_4_2_1_16,2021-01-14T19:38:57.210Z,,,,,,,,,,,,,,,,,,,,,,,,,,,,,,,,,,,,,,,,,,,,,,,,,,,,,,,,,,,,,,,,,,,,,,,,,,,,,,,,,,,,,,,,,,,,,,,,,,,,,,,,,,,,,,,,,,,5037.96600009402,,completion,,,,unhealthy,,maltesers.png,,,,,,,,,,,,,,,malteser,,,,,,,,,,,,,,,,,,,,,,,,,,,,,,,,,,,,,,,,,,,,,,,,,,,,,,,,,false,,,,,,,,,205762.9550001584,205762.33500009403,200699.226,200692.689999938,200724.369,205798.919,,,,
fixCross,canvas.Screen,2_4_2_1_17_0,2021-01-14T19:38:57.722Z,,,,,,,,,,,,,,,,,,,,,,,,,,,,,,,,,,,,,,,,,,,,,,,,,,,,,,,,,,,,,,,,,,,,,,,,,,,,,,,,,,,,,,,,,,,,,,,,,,,,,,,,,,,,,,,,,,,499.8640000000014,,timeout,,,,healthy,,coconut.png,,,,,,,,,,,,,,,coconut,,,,,,,,,,,,,,,,,,,,,,,,,,,,,,,,,,,,,,,,,,,,,,,,,,,,,,,,,false,,,,,,,,,206275.0249998644,206273.963,205773.961,205763.09499982744,205798.919,206298.783,,,,
Rating,html.Form,2_4_2_1_17_1,2021-01-14T19:39:03.020Z,,,,,,,,,,,,,,,,,,,,,,,,,,,,,,,,,,,,,,,,,,,,,,,,,,,,,,,,,,,,,,,,,,,,,,,,,,,,,,,,,,,,,,,,,,,,,,,,,,,,,,,,,,,,,,,,,,,5273.89199994487,,form submission,,,,healthy,,coconut.png,,,,,,,,,,,,,,,coconut,,,,,,,,,,,,,,,,,,,,,,,,,,,,,,,,,,,,,,,,,,,,,,,,,,,,,,,,,false,,,,,,,,,211572.97000009567,211572.67499994487,206273.963,206275.2199997194,206298.783,211598.394,,,,7
rating_sequence,flow.Sequence,2_4_2_1_17,2021-01-14T19:39:03.020Z,,,,,,,,,,,,,,,,,,,,,,,,,,,,,,,,,,,,,,,,,,,,,,,,,,,,,,,,,,,,,,,,,,,,,,,,,,,,,,,,,,,,,,,,,,,,,,,,,,,,,,,,,,,,,,,,,,,5773.755999944871,,completion,,,,healthy,,coconut.png,,,,,,,,,,,,,,,coconut,,,,,,,,,,,,,,,,,,,,,,,,,,,,,,,,,,,,,,,,,,,,,,,,,,,,,,,,,false,,,,,,,,,211573.2049997896,211572.67499994487,205773.961,205763.05499998853,205798.919,211598.394,,,,
rating_loop,flow.Loop,2_4_2_1,2021-01-14T19:39:03.020Z,,,,,,,,,,,,,,,,,,,,,,,,,,,,,,,,,,,,,,,,,,,,,,,,,,,,,,,,,,,,,,,,,,,,,,,,,,,,,,,,,,,,,,,,,,,,,,,,,,,,,,,,,,,,,,,,,,,92916.96799994487,,completion,,,,,,,,,,,,,,,,,,,,,,,,,,,,,,,,,,,,,,,,,,,,,,,,,,,,,,,,,,,,,,,,,,,,,,,,,,,,,,false,,,,,,,,,211573.78500001505,211572.67499994487,118630.927,118659.12499977276,118655.707,211598.394,,,,
data_transmission,html.Screen,2_4_2_2,2021-01-14T19:39:03.028Z,,,,,,,,,,,,,,,,,,,,,,,,,,,,,,,,,,,,,,,,,,,,,,,,,,,,,,,,,,,,,,,,,,,,,,,,,,,,,,,,,,,,,,,,,,,,,,,,,,,,,,,,,,,,,,,,,,,NaN,,no compatible backend,,,,,,,,,,,,,,,Transferring data,,,,,,,,,,,,,,,,,,,,,,,,,,,,,,,,,,,,,,,,,,,,,,,,,,,,,,,,,,,,,,,false,,,Please wait a second…,,,,,,211580.94500005245,211580.72499977425,,211573.93499976024,,211598.394,,,,
instructions,html.Screen,2_4_2_3,2021-01-14T19:40:07.070Z,,,,,,,,,,,,,,,,,,,,,,,,,,,,,,,,,,,,,,,,,,,,,,,,,,,,,,,,,,,,,,,,,,,,,,,,,,,,,,,,,,,,,,,,,,,,,,,,,,,,,,,,,,,,,,,,,,,64023.76599979526,,done,,,,,,,,,,,,,,,,,,,,,,,,,,,,,,,,,,,,,,,,,,,,,,,,,,,,,,,,,,,,,,,,,,,,,,,,,,,,,,false,,,,,,,,,275622.4400000647,275622.15999979526,211573.315,211581.12500002608,211598.394,275643.282,,,,
Q1,html.Screen,2_4_2_4_0,2021-01-14T19:40:32.239Z,,,,,,,,,,,,,,,,,,,,,,,,,,,,,,,,,,,,,,,,,,,,,,,,,,,,,,,,,,,,,,,,,,,,,,,,,,,,,,,,,,,,,,,,,,,,,,,,,,,,,,,,,,,,,,,false,input_Q1==3,,,25144.54799981194,,response,,,,,,,,,,,,,,,,,,,,,,,,,Q1_i1,Q1_i4,Q1_i3,Q1_i2,1,4,3,2,false,false,correct,false,,,,,,,,,,,,,,,,,,,,,,,,,,,,,,,,,,,,,,,,,click #Q1_i3,false,,,,,,,,,300791.435000021,300787.82999981195,275618.443,275622.6949999109,275643.282,300816.349,,,,
Q1_correct,html.Screen,2_4_2_4_1,2021-01-14T19:40:33.744Z,,,,,,,,,,,,,,,,,,,,,,,,,,,,,,,,,,,,,,,,,,,,,,,,,,,,,,,,,,,,,,,,,,,,,,,,,,,,,,,,,,,,,,,,,,,,,,,,,,,,,,,,,,,,,,,,,,,1478.7359998742468,,response,,,,,,,,,,,,,,,,,,,,,,,,,,,,,,,,,,,,,,,,,,,,,,,,,,,,,,,,,,,,,,,,,,,,,,,,,,,,,keypress,false,,,,,,,,,302296.7799999751,302295.08499987423,300791.26,300791.7700000107,300816.349,302316.179,,,,
Q2,html.Screen,2_4_2_4_2,2021-01-14T19:40:40.805Z,,,,,,,,,,,,,,,,,,,,,,,,,,,,,,,,,,,,,,,,,,,,,,,,,,,,,,,,,,,,,,,,,,,,,,,,,,,,,,,,,,,,,,,,,,,,,,,,,,,,,,,,,,,,,,,,,,,7040.040999957826,,response,,,,,,,,,,,,,,,,,,,,,,,,,,,,,,,,,,,,,Q2_i2,Q2_i1,Q2_i3,Option 2,Option 1,Same amount,opt2,correct,same,,,,,,,,,,,,,,,,,,,,,,,,,,,,,,,,click #Q2_i1,false,,,,,,,,,309357.6199999079,309356.21999995783,302291.468,302297.1799997613,302316.179,309365.647,,,,
Q2_correct,html.Screen,2_4_2_4_3,2021-01-14T19:40:42.499Z,,,,,,,,,,,,,,,,,,,,,,,,,,,,,,,,,,,,,,,,,,,,,,,,,,,,,,,,,,,,,,,,,,,,,,,,,,,,,,,,,,,,,,,,,,,,,,,,,,,,,,,,,,,,,,,,,,,1685.0630000977544,,response,,,,,,,,,,,,,,,,,,,,,,,,,,,,,,,,,,,,,,,,,,,,,,,,,,,,,,,,,,,,,,,,,,,,,,,,,,,,,keypress,false,,,,,,,,,311052.06000013277,311050.71000009775,309340.777,309357.8949999064,309365.647,311065.488,,,,
Q4,html.Screen,2_4_2_4_4,2021-01-14T19:40:55.241Z,,,,,,,,,,,,,,,,,,,,,,,,,,,,,,,,,,,,,,,,,,,,,,,,,,,,,,,,,,,,,,,,,,,,,,,,,,,,,,,,,,,,,,,,,,,,,,,,,,,,,,,,,,,,,,,,,,,12726.706999754417,,response,,,,,,,,,,,,,,,,,,,,,,,,,,,,,,,,,,,,,,,,,,,,,,Q4_i4,Q4_i1,Q4_i2,Q4_i3,Press the space key,Press the arrow key that corresponds with the snack option I prefer,Indicate the number of food items in each snack option,Press the arrow key that corresponds with the snack option with more food items,pressspace,correct,indicate,morefood,,,,,,,,,,,,,,,,,,,,click #Q4_i1,false,,,,,,,,,323793.5049999505,323792.1949997544,311040.722,311052.3350001313,311065.488,323814.602,,,,
Q4_correct,html.Screen,2_4_2_4_5,2021-01-14T19:41:01.041Z,,,,,,,,,,,,,,,,,,,,,,,,,,,,,,,,,,,,,,,,,,,,,,,,,,,,,,,,,,,,,,,,,,,,,,,,,,,,,,,,,,,,,,,,,,,,,,,,,,,,,,,,,,,,,,,,,,,5777.762999931292,,response,,,,,,,,,,,,,,,,,,,,,,,,,,,,,,,,,,,,,,,,,,,,,,,,,,,,,,,,,,,,,,,,,,,,,,,,,,,,,keypress,false,,,,,,,,,329593.7299998477,329592.3649999313,323789.61,323793.8299998641,323814.602,329614.01,,,,
Q5,html.Screen,2_4_2_4_6,2021-01-14T19:41:33.568Z,,,,,,,,,,,,,,,,,,,,,,,,,,,,,,,,,,,,,,,,,,,,,,,,,,,,,,,,,,,,,,,,,,,,,,,,,,,,,,,,,,,,,,,,,,,,,,,,,,,,,,,,,,,,,,,,,,,32505.924999849638,,response,,,,,,,,,,,,,,,,,,,,,,,,,,,,,,,,,,,,,,,,,,,,,,,,,,,,,,,,,,Q5_i1,Q5_i2,Q5_i4,Q5_i3,Snack Option 2 has been chosen,There are more pieces of chocolate in snack Option 2,Snack Option 1 has been chosen,There are more slices of kiwi in snack Option 1,correct,morechoc2,chose1,morekiwi1,,,,,,,,click #Q5_i1,false,,,,,,,,,362121.3449998759,362119.93499984965,329589.644,329594.000000041,329614.01,362136.578,,,,
Q5_correct,html.Screen,2_4_2_4_7,2021-01-14T19:41:36.804Z,,,,,,,,,,,,,,,,,,,,,,,,,,,,,,,,,,,,,,,,,,,,,,,,,,,,,,,,,,,,,,,,,,,,,,,,,,,,,,,,,,,,,,,,,,,,,,,,,,,,,,,,,,,,,,,,,,,3219.5269997806754,,response,,,,,,,,,,,,,,,,,,,,,,,,,,,,,,,,,,,,,,,,,,,,,,,,,,,,,,,,,,,,,,,,,,,,,,,,,,,,,keypress,false,,,,,,,,,365357.1449997835,365356.10499978065,362111.63,362121.6850001365,362136.578,365402.339,,,,
practice_sequence,flow.Sequence,2_4_2_4,2021-01-14T19:41:36.807Z,,,,,,,,,,,,,,,,,,,,,,,,,,,,,,,,,,,,,,,,,,,,,,,,,,,,,,,,,,,,,,,,,,,,,,,,,,,,,,,,,,,,,,,,,,,,,,,,,,,,,,,,,,,,,,,,,,,89712.82299978065,,completion,,,,,,,,,,,,,,,,,,,,,,,,,,,,,,,,,,,,,,,,,,,,,,,,,,,,,,,,,,,,,,,,,,,,,,,,,,,,,,false,,,,,,,,,365359.7650001757,365356.10499978065,275618.443,275622.6349999197,275643.282,365402.339,,,,
final_instru,html.Screen,2_4_2_5,2021-01-14T19:41:45.860Z,,,,,,,,,,,,,,,,,,,,,,,,,,,,,,,,,,,,,,,,,,,,,,,,,,,,,,,,,,,,,,,,,,,,,,,,,,,,,,,,,,,,,,,,,,,,,,,,,,,,,,,,,,,,,,,,,,,9010.310999838344,,done,,,,,,,,,,,,,,,,,,,,,,,,,,,,,,,,,,,,,,,,,,,,,,,,,,,,,,,,,,,,,,,,,,,,,,,,,,,,,,false,,,,,,,,,374413.0150000565,374412.6499998383,365336.435,365360.1099997759,365402.339,374435.456,,,,
blank_screen,canvas.Screen,2_4_2_6_0,2021-01-14T19:41:47.858Z,,,,,,,,,,,,,,,,,,,,,,,,,,,,,,,,,,,,,,,,,,,,,,,,,,,,,,,,,,,,,,,,,,,,,,,,,,,,,,,,,,,,,,,,,,,,,,,,,,,,,,,,,,,,,,,,,,,2049.8059999999823,,timeout,,,,,,,,,,,,,,,,,,,,,,,,,,,,,,,,,,,,,,,,,,,,,,,,,,,,,,,,,,,,,,,,,,,,,,,,,,,,,,false,,,,,,,,,376411.11500002444,376410.287,374410.846,374413.85000012815,374435.456,376485.262,,,,
fixCross,canvas.Screen,2_4_2_6_1_0_0_0_0_0_0,2021-01-14T19:41:48.458Z,,,blank.png,blank.png,blank.png,blank.png,blank.png,blank.png,blank.png,"[""marshmallow.png""]",blank.png,blank.png,blank.png,blank.png,blank.png,,,,,,,,,,,,,,,,,,,,,,,,,,,,,"[""marshmallow.png""]","[""strawberry.png""]",PB18.png,,,,,,,,,,,0,6,"[""strawberry.png""]","[""strawberry.png""]","[""strawberry.png""]","[""strawberry.png""]","[""strawberry.png""]","[""strawberry.png""]",blank.png,PB18.png,PB12.png,"[""strawberry.png""]","[""strawberry.png""]","[""strawberry.png""]","[""strawberry.png""]","[""strawberry.png""]","[""strawberry.png""]","[""strawberry.png""]","[""strawberry.png""]",blank.png,blank.png,blank.png,blank.png,1,"[""marshmallow.png""]",blank.png,blank.png,blank.png,2,"[""strawberry.png""]","[""strawberry.png""]",blank.png,blank.png,blank.png,blank.png,PB12.png,,,,,,,,,,,1,,,,,,,,,,,,1075.0130000000354,,timeout,,,,,,,,,,,,,4,,,,,,,,,,,,,,,,,,,,,,,,,,,,,,,,,,,,,,,,,,,,,,,,,,,,,,,,,"[""strawberry.png""]","[""marshmallow.png""]",,,,6,,,false,,1,,,,,,,377011.3900001161,377010.379,376410.287,376495.8999999799,376485.262,377560.275,1,,,
timeout,canvas.Screen,2_4_2_6_1_0_0_0_0_0_1,2021-01-14T19:41:49.484Z,,,blank.png,blank.png,blank.png,blank.png,blank.png,blank.png,blank.png,"[""marshmallow.png""]",blank.png,blank.png,blank.png,blank.png,blank.png,,,,,,,,,,,,,,,,,,,,,,,,,,,,,"[""marshmallow.png""]","[""strawberry.png""]",PB18.png,,,,,,,,,,,0,6,"[""strawberry.png""]","[""strawberry.png""]","[""strawberry.png""]","[""strawberry.png""]","[""strawberry.png""]","[""strawberry.png""]",blank.png,PB18.png,PB12.png,"[""strawberry.png""]","[""strawberry.png""]","[""strawberry.png""]","[""strawberry.png""]","[""strawberry.png""]","[""strawberry.png""]","[""strawberry.png""]","[""strawberry.png""]",blank.png,blank.png,blank.png,blank.png,1,"[""marshmallow.png""]",blank.png,blank.png,blank.png,2,"[""strawberry.png""]","[""strawberry.png""]",blank.png,blank.png,blank.png,blank.png,PB12.png,,,,,,,,,,,1,,,,,,,,,,,,1149.8179999999702,,timeout,,,,,,,,,,,,,4,,,,,,,,,,,,,,,,,,,,,,,,,,,,,,,,,,,,,,,,,,,,,,,,,,,,,,,,,"[""strawberry.png""]","[""marshmallow.png""]",,,,6,,,false,,1,,,,,,,378036.51000000536,378035.351,377010.379,377692.93500017375,377560.275,378710.093,,,,
choice,canvas.Screen,2_4_2_6_1_0_0_0_0_0_2,2021-01-14T19:41:55.173Z,,,blank.png,blank.png,blank.png,blank.png,blank.png,blank.png,blank.png,"[""marshmallow.png""]",blank.png,blank.png,blank.png,blank.png,blank.png,,,,,,,,,,,,,,,,,,,,,,,,,,,,,"[""marshmallow.png""]","[""strawberry.png""]",PB18.png,,,,,,,,,,,0,6,"[""strawberry.png""]","[""strawberry.png""]","[""strawberry.png""]","[""strawberry.png""]","[""strawberry.png""]","[""strawberry.png""]",blank.png,PB18.png,PB12.png,"[""strawberry.png""]","[""strawberry.png""]","[""strawberry.png""]","[""strawberry.png""]","[""strawberry.png""]","[""strawberry.png""]","[""strawberry.png""]","[""strawberry.png""]",blank.png,blank.png,blank.png,blank.png,1,"[""marshmallow.png""]",blank.png,blank.png,blank.png,2,"[""strawberry.png""]","[""strawberry.png""]",blank.png,blank.png,blank.png,blank.png,PB12.png,,,,,,,,,,,1,,,,,,,,,,,,5010.507000116981,,response,,,,,,,,,,,,,4,,,,,,,,,,,,,,,,,,,,,,,,,,,,,,,,,,,,,,,,,,,,,,,,,,,,,,,,,"[""strawberry.png""]","[""marshmallow.png""]",,,,6,left,keydown(ArrowLeft),false,,1,,,,,,,383726.2749997899,383720.600000117,378035.351,378717.78499986976,378710.093,384384.677,,1,,
square,canvas.Screen,2_4_2_6_1_0_0_0_0_0_3,2021-01-14T19:41:56.808Z,,,blank.png,blank.png,blank.png,blank.png,blank.png,blank.png,blank.png,"[""marshmallow.png""]",blank.png,blank.png,blank.png,blank.png,blank.png,,,,,,,,,,,,,,,,,,,,,,,,,,,,,"[""marshmallow.png""]","[""strawberry.png""]",PB18.png,,,,,,,,,,,0,6,"[""strawberry.png""]","[""strawberry.png""]","[""strawberry.png""]","[""strawberry.png""]","[""strawberry.png""]","[""strawberry.png""]",blank.png,PB18.png,PB12.png,"[""strawberry.png""]","[""strawberry.png""]","[""strawberry.png""]","[""strawberry.png""]","[""strawberry.png""]","[""strawberry.png""]","[""strawberry.png""]","[""strawberry.png""]",blank.png,blank.png,blank.png,blank.png,1,"[""marshmallow.png""]",blank.png,blank.png,blank.png,2,"[""strawberry.png""]","[""strawberry.png""]",blank.png,blank.png,blank.png,blank.png,PB12.png,,,,,,,,,,,1,,#33ff3f,#808080,,,,,,,,,999.9539999999688,,timeout,,,,,,,,,,,,,4,,,,,,,,,,,,,,,,,,,,,,,,,,,,,,,,,,,,,,,,,,,,,,,,,,,,,,,,,"[""strawberry.png""]","[""marshmallow.png""]",,,,6,,,false,,1,,,,,black,white,385360.9899999574,385359.655,384359.919,384363.84999984875,384384.677,385384.631,,,,
ITI_late,canvas.Screen,2_4_2_6_1_0_0_0_0_0_4,2021-01-14T19:41:57.808Z,,,blank.png,blank.png,blank.png,blank.png,blank.png,blank.png,blank.png,"[""marshmallow.png""]",blank.png,blank.png,blank.png,blank.png,blank.png,,,,,,,,,,,,,,,,,,,,,,,,,,,,,"[""marshmallow.png""]","[""strawberry.png""]",PB18.png,,,,,,,,,,,0,6,"[""strawberry.png""]","[""strawberry.png""]","[""strawberry.png""]","[""strawberry.png""]","[""strawberry.png""]","[""strawberry.png""]",blank.png,PB18.png,PB12.png,"[""strawberry.png""]","[""strawberry.png""]","[""strawberry.png""]","[""strawberry.png""]","[""strawberry.png""]","[""strawberry.png""]","[""strawberry.png""]","[""strawberry.png""]",blank.png,blank.png,blank.png,blank.png,1,"[""marshmallow.png""]",blank.png,blank.png,blank.png,2,"[""strawberry.png""]","[""strawberry.png""]",blank.png,blank.png,blank.png,blank.png,PB12.png,,,,,,,,,,,1,,,,,,,,,,,,1000.0109999999986,,timeout,,,,,,,,,,,,black,4,,,,,,,,,,,,,,,,,,,,,,,,,,,,,,,,,,,,,,,,,,,,,,,,,,,,,,,,,"[""strawberry.png""]","[""marshmallow.png""]",,,,6,,,false,,1,,,,,,,386360.725000035,386359.705,385359.655,385364.1349999234,385384.631,386384.642,,,,
choice_sequence,flow.Sequence,2_4_2_6_1_0_0_0_0_0,2021-01-14T19:41:57.809Z,,,blank.png,blank.png,blank.png,blank.png,blank.png,blank.png,blank.png,"[""marshmallow.png""]",blank.png,blank.png,blank.png,blank.png,blank.png,,,,,,,,,,,,,,,,,,,,,,,,,,,,,"[""marshmallow.png""]","[""strawberry.png""]",PB18.png,,,,,,,,,,,0,6,"[""strawberry.png""]","[""strawberry.png""]","[""strawberry.png""]","[""strawberry.png""]","[""strawberry.png""]","[""strawberry.png""]",blank.png,PB18.png,PB12.png,"[""strawberry.png""]","[""strawberry.png""]","[""strawberry.png""]","[""strawberry.png""]","[""strawberry.png""]","[""strawberry.png""]","[""strawberry.png""]","[""strawberry.png""]",blank.png,blank.png,blank.png,blank.png,1,"[""marshmallow.png""]",blank.png,blank.png,blank.png,2,"[""strawberry.png""]","[""strawberry.png""]",blank.png,blank.png,blank.png,blank.png,PB12.png,,,,,,,,,,,1,,,,,,,,,,,,9874.443000000028,,completion,,,,,,,,,,,,,4,,,,,,,,,,,,,,,,,,,,,,,,,,,,,,,,,,,,,,,,,,,,,,,,,,,,,,,,,"[""strawberry.png""]","[""marshmallow.png""]",,,,6,,,false,,1,,,,,,,386361.62499990314,386359.705,376410.287,376493.48000017926,376485.262,386384.642,,,,
fixCross,canvas.Screen,2_4_2_6_1_0_0_0_0_1_0,2021-01-14T19:41:58.408Z,,,blank.png,"[""marshmallow.png""]",blank.png,blank.png,blank.png,blank.png,blank.png,blank.png,blank.png,blank.png,blank.png,blank.png,blank.png,,,,,,,,,,,,,,,,,,,,,,,,,,,,,"[""marshmallow.png""]","[""strawberry.png""]",PB15.png,,,,,,,,,,,0,6,"[""strawberry.png""]","[""strawberry.png""]","[""strawberry.png""]","[""strawberry.png""]","[""strawberry.png""]","[""strawberry.png""]",blank.png,PB18.png,PB18.png,"[""strawberry.png""]","[""strawberry.png""]","[""strawberry.png""]","[""strawberry.png""]",blank.png,blank.png,"[""strawberry.png""]","[""strawberry.png""]","[""strawberry.png""]","[""strawberry.png""]","[""strawberry.png""]","[""strawberry.png""]",1,"[""marshmallow.png""]",blank.png,blank.png,blank.png,4,"[""strawberry.png""]","[""strawberry.png""]","[""strawberry.png""]","[""strawberry.png""]",blank.png,blank.png,PB15.png,,,,,,,,,,,1,,,,,,,,,,,,1249.890000000014,,timeout,,,,,,,,,,,,,3,,,,,,,,,,,,,,,,,,,,,,,,,,,,,,,,,,,,,,,,,,,,,,,,,,,,,,,,,"[""strawberry.png""]","[""marshmallow.png""]",,,,6,,,false,,1,,,,,,,386960.8350000344,386959.629,386359.705,386371.08499975875,386384.642,387634.532,2,,,
timeout,canvas.Screen,2_4_2_6_1_0_0_0_0_1_1,2021-01-14T19:41:59.558Z,,,blank.png,"[""marshmallow.png""]",blank.png,blank.png,blank.png,blank.png,blank.png,blank.png,blank.png,blank.png,blank.png,blank.png,blank.png,,,,,,,,,,,,,,,,,,,,,,,,,,,,,"[""marshmallow.png""]","[""strawberry.png""]",PB15.png,,,,,,,,,,,0,6,"[""strawberry.png""]","[""strawberry.png""]","[""strawberry.png""]","[""strawberry.png""]","[""strawberry.png""]","[""strawberry.png""]",blank.png,PB18.png,PB18.png,"[""strawberry.png""]","[""strawberry.png""]","[""strawberry.png""]","[""strawberry.png""]",blank.png,blank.png,"[""strawberry.png""]","[""strawberry.png""]","[""strawberry.png""]","[""strawberry.png""]","[""strawberry.png""]","[""strawberry.png""]",1,"[""marshmallow.png""]",blank.png,blank.png,blank.png,4,"[""strawberry.png""]","[""strawberry.png""]","[""strawberry.png""]","[""strawberry.png""]",blank.png,blank.png,PB15.png,,,,,,,,,,,1,,,,,,,,,,,,1224.7880000000005,,timeout,,,,,,,,,,,,,3,,,,,,,,,,,,,,,,,,,,,,,,,,,,,,,,,,,,,,,,,,,,,,,,,,,,,,,,,"[""strawberry.png""]","[""marshmallow.png""]",,,,6,,,false,,1,,,,,,,388110.564999748,388109.543,386959.629,387644.3549999967,387634.532,388859.32,,,,
choice,canvas.Screen,2_4_2_6_1_0_0_0_0_1_2,2021-01-14T19:42:01.672Z,,,blank.png,"[""marshmallow.png""]",blank.png,blank.png,blank.png,blank.png,blank.png,blank.png,blank.png,blank.png,blank.png,blank.png,blank.png,,,,,,,,,,,,,,,,,,,,,,,,,,,,,"[""marshmallow.png""]","[""strawberry.png""]",PB15.png,,,,,,,,,,,0,6,"[""strawberry.png""]","[""strawberry.png""]","[""strawberry.png""]","[""strawberry.png""]","[""strawberry.png""]","[""strawberry.png""]",blank.png,PB18.png,PB18.png,"[""strawberry.png""]","[""strawberry.png""]","[""strawberry.png""]","[""strawberry.png""]",blank.png,blank.png,"[""strawberry.png""]","[""strawberry.png""]","[""strawberry.png""]","[""strawberry.png""]","[""strawberry.png""]","[""strawberry.png""]",1,"[""marshmallow.png""]",blank.png,blank.png,blank.png,4,"[""strawberry.png""]","[""strawberry.png""]","[""strawberry.png""]","[""strawberry.png""]",blank.png,blank.png,PB15.png,,,,,,,,,,,1,,,,,,,,,,,,1362.8350000831415,,response,,,,,,,,,,,,,3,,,,,,,,,,,,,,,,,,,,,,,,,,,,,,,,,,,,,,,,,,,,,,,,,,,,,,,,,"[""strawberry.png""]","[""marshmallow.png""]",,,,6,right,keydown(ArrowRight),false,,1,,,,,,,390225.42499983683,390222.15500008315,388109.543,388853.89499971643,388859.32,390859.167,,2,,
square,canvas.Screen,2_4_2_6_1_0_0_0_0_1_3,2021-01-14T19:42:03.283Z,,,blank.png,"[""marshmallow.png""]",blank.png,blank.png,blank.png,blank.png,blank.png,blank.png,blank.png,blank.png,blank.png,blank.png,blank.png,,,,,,,,,,,,,,,,,,,,,,,,,,,,,"[""marshmallow.png""]","[""strawberry.png""]",PB15.png,,,,,,,,,,,0,6,"[""strawberry.png""]","[""strawberry.png""]","[""strawberry.png""]","[""strawberry.png""]","[""strawberry.png""]","[""strawberry.png""]",blank.png,PB18.png,PB18.png,"[""strawberry.png""]","[""strawberry.png""]","[""strawberry.png""]","[""strawberry.png""]",blank.png,blank.png,"[""strawberry.png""]","[""strawberry.png""]","[""strawberry.png""]","[""strawberry.png""]","[""strawberry.png""]","[""strawberry.png""]",1,"[""marshmallow.png""]",blank.png,blank.png,blank.png,4,"[""strawberry.png""]","[""strawberry.png""]","[""strawberry.png""]","[""strawberry.png""]",blank.png,blank.png,PB15.png,,,,,,,,,,,1,,#808080,#33ff3f,,,,,,,,,999.9230000000098,,timeout,,,,,,,,,,,,,3,,,,,,,,,,,,,,,,,,,,,,,,,,,,,,,,,,,,,,,,,,,,,,,,,,,,,,,,,"[""strawberry.png""]","[""marshmallow.png""]",,,,6,,,false,,1,,,,,white,black,391835.804999806,391834.15,390834.288,390841.84999996796,390859.167,391859.09,,,,
ITI_late,canvas.Screen,2_4_2_6_1_0_0_0_0_1_4,2021-01-14T19:42:03.782Z,,,blank.png,"[""marshmallow.png""]",blank.png,blank.png,blank.png,blank.png,blank.png,blank.png,blank.png,blank.png,blank.png,blank.png,blank.png,,,,,,,,,,,,,,,,,,,,,,,,,,,,,"[""marshmallow.png""]","[""strawberry.png""]",PB15.png,,,,,,,,,,,0,6,"[""strawberry.png""]","[""strawberry.png""]","[""strawberry.png""]","[""strawberry.png""]","[""strawberry.png""]","[""strawberry.png""]",blank.png,PB18.png,PB18.png,"[""strawberry.png""]","[""strawberry.png""]","[""strawberry.png""]","[""strawberry.png""]",blank.png,blank.png,"[""strawberry.png""]","[""strawberry.png""]","[""strawberry.png""]","[""strawberry.png""]","[""strawberry.png""]","[""strawberry.png""]",1,"[""marshmallow.png""]",blank.png,blank.png,blank.png,4,"[""strawberry.png""]","[""strawberry.png""]","[""strawberry.png""]","[""strawberry.png""]",blank.png,blank.png,PB15.png,,,,,,,,,,,1,,,,,,,,,,,,499.9289999999455,,timeout,,,,,,,,,,,,white,3,,,,,,,,,,,,,,,,,,,,,,,,,,,,,,,,,,,,,,,,,,,,,,,,,,,,,,,,,"[""strawberry.png""]","[""marshmallow.png""]",,,,6,,,false,,1,,,,,,,392335.2500000037,392334.196,391834.15,391838.9900000766,391859.09,392359.019,,,,
choice_sequence,flow.Sequence,2_4_2_6_1_0_0_0_0_1,2021-01-14T19:42:03.783Z,,,blank.png,"[""marshmallow.png""]",blank.png,blank.png,blank.png,blank.png,blank.png,blank.png,blank.png,blank.png,blank.png,blank.png,blank.png,,,,,,,,,,,,,,,,,,,,,,,,,,,,,"[""marshmallow.png""]","[""strawberry.png""]",PB15.png,,,,,,,,,,,0,6,"[""strawberry.png""]","[""strawberry.png""]","[""strawberry.png""]","[""strawberry.png""]","[""strawberry.png""]","[""strawberry.png""]",blank.png,PB18.png,PB18.png,"[""strawberry.png""]","[""strawberry.png""]","[""strawberry.png""]","[""strawberry.png""]",blank.png,blank.png,"[""strawberry.png""]","[""strawberry.png""]","[""strawberry.png""]","[""strawberry.png""]","[""strawberry.png""]","[""strawberry.png""]",1,"[""marshmallow.png""]",blank.png,blank.png,blank.png,4,"[""strawberry.png""]","[""strawberry.png""]","[""strawberry.png""]","[""strawberry.png""]",blank.png,blank.png,PB15.png,,,,,,,,,,,1,,,,,,,,,,,,5949.554000000004,,completion,,,,,,,,,,,,,3,,,,,,,,,,,,,,,,,,,,,,,,,,,,,,,,,,,,,,,,,,,,,,,,,,,,,,,,,"[""strawberry.png""]","[""marshmallow.png""]",,,,6,,,false,,1,,,,,,,392336.2050000578,392334.196,386359.705,386369.41500008106,386384.642,392359.019,,,,
fixCross,canvas.Screen,2_4_2_6_1_0_0_0_0_2_0,2021-01-14T19:42:04.332Z,,,blank.png,blank.png,blank.png,blank.png,blank.png,blank.png,blank.png,"[""marshmallow.png""]",blank.png,blank.png,blank.png,blank.png,blank.png,,,,,,,,,,,,,,,,,,,,,,,,,,,,,"[""marshmallow.png""]","[""strawberry.png""]",PB18.png,,,,,,,,,,,0,6,"[""strawberry.png""]","[""strawberry.png""]","[""strawberry.png""]","[""strawberry.png""]","[""strawberry.png""]","[""strawberry.png""]",blank.png,PB18.png,PB16.png,"[""strawberry.png""]","[""strawberry.png""]","[""strawberry.png""]","[""strawberry.png""]","[""strawberry.png""]","[""strawberry.png""]","[""strawberry.png""]","[""strawberry.png""]","[""strawberry.png""]","[""strawberry.png""]","[""strawberry.png""]",blank.png,1,"[""marshmallow.png""]",blank.png,blank.png,blank.png,5,"[""strawberry.png""]","[""strawberry.png""]","[""strawberry.png""]","[""strawberry.png""]","[""strawberry.png""]",blank.png,PB16.png,,,,,,,,,,,1,,,,,,,,,,,,1299.8610000000335,,timeout,,,,,,,,,,,,,4,,,,,,,,,,,,,,,,,,,,,,,,,,,,,,,,,,,,,,,,,,,,,,,,,,,,,,,,,"[""strawberry.png""]","[""marshmallow.png""]",,,,6,,,false,,1,,,,,,,392885.07500011474,392884.038,392334.196,392360.62499973923,392359.019,393658.88,3,,,
timeout,canvas.Screen,2_4_2_6_1_0_0_0_0_2_1,2021-01-14T19:42:05.582Z,,,blank.png,blank.png,blank.png,blank.png,blank.png,blank.png,blank.png,"[""marshmallow.png""]",blank.png,blank.png,blank.png,blank.png,blank.png,,,,,,,,,,,,,,,,,,,,,,,,,,,,,"[""marshmallow.png""]","[""strawberry.png""]",PB18.png,,,,,,,,,,,0,6,"[""strawberry.png""]","[""strawberry.png""]","[""strawberry.png""]","[""strawberry.png""]","[""strawberry.png""]","[""strawberry.png""]",blank.png,PB18.png,PB16.png,"[""strawberry.png""]","[""strawberry.png""]","[""strawberry.png""]","[""strawberry.png""]","[""strawberry.png""]","[""strawberry.png""]","[""strawberry.png""]","[""strawberry.png""]","[""strawberry.png""]","[""strawberry.png""]","[""strawberry.png""]",blank.png,1,"[""marshmallow.png""]",blank.png,blank.png,blank.png,5,"[""strawberry.png""]","[""strawberry.png""]","[""strawberry.png""]","[""strawberry.png""]","[""strawberry.png""]",blank.png,PB16.png,,,,,,,,,,,1,,,,,,,,,,,,1149.9649999999674,,timeout,,,,,,,,,,,,,4,,,,,,,,,,,,,,,,,,,,,,,,,,,,,,,,,,,,,,,,,,,,,,,,,,,,,,,,,"[""strawberry.png""]","[""marshmallow.png""]",,,,6,,,false,,1,,,,,,,394134.97499981895,394133.935,392884.038,393662.934999913,393658.88,394808.845,,,,
choice,canvas.Screen,2_4_2_6_1_0_0_0_0_2_2,2021-01-14T19:42:06.282Z,,,blank.png,blank.png,blank.png,blank.png,blank.png,blank.png,blank.png,"[""marshmallow.png""]",blank.png,blank.png,blank.png,blank.png,blank.png,,,,,,,,,,,,,,,,,,,,,,,,,,,,,"[""marshmallow.png""]","[""strawberry.png""]",PB18.png,,,,,,,,,,,0,6,"[""strawberry.png""]","[""strawberry.png""]","[""strawberry.png""]","[""strawberry.png""]","[""strawberry.png""]","[""strawberry.png""]",blank.png,PB18.png,PB16.png,"[""strawberry.png""]","[""strawberry.png""]","[""strawberry.png""]","[""strawberry.png""]","[""strawberry.png""]","[""strawberry.png""]","[""strawberry.png""]","[""strawberry.png""]","[""strawberry.png""]","[""strawberry.png""]","[""strawberry.png""]",blank.png,1,"[""marshmallow.png""]",blank.png,blank.png,blank.png,5,"[""strawberry.png""]","[""strawberry.png""]","[""strawberry.png""]","[""strawberry.png""]","[""strawberry.png""]",blank.png,PB16.png,,,,,,,,,,,1,,,,,,,,,,,,433.44000010058517,,response,,,,,,,,,,,,,4,,,,,,,,,,,,,,,,,,,,,,,,,,,,,,,,,,,,,,,,,,,,,,,,,,,,,,,,,"[""strawberry.png""]","[""marshmallow.png""]",,,,6,right,keydown(ArrowRight),false,,1,,,,,,,394834.6549998969,394567.3750001006,394133.935,394818.5399998911,,395608.737,,3,,
square,canvas.Screen,2_4_2_6_1_0_0_0_0_2_3,2021-01-14T19:42:08.032Z,,,blank.png,blank.png,blank.png,blank.png,blank.png,blank.png,blank.png,"[""marshmallow.png""]",blank.png,blank.png,blank.png,blank.png,blank.png,,,,,,,,,,,,,,,,,,,,,,,,,,,,,"[""marshmallow.png""]","[""strawberry.png""]",PB18.png,,,,,,,,,,,0,6,"[""strawberry.png""]","[""strawberry.png""]","[""strawberry.png""]","[""strawberry.png""]","[""strawberry.png""]","[""strawberry.png""]",blank.png,PB18.png,PB16.png,"[""strawberry.png""]","[""strawberry.png""]","[""strawberry.png""]","[""strawberry.png""]","[""strawberry.png""]","[""strawberry.png""]","[""strawberry.png""]","[""strawberry.png""]","[""strawberry.png""]","[""strawberry.png""]","[""strawberry.png""]",blank.png,1,"[""marshmallow.png""]",blank.png,blank.png,blank.png,5,"[""strawberry.png""]","[""strawberry.png""]","[""strawberry.png""]","[""strawberry.png""]","[""strawberry.png""]",blank.png,PB16.png,,,,,,,,,,,1,,#808080,#33ff3f,,,,,,,,,999.9829999999492,,timeout,,,,,,,,,,,,,4,,,,,,,,,,,,,,,,,,,,,,,,,,,,,,,,,,,,,,,,,,,,,,,,,,,,,,,,,"[""strawberry.png""]","[""marshmallow.png""]",,,,6,,,false,,1,,,,,white,black,396585.01499984413,396583.853,394808.845,395541.17000009865,395608.737,396608.72,,,,
ITI_late,canvas.Screen,2_4_2_6_1_0_0_0_0_2_4,2021-01-14T19:42:08.282Z,,,blank.png,blank.png,blank.png,blank.png,blank.png,blank.png,blank.png,"[""marshmallow.png""]",blank.png,blank.png,blank.png,blank.png,blank.png,,,,,,,,,,,,,,,,,,,,,,,,,,,,,"[""marshmallow.png""]","[""strawberry.png""]",PB18.png,,,,,,,,,,,0,6,"[""strawberry.png""]","[""strawberry.png""]","[""strawberry.png""]","[""strawberry.png""]","[""strawberry.png""]","[""strawberry.png""]",blank.png,PB18.png,PB16.png,"[""strawberry.png""]","[""strawberry.png""]","[""strawberry.png""]","[""strawberry.png""]","[""strawberry.png""]","[""strawberry.png""]","[""strawberry.png""]","[""strawberry.png""]","[""strawberry.png""]","[""strawberry.png""]","[""strawberry.png""]",blank.png,1,"[""marshmallow.png""]",blank.png,blank.png,blank.png,5,"[""strawberry.png""]","[""strawberry.png""]","[""strawberry.png""]","[""strawberry.png""]","[""strawberry.png""]",blank.png,PB16.png,,,,,,,,,,,1,,,,,,,,,,,,250.0800000000163,,timeout,,,,,,,,,,,,white,4,,,,,,,,,,,,,,,,,,,,,,,,,,,,,,,,,,,,,,,,,,,,,,,,,,,,,,,,,"[""strawberry.png""]","[""marshmallow.png""]",,,,6,,,false,,1,,,,,,,396834.92500009015,396833.763,396583.853,396588.09999981895,396608.72,396858.8,,,,
choice_sequence,flow.Sequence,2_4_2_6_1_0_0_0_0_2,2021-01-14T19:42:08.283Z,,,blank.png,blank.png,blank.png,blank.png,blank.png,blank.png,blank.png,"[""marshmallow.png""]",blank.png,blank.png,blank.png,blank.png,blank.png,,,,,,,,,,,,,,,,,,,,,,,,,,,,,"[""marshmallow.png""]","[""strawberry.png""]",PB18.png,,,,,,,,,,,0,6,"[""strawberry.png""]","[""strawberry.png""]","[""strawberry.png""]","[""strawberry.png""]","[""strawberry.png""]","[""strawberry.png""]",blank.png,PB18.png,PB16.png,"[""strawberry.png""]","[""strawberry.png""]","[""strawberry.png""]","[""strawberry.png""]","[""strawberry.png""]","[""strawberry.png""]","[""strawberry.png""]","[""strawberry.png""]","[""strawberry.png""]","[""strawberry.png""]","[""strawberry.png""]",blank.png,1,"[""marshmallow.png""]",blank.png,blank.png,blank.png,5,"[""strawberry.png""]","[""strawberry.png""]","[""strawberry.png""]","[""strawberry.png""]","[""strawberry.png""]",blank.png,PB16.png,,,,,,,,,,,1,,,,,,,,,,,,4474.744000000006,,completion,,,,,,,,,,,,,4,,,,,,,,,,,,,,,,,,,,,,,,,,,,,,,,,,,,,,,,,,,,,,,,,,,,,,,,,"[""strawberry.png""]","[""marshmallow.png""]",,,,6,,,false,,1,,,,,,,396836.01500000805,396833.763,392334.196,392356.12499993294,392359.019,396858.8,,,,
fixCross,canvas.Screen,2_4_2_6_1_0_0_0_0_3_0,2021-01-14T19:42:08.832Z,,,blank.png,blank.png,blank.png,blank.png,blank.png,blank.png,blank.png,"[""marshmallow.png""]",blank.png,blank.png,blank.png,blank.png,blank.png,,,,,,,,,,,,,,,,,,,,,,,,,,,,,"[""marshmallow.png""]","[""strawberry.png""]",PB18.png,,,,,,,,,,,0,6,"[""strawberry.png""]","[""strawberry.png""]","[""strawberry.png""]","[""strawberry.png""]","[""strawberry.png""]","[""strawberry.png""]",blank.png,PB18.png,PB07.png,"[""strawberry.png""]","[""strawberry.png""]","[""strawberry.png""]","[""strawberry.png""]","[""strawberry.png""]","[""strawberry.png""]","[""strawberry.png""]",blank.png,blank.png,blank.png,blank.png,blank.png,1,"[""marshmallow.png""]",blank.png,blank.png,blank.png,1,"[""strawberry.png""]",blank.png,blank.png,blank.png,blank.png,blank.png,PB07.png,,,,,,,,,,,1,,,,,,,,,,,,1174.744000000006,,timeout,,,,,,,,,,,,,4,,,,,,,,,,,,,,,,,,,,,,,,,,,,,,,,,,,,,,,,,,,,,,,,,,,,,,,,,"[""strawberry.png""]","[""marshmallow.png""]",,,,6,,,false,,1,,,,,,,397384.829999879,397383.828,396833.763,396845.2550000511,396858.8,398033.544,4,,,
timeout,canvas.Screen,2_4_2_6_1_0_0_0_0_3_1,2021-01-14T19:42:09.956Z,,,blank.png,blank.png,blank.png,blank.png,blank.png,blank.png,blank.png,"[""marshmallow.png""]",blank.png,blank.png,blank.png,blank.png,blank.png,,,,,,,,,,,,,,,,,,,,,,,,,,,,,"[""marshmallow.png""]","[""strawberry.png""]",PB18.png,,,,,,,,,,,0,6,"[""strawberry.png""]","[""strawberry.png""]","[""strawberry.png""]","[""strawberry.png""]","[""strawberry.png""]","[""strawberry.png""]",blank.png,PB18.png,PB07.png,"[""strawberry.png""]","[""strawberry.png""]","[""strawberry.png""]","[""strawberry.png""]","[""strawberry.png""]","[""strawberry.png""]","[""strawberry.png""]",blank.png,blank.png,blank.png,blank.png,blank.png,1,"[""marshmallow.png""]",blank.png,blank.png,blank.png,1,"[""strawberry.png""]",blank.png,blank.png,blank.png,blank.png,blank.png,PB07.png,,,,,,,,,,,1,,,,,,,,,,,,1049.9070000000065,,timeout,,,,,,,,,,,,,4,,,,,,,,,,,,,,,,,,,,,,,,,,,,,,,,,,,,,,,,,,,,,,,,,,,,,,,,,"[""strawberry.png""]","[""marshmallow.png""]",,,,6,,,false,,1,,,,,,,398509.37499990687,398508.588,397383.828,398038.4049997665,398033.544,399083.451,,,,
choice,canvas.Screen,2_4_2_6_1_0_0_0_0_3_2,2021-01-14T19:42:11.695Z,,,blank.png,blank.png,blank.png,blank.png,blank.png,blank.png,blank.png,"[""marshmallow.png""]",blank.png,blank.png,blank.png,blank.png,blank.png,,,,,,,,,,,,,,,,,,,,,,,,,,,,,"[""marshmallow.png""]","[""strawberry.png""]",PB18.png,,,,,,,,,,,0,6,"[""strawberry.png""]","[""strawberry.png""]","[""strawberry.png""]","[""strawberry.png""]","[""strawberry.png""]","[""strawberry.png""]",blank.png,PB18.png,PB07.png,"[""strawberry.png""]","[""strawberry.png""]","[""strawberry.png""]","[""strawberry.png""]","[""strawberry.png""]","[""strawberry.png""]","[""strawberry.png""]",blank.png,blank.png,blank.png,blank.png,blank.png,1,"[""marshmallow.png""]",blank.png,blank.png,blank.png,1,"[""strawberry.png""]",blank.png,blank.png,blank.png,blank.png,blank.png,PB07.png,,,,,,,,,,,1,,,,,,,,,,,,1162.1439997529378,,response,,,,,,,,,,,,,4,,,,,,,,,,,,,,,,,,,,,,,,,,,,,,,,,,,,,,,,,,,,,,,,,,,,,,,,,"[""strawberry.png""]","[""marshmallow.png""]",,,,6,left,keydown(ArrowLeft),false,,1,,,,,,,400248.26999986544,400245.59499975294,398508.588,399092.1149998903,399083.451,400833.337,,4,,
square,canvas.Screen,2_4_2_6_1_0_0_0_0_3_3,2021-01-14T19:42:13.257Z,,,blank.png,blank.png,blank.png,blank.png,blank.png,blank.png,blank.png,"[""marshmallow.png""]",blank.png,blank.png,blank.png,blank.png,blank.png,,,,,,,,,,,,,,,,,,,,,,,,,,,,,"[""marshmallow.png""]","[""strawberry.png""]",PB18.png,,,,,,,,,,,0,6,"[""strawberry.png""]","[""strawberry.png""]","[""strawberry.png""]","[""strawberry.png""]","[""strawberry.png""]","[""strawberry.png""]",blank.png,PB18.png,PB07.png,"[""strawberry.png""]","[""strawberry.png""]","[""strawberry.png""]","[""strawberry.png""]","[""strawberry.png""]","[""strawberry.png""]","[""strawberry.png""]",blank.png,blank.png,blank.png,blank.png,blank.png,1,"[""marshmallow.png""]",blank.png,blank.png,blank.png,1,"[""strawberry.png""]",blank.png,blank.png,blank.png,blank.png,blank.png,PB07.png,,,,,,,,,,,1,,#33ff3f,#808080,,,,,,,,,1000.0050000000047,,timeout,,,,,,,,,,,,,4,,,,,,,,,,,,,,,,,,,,,,,,,,,,,,,,,,,,,,,,,,,,,,,,,,,,,,,,,"[""strawberry.png""]","[""marshmallow.png""]",,,,6,,,false,,1,,,,,black,white,401809.75499982014,401808.368,400808.46,400812.21499992535,400833.337,401833.342,,,,
ITI_late,canvas.Screen,2_4_2_6_1_0_0_0_0_3_4,2021-01-14T19:42:13.506Z,,,blank.png,blank.png,blank.png,blank.png,blank.png,blank.png,blank.png,"[""marshmallow.png""]",blank.png,blank.png,blank.png,blank.png,blank.png,,,,,,,,,,,,,,,,,,,,,,,,,,,,,"[""marshmallow.png""]","[""strawberry.png""]",PB18.png,,,,,,,,,,,0,6,"[""strawberry.png""]","[""strawberry.png""]","[""strawberry.png""]","[""strawberry.png""]","[""strawberry.png""]","[""strawberry.png""]",blank.png,PB18.png,PB07.png,"[""strawberry.png""]","[""strawberry.png""]","[""strawberry.png""]","[""strawberry.png""]","[""strawberry.png""]","[""strawberry.png""]","[""strawberry.png""]",blank.png,blank.png,blank.png,blank.png,blank.png,1,"[""marshmallow.png""]",blank.png,blank.png,blank.png,1,"[""strawberry.png""]",blank.png,blank.png,blank.png,blank.png,blank.png,PB07.png,,,,,,,,,,,1,,,,,,,,,,,,249.92900000000373,,timeout,,,,,,,,,,,,white,4,,,,,,,,,,,,,,,,,,,,,,,,,,,,,,,,,,,,,,,,,,,,,,,,,,,,,,,,,"[""strawberry.png""]","[""marshmallow.png""]",,,,6,,,false,,1,,,,,,,402059.44499978796,402058.452,401808.368,401813.4800000116,401833.342,402083.271,,,,
choice_sequence,flow.Sequence,2_4_2_6_1_0_0_0_0_3,2021-01-14T19:42:13.507Z,,,blank.png,blank.png,blank.png,blank.png,blank.png,blank.png,blank.png,"[""marshmallow.png""]",blank.png,blank.png,blank.png,blank.png,blank.png,,,,,,,,,,,,,,,,,,,,,,,,,,,,,"[""marshmallow.png""]","[""strawberry.png""]",PB18.png,,,,,,,,,,,0,6,"[""strawberry.png""]","[""strawberry.png""]","[""strawberry.png""]","[""strawberry.png""]","[""strawberry.png""]","[""strawberry.png""]",blank.png,PB18.png,PB07.png,"[""strawberry.png""]","[""strawberry.png""]","[""strawberry.png""]","[""strawberry.png""]","[""strawberry.png""]","[""strawberry.png""]","[""strawberry.png""]",blank.png,blank.png,blank.png,blank.png,blank.png,1,"[""marshmallow.png""]",blank.png,blank.png,blank.png,1,"[""strawberry.png""]",blank.png,blank.png,blank.png,blank.png,blank.png,PB07.png,,,,,,,,,,,1,,,,,,,,,,,,5199.652000000002,,completion,,,,,,,,,,,,,4,,,,,,,,,,,,,,,,,,,,,,,,,,,,,,,,,,,,,,,,,,,,,,,,,,,,,,,,,"[""strawberry.png""]","[""marshmallow.png""]",,,,6,,,false,,1,,,,,,,402060.4300000705,402058.452,396833.763,396843.70000008494,396858.8,402083.271,,,,
fixCross,canvas.Screen,2_4_2_6_1_0_0_0_0_4_0,2021-01-14T19:42:14.006Z,,,blank.png,"[""marshmallow.png""]",blank.png,blank.png,blank.png,blank.png,blank.png,blank.png,blank.png,blank.png,blank.png,blank.png,blank.png,,,,,,,,,,,,,,,,,,,,,,,,,,,,,"[""marshmallow.png""]","[""strawberry.png""]",PB01.png,,,,,,,,,,,0,6,"[""strawberry.png""]","[""strawberry.png""]","[""strawberry.png""]","[""strawberry.png""]","[""strawberry.png""]","[""strawberry.png""]",blank.png,PB18.png,PB18.png,blank.png,blank.png,blank.png,blank.png,blank.png,blank.png,"[""strawberry.png""]","[""strawberry.png""]","[""strawberry.png""]","[""strawberry.png""]","[""strawberry.png""]","[""strawberry.png""]",1,"[""marshmallow.png""]",blank.png,blank.png,blank.png,0,blank.png,blank.png,blank.png,blank.png,blank.png,blank.png,PB01.png,,,,,,,,,,,1,,,,,,,,,,,,1049.9689999999828,,timeout,,,,,,,,,,,,,3,,,,,,,,,,,,,,,,,,,,,,,,,,,,,,,,,,,,,,,,,,,,,,,,,,,,,,,,,"[""strawberry.png""]","[""marshmallow.png""]",,,,6,,,false,,1,,,,,,,402559.22999978065,402558.22,402058.452,402068.78999993205,402083.271,403133.24,5,,,
timeout,canvas.Screen,2_4_2_6_1_0_0_0_0_4_1,2021-01-14T19:42:15.058Z,,,blank.png,"[""marshmallow.png""]",blank.png,blank.png,blank.png,blank.png,blank.png,blank.png,blank.png,blank.png,blank.png,blank.png,blank.png,,,,,,,,,,,,,,,,,,,,,,,,,,,,,"[""marshmallow.png""]","[""strawberry.png""]",PB01.png,,,,,,,,,,,0,6,"[""strawberry.png""]","[""strawberry.png""]","[""strawberry.png""]","[""strawberry.png""]","[""strawberry.png""]","[""strawberry.png""]",blank.png,PB18.png,PB18.png,blank.png,blank.png,blank.png,blank.png,blank.png,blank.png,"[""strawberry.png""]","[""strawberry.png""]","[""strawberry.png""]","[""strawberry.png""]","[""strawberry.png""]","[""strawberry.png""]",1,"[""marshmallow.png""]",blank.png,blank.png,blank.png,0,blank.png,blank.png,blank.png,blank.png,blank.png,blank.png,PB01.png,,,,,,,,,,,1,,,,,,,,,,,,999.8460000000196,,timeout,,,,,,,,,,,,,3,,,,,,,,,,,,,,,,,,,,,,,,,,,,,,,,,,,,,,,,,,,,,,,,,,,,,,,,,"[""strawberry.png""]","[""marshmallow.png""]",,,,6,,,false,,1,,,,,,,403610.8200000599,403608.154,402558.22,403139.1799999401,403133.24,404133.086,,,,
choice,canvas.Screen,2_4_2_6_1_0_0_0_0_4_2,2021-01-14T19:42:15.601Z,,,blank.png,"[""marshmallow.png""]",blank.png,blank.png,blank.png,blank.png,blank.png,blank.png,blank.png,blank.png,blank.png,blank.png,blank.png,,,,,,,,,,,,,,,,,,,,,,,,,,,,,"[""marshmallow.png""]","[""strawberry.png""]",PB01.png,,,,,,,,,,,0,6,"[""strawberry.png""]","[""strawberry.png""]","[""strawberry.png""]","[""strawberry.png""]","[""strawberry.png""]","[""strawberry.png""]",blank.png,PB18.png,PB18.png,blank.png,blank.png,blank.png,blank.png,blank.png,blank.png,"[""strawberry.png""]","[""strawberry.png""]","[""strawberry.png""]","[""strawberry.png""]","[""strawberry.png""]","[""strawberry.png""]",1,"[""marshmallow.png""]",blank.png,blank.png,blank.png,0,blank.png,blank.png,blank.png,blank.png,blank.png,blank.png,PB01.png,,,,,,,,,,,1,,,,,,,,,,,,339.71099999465514,,response,,,,,,,,,,,,,3,,,,,,,,,,,,,,,,,,,,,,,,,,,,,,,,,,,,,,,,,,,,,,,,,,,,,,,,,"[""strawberry.png""]","[""marshmallow.png""]",,,,6,right,keydown(ArrowRight),false,,1,,,,,,,404153.95499998704,403947.86499999464,403608.154,404135.8900000341,,404758.02,,5,,
square,canvas.Screen,2_4_2_6_1_0_0_0_0_4_3,2021-01-14T19:42:17.181Z,,,blank.png,"[""marshmallow.png""]",blank.png,blank.png,blank.png,blank.png,blank.png,blank.png,blank.png,blank.png,blank.png,blank.png,blank.png,,,,,,,,,,,,,,,,,,,,,,,,,,,,,"[""marshmallow.png""]","[""strawberry.png""]",PB01.png,,,,,,,,,,,0,6,"[""strawberry.png""]","[""strawberry.png""]","[""strawberry.png""]","[""strawberry.png""]","[""strawberry.png""]","[""strawberry.png""]",blank.png,PB18.png,PB18.png,blank.png,blank.png,blank.png,blank.png,blank.png,blank.png,"[""strawberry.png""]","[""strawberry.png""]","[""strawberry.png""]","[""strawberry.png""]","[""strawberry.png""]","[""strawberry.png""]",1,"[""marshmallow.png""]",blank.png,blank.png,blank.png,0,blank.png,blank.png,blank.png,blank.png,blank.png,blank.png,PB01.png,,,,,,,,,,,1,,#808080,#33ff3f,,,,,,,,,1000.0849999999627,,timeout,,,,,,,,,,,,,3,,,,,,,,,,,,,,,,,,,,,,,,,,,,,,,,,,,,,,,,,,,,,,,,,,,,,,,,,"[""strawberry.png""]","[""marshmallow.png""]",,,,6,,,false,,1,,,,,white,black,405734.4700000249,405733.172,404133.086,404699.73499979824,404758.02,405758.105,,,,
ITI_late,canvas.Screen,2_4_2_6_1_0_0_0_0_4_4,2021-01-14T19:42:18.181Z,,,blank.png,"[""marshmallow.png""]",blank.png,blank.png,blank.png,blank.png,blank.png,blank.png,blank.png,blank.png,blank.png,blank.png,blank.png,,,,,,,,,,,,,,,,,,,,,,,,,,,,,"[""marshmallow.png""]","[""strawberry.png""]",PB01.png,,,,,,,,,,,0,6,"[""strawberry.png""]","[""strawberry.png""]","[""strawberry.png""]","[""strawberry.png""]","[""strawberry.png""]","[""strawberry.png""]",blank.png,PB18.png,PB18.png,blank.png,blank.png,blank.png,blank.png,blank.png,blank.png,"[""strawberry.png""]","[""strawberry.png""]","[""strawberry.png""]","[""strawberry.png""]","[""strawberry.png""]","[""strawberry.png""]",1,"[""marshmallow.png""]",blank.png,blank.png,blank.png,0,blank.png,blank.png,blank.png,blank.png,blank.png,blank.png,PB01.png,,,,,,,,,,,1,,,,,,,,,,,,999.76800000004,,timeout,,,,,,,,,,,,white,3,,,,,,,,,,,,,,,,,,,,,,,,,,,,,,,,,,,,,,,,,,,,,,,,,,,,,,,,,"[""strawberry.png""]","[""marshmallow.png""]",,,,6,,,false,,1,,,,,,,406733.95500006154,406733.072,405733.172,405737.2149997391,405758.105,406757.873,,,,
choice_sequence,flow.Sequence,2_4_2_6_1_0_0_0_0_4,2021-01-14T19:42:18.182Z,,,blank.png,"[""marshmallow.png""]",blank.png,blank.png,blank.png,blank.png,blank.png,blank.png,blank.png,blank.png,blank.png,blank.png,blank.png,,,,,,,,,,,,,,,,,,,,,,,,,,,,,"[""marshmallow.png""]","[""strawberry.png""]",PB01.png,,,,,,,,,,,0,6,"[""strawberry.png""]","[""strawberry.png""]","[""strawberry.png""]","[""strawberry.png""]","[""strawberry.png""]","[""strawberry.png""]",blank.png,PB18.png,PB18.png,blank.png,blank.png,blank.png,blank.png,blank.png,blank.png,"[""strawberry.png""]","[""strawberry.png""]","[""strawberry.png""]","[""strawberry.png""]","[""strawberry.png""]","[""strawberry.png""]",1,"[""marshmallow.png""]",blank.png,blank.png,blank.png,0,blank.png,blank.png,blank.png,blank.png,blank.png,blank.png,PB01.png,,,,,,,,,,,1,,,,,,,,,,,,4649.800999999978,,completion,,,,,,,,,,,,,3,,,,,,,,,,,,,,,,,,,,,,,,,,,,,,,,,,,,,,,,,,,,,,,,,,,,,,,,,"[""strawberry.png""]","[""marshmallow.png""]",,,,6,,,false,,1,,,,,,,406734.92999980226,406733.072,402058.452,402067.3850001767,402083.271,406757.873,,,,
fixCross,canvas.Screen,2_4_2_6_1_0_0_0_0_5_0,2021-01-14T19:42:18.931Z,,,blank.png,blank.png,blank.png,blank.png,blank.png,blank.png,blank.png,"[""marshmallow.png""]",blank.png,blank.png,blank.png,blank.png,blank.png,,,,,,,,,,,,,,,,,,,,,,,,,,,,,"[""marshmallow.png""]","[""strawberry.png""]",PB18.png,,,,,,,,,,,0,6,"[""strawberry.png""]","[""strawberry.png""]","[""strawberry.png""]","[""strawberry.png""]","[""strawberry.png""]","[""strawberry.png""]",blank.png,PB18.png,PB17.png,"[""strawberry.png""]","[""strawberry.png""]","[""strawberry.png""]","[""strawberry.png""]","[""strawberry.png""]","[""strawberry.png""]","[""strawberry.png""]","[""strawberry.png""]","[""strawberry.png""]","[""strawberry.png""]","[""strawberry.png""]","[""strawberry.png""]",1,"[""marshmallow.png""]",blank.png,blank.png,blank.png,6,"[""strawberry.png""]","[""strawberry.png""]","[""strawberry.png""]","[""strawberry.png""]","[""strawberry.png""]","[""strawberry.png""]",PB17.png,,,,,,,,,,,1,,,,,,,,,,,,1599.85699999996,,timeout,,,,,,,,,,,,,4,,,,,,,,,,,,,,,,,,,,,,,,,,,,,,,,,,,,,,,,,,,,,,,,,,,,,,,,,"[""strawberry.png""]","[""marshmallow.png""]",,,,6,,,false,,1,,,,,,,407484.22499978915,407483.005,406733.072,406756.4949998632,406757.873,408357.73,6,,,
timeout,canvas.Screen,2_4_2_6_1_0_0_0_0_5_1,2021-01-14T19:42:20.281Z,,,blank.png,blank.png,blank.png,blank.png,blank.png,blank.png,blank.png,"[""marshmallow.png""]",blank.png,blank.png,blank.png,blank.png,blank.png,,,,,,,,,,,,,,,,,,,,,,,,,,,,,"[""marshmallow.png""]","[""strawberry.png""]",PB18.png,,,,,,,,,,,0,6,"[""strawberry.png""]","[""strawberry.png""]","[""strawberry.png""]","[""strawberry.png""]","[""strawberry.png""]","[""strawberry.png""]",blank.png,PB18.png,PB17.png,"[""strawberry.png""]","[""strawberry.png""]","[""strawberry.png""]","[""strawberry.png""]","[""strawberry.png""]","[""strawberry.png""]","[""strawberry.png""]","[""strawberry.png""]","[""strawberry.png""]","[""strawberry.png""]","[""strawberry.png""]","[""strawberry.png""]",1,"[""marshmallow.png""]",blank.png,blank.png,blank.png,6,"[""strawberry.png""]","[""strawberry.png""]","[""strawberry.png""]","[""strawberry.png""]","[""strawberry.png""]","[""strawberry.png""]",PB17.png,,,,,,,,,,,1,,,,,,,,,,,,1299.9120000000112,,timeout,,,,,,,,,,,,,4,,,,,,,,,,,,,,,,,,,,,,,,,,,,,,,,,,,,,,,,,,,,,,,,,,,,,,,,,"[""strawberry.png""]","[""marshmallow.png""]",,,,6,,,false,,1,,,,,,,408833.7949998677,408832.812,407483.005,408366.8249999173,408357.73,409657.642,,,,
choice,canvas.Screen,2_4_2_6_1_0_0_0_0_5_2,2021-01-14T19:42:21.118Z,,,blank.png,blank.png,blank.png,blank.png,blank.png,blank.png,blank.png,"[""marshmallow.png""]",blank.png,blank.png,blank.png,blank.png,blank.png,,,,,,,,,,,,,,,,,,,,,,,,,,,,,"[""marshmallow.png""]","[""strawberry.png""]",PB18.png,,,,,,,,,,,0,6,"[""strawberry.png""]","[""strawberry.png""]","[""strawberry.png""]","[""strawberry.png""]","[""strawberry.png""]","[""strawberry.png""]",blank.png,PB18.png,PB17.png,"[""strawberry.png""]","[""strawberry.png""]","[""strawberry.png""]","[""strawberry.png""]","[""strawberry.png""]","[""strawberry.png""]","[""strawberry.png""]","[""strawberry.png""]","[""strawberry.png""]","[""strawberry.png""]","[""strawberry.png""]","[""strawberry.png""]",1,"[""marshmallow.png""]",blank.png,blank.png,blank.png,6,"[""strawberry.png""]","[""strawberry.png""]","[""strawberry.png""]","[""strawberry.png""]","[""strawberry.png""]","[""strawberry.png""]",PB17.png,,,,,,,,,,,1,,,,,,,,,,,,368.1429997747182,,response,,,,,,,,,,,,,4,,,,,,,,,,,,,,,,,,,,,,,,,,,,,,,,,,,,,,,,,,,,,,,,,,,,,,,,,"[""strawberry.png""]","[""marshmallow.png""]",,,,6,right,keydown(ArrowRight),false,,1,,,,,,,409670.8749998361,409200.9549997747,408832.812,409654.8199998215,,410457.634,,6,,
square,canvas.Screen,2_4_2_6_1_0_0_0_0_5_3,2021-01-14T19:42:22.881Z,,,blank.png,blank.png,blank.png,blank.png,blank.png,blank.png,blank.png,"[""marshmallow.png""]",blank.png,blank.png,blank.png,blank.png,blank.png,,,,,,,,,,,,,,,,,,,,,,,,,,,,,"[""marshmallow.png""]","[""strawberry.png""]",PB18.png,,,,,,,,,,,0,6,"[""strawberry.png""]","[""strawberry.png""]","[""strawberry.png""]","[""strawberry.png""]","[""strawberry.png""]","[""strawberry.png""]",blank.png,PB18.png,PB17.png,"[""strawberry.png""]","[""strawberry.png""]","[""strawberry.png""]","[""strawberry.png""]","[""strawberry.png""]","[""strawberry.png""]","[""strawberry.png""]","[""strawberry.png""]","[""strawberry.png""]","[""strawberry.png""]","[""strawberry.png""]","[""strawberry.png""]",1,"[""marshmallow.png""]",blank.png,blank.png,blank.png,6,"[""strawberry.png""]","[""strawberry.png""]","[""strawberry.png""]","[""strawberry.png""]","[""strawberry.png""]","[""strawberry.png""]",PB17.png,,,,,,,,,,,1,,#808080,#33ff3f,,,,,,,,,999.9989999999525,,timeout,,,,,,,,,,,,,4,,,,,,,,,,,,,,,,,,,,,,,,,,,,,,,,,,,,,,,,,,,,,,,,,,,,,,,,,"[""strawberry.png""]","[""marshmallow.png""]",,,,6,,,false,,1,,,,,white,black,411433.9700001292,411432.689,409657.642,410419.7499998845,410457.634,411457.633,,,,
ITI_late,canvas.Screen,2_4_2_6_1_0_0_0_0_5_4,2021-01-14T19:42:23.881Z,,,blank.png,blank.png,blank.png,blank.png,blank.png,blank.png,blank.png,"[""marshmallow.png""]",blank.png,blank.png,blank.png,blank.png,blank.png,,,,,,,,,,,,,,,,,,,,,,,,,,,,,"[""marshmallow.png""]","[""strawberry.png""]",PB18.png,,,,,,,,,,,0,6,"[""strawberry.png""]","[""strawberry.png""]","[""strawberry.png""]","[""strawberry.png""]","[""strawberry.png""]","[""strawberry.png""]",blank.png,PB18.png,PB17.png,"[""strawberry.png""]","[""strawberry.png""]","[""strawberry.png""]","[""strawberry.png""]","[""strawberry.png""]","[""strawberry.png""]","[""strawberry.png""]","[""strawberry.png""]","[""strawberry.png""]","[""strawberry.png""]","[""strawberry.png""]","[""strawberry.png""]",1,"[""marshmallow.png""]",blank.png,blank.png,blank.png,6,"[""strawberry.png""]","[""strawberry.png""]","[""strawberry.png""]","[""strawberry.png""]","[""strawberry.png""]","[""strawberry.png""]",PB17.png,,,,,,,,,,,1,,,,,,,,,,,,999.7860000000219,,timeout,,,,,,,,,,,,white,4,,,,,,,,,,,,,,,,,,,,,,,,,,,,,,,,,,,,,,,,,,,,,,,,,,,,,,,,,"[""strawberry.png""]","[""marshmallow.png""]",,,,6,,,false,,1,,,,,,,412433.6199997924,412432.612,411432.689,411436.99999991804,411457.633,412457.419,,,,
choice_sequence,flow.Sequence,2_4_2_6_1_0_0_0_0_5,2021-01-14T19:42:23.882Z,,,blank.png,blank.png,blank.png,blank.png,blank.png,blank.png,blank.png,"[""marshmallow.png""]",blank.png,blank.png,blank.png,blank.png,blank.png,,,,,,,,,,,,,,,,,,,,,,,,,,,,,"[""marshmallow.png""]","[""strawberry.png""]",PB18.png,,,,,,,,,,,0,6,"[""strawberry.png""]","[""strawberry.png""]","[""strawberry.png""]","[""strawberry.png""]","[""strawberry.png""]","[""strawberry.png""]",blank.png,PB18.png,PB17.png,"[""strawberry.png""]","[""strawberry.png""]","[""strawberry.png""]","[""strawberry.png""]","[""strawberry.png""]","[""strawberry.png""]","[""strawberry.png""]","[""strawberry.png""]","[""strawberry.png""]","[""strawberry.png""]","[""strawberry.png""]","[""strawberry.png""]",1,"[""marshmallow.png""]",blank.png,blank.png,blank.png,6,"[""strawberry.png""]","[""strawberry.png""]","[""strawberry.png""]","[""strawberry.png""]","[""strawberry.png""]","[""strawberry.png""]",PB17.png,,,,,,,,,,,1,,,,,,,,,,,,5674.739000000001,,completion,,,,,,,,,,,,,4,,,,,,,,,,,,,,,,,,,,,,,,,,,,,,,,,,,,,,,,,,,,,,,,,,,,,,,,,"[""strawberry.png""]","[""marshmallow.png""]",,,,6,,,false,,1,,,,,,,412434.61999995634,412432.612,406733.072,406754.05000010505,406757.873,412457.419,,,,
fixCross,canvas.Screen,2_4_2_6_1_0_0_0_0_6_0,2021-01-14T19:42:24.384Z,,,blank.png,blank.png,blank.png,blank.png,blank.png,blank.png,blank.png,"[""marshmallow.png""]",blank.png,blank.png,blank.png,blank.png,blank.png,,,,,,,,,,,,,,,,,,,,,,,,,,,,,"[""marshmallow.png""]","[""strawberry.png""]",PB18.png,,,,,,,,,,,0,6,"[""strawberry.png""]","[""strawberry.png""]","[""strawberry.png""]","[""strawberry.png""]","[""strawberry.png""]","[""strawberry.png""]",blank.png,PB18.png,PB14.png,"[""strawberry.png""]","[""strawberry.png""]","[""strawberry.png""]","[""strawberry.png""]","[""strawberry.png""]","[""strawberry.png""]","[""strawberry.png""]","[""strawberry.png""]","[""strawberry.png""]",blank.png,blank.png,blank.png,1,"[""marshmallow.png""]",blank.png,blank.png,blank.png,3,"[""strawberry.png""]","[""strawberry.png""]","[""strawberry.png""]",blank.png,blank.png,blank.png,PB14.png,,,,,,,,,,,1,,,,,,,,,,,,1224.8850000000093,,timeout,,,,,,,,,,,,,4,,,,,,,,,,,,,,,,,,,,,,,,,,,,,,,,,,,,,,,,,,,,,,,,,,,,,,,,,"[""strawberry.png""]","[""marshmallow.png""]",,,,6,,,false,,1,,,,,,,412936.7450000718,412932.562,412432.612,412455.24000003934,412457.419,413682.304,7,,,
timeout,canvas.Screen,2_4_2_6_1_0_0_0_0_6_1,2021-01-14T19:42:25.605Z,,,blank.png,blank.png,blank.png,blank.png,blank.png,blank.png,blank.png,"[""marshmallow.png""]",blank.png,blank.png,blank.png,blank.png,blank.png,,,,,,,,,,,,,,,,,,,,,,,,,,,,,"[""marshmallow.png""]","[""strawberry.png""]",PB18.png,,,,,,,,,,,0,6,"[""strawberry.png""]","[""strawberry.png""]","[""strawberry.png""]","[""strawberry.png""]","[""strawberry.png""]","[""strawberry.png""]",blank.png,PB18.png,PB14.png,"[""strawberry.png""]","[""strawberry.png""]","[""strawberry.png""]","[""strawberry.png""]","[""strawberry.png""]","[""strawberry.png""]","[""strawberry.png""]","[""strawberry.png""]","[""strawberry.png""]",blank.png,blank.png,blank.png,1,"[""marshmallow.png""]",blank.png,blank.png,blank.png,3,"[""strawberry.png""]","[""strawberry.png""]","[""strawberry.png""]",blank.png,blank.png,blank.png,PB14.png,,,,,,,,,,,1,,,,,,,,,,,,1149.9429999999702,,timeout,,,,,,,,,,,,,4,,,,,,,,,,,,,,,,,,,,,,,,,,,,,,,,,,,,,,,,,,,,,,,,,,,,,,,,,"[""strawberry.png""]","[""marshmallow.png""]",,,,6,,,false,,1,,,,,,,414158.4600000642,414157.452,412932.562,413688.389999792,413682.304,414832.247,,,,
choice,canvas.Screen,2_4_2_6_1_0_0_0_0_6_2,2021-01-14T19:42:26.289Z,,,blank.png,blank.png,blank.png,blank.png,blank.png,blank.png,blank.png,"[""marshmallow.png""]",blank.png,blank.png,blank.png,blank.png,blank.png,,,,,,,,,,,,,,,,,,,,,,,,,,,,,"[""marshmallow.png""]","[""strawberry.png""]",PB18.png,,,,,,,,,,,0,6,"[""strawberry.png""]","[""strawberry.png""]","[""strawberry.png""]","[""strawberry.png""]","[""strawberry.png""]","[""strawberry.png""]",blank.png,PB18.png,PB14.png,"[""strawberry.png""]","[""strawberry.png""]","[""strawberry.png""]","[""strawberry.png""]","[""strawberry.png""]","[""strawberry.png""]","[""strawberry.png""]","[""strawberry.png""]","[""strawberry.png""]",blank.png,blank.png,blank.png,1,"[""marshmallow.png""]",blank.png,blank.png,blank.png,3,"[""strawberry.png""]","[""strawberry.png""]","[""strawberry.png""]",blank.png,blank.png,blank.png,PB14.png,,,,,,,,,,,1,,,,,,,,,,,,232.15799995471025,,response,,,,,,,,,,,,,4,,,,,,,,,,,,,,,,,,,,,,,,,,,,,,,,,,,,,,,,,,,,,,,,,,,,,,,,,"[""strawberry.png""]","[""marshmallow.png""]",,,,6,right,keydown(ArrowRight),false,,1,,,,,,,414842.37500000745,414389.6099999547,414157.452,414827.8449997306,,415457.236,,7,,
square,canvas.Screen,2_4_2_6_1_0_0_0_0_6_3,2021-01-14T19:42:27.880Z,,,blank.png,blank.png,blank.png,blank.png,blank.png,blank.png,blank.png,"[""marshmallow.png""]",blank.png,blank.png,blank.png,blank.png,blank.png,,,,,,,,,,,,,,,,,,,,,,,,,,,,,"[""marshmallow.png""]","[""strawberry.png""]",PB18.png,,,,,,,,,,,0,6,"[""strawberry.png""]","[""strawberry.png""]","[""strawberry.png""]","[""strawberry.png""]","[""strawberry.png""]","[""strawberry.png""]",blank.png,PB18.png,PB14.png,"[""strawberry.png""]","[""strawberry.png""]","[""strawberry.png""]","[""strawberry.png""]","[""strawberry.png""]","[""strawberry.png""]","[""strawberry.png""]","[""strawberry.png""]","[""strawberry.png""]",blank.png,blank.png,blank.png,1,"[""marshmallow.png""]",blank.png,blank.png,blank.png,3,"[""strawberry.png""]","[""strawberry.png""]","[""strawberry.png""]",blank.png,blank.png,blank.png,PB14.png,,,,,,,,,,,1,,#808080,#33ff3f,,,,,,,,,1000.0910000000149,,timeout,,,,,,,,,,,,,4,,,,,,,,,,,,,,,,,,,,,,,,,,,,,,,,,,,,,,,,,,,,,,,,,,,,,,,,,"[""strawberry.png""]","[""marshmallow.png""]",,,,6,,,false,,1,,,,,white,black,416433.24000015855,416432.272,414832.247,415465.5300001614,415457.236,416457.327,,,,
ITI_late,canvas.Screen,2_4_2_6_1_0_0_0_0_6_4,2021-01-14T19:42:28.880Z,,,blank.png,blank.png,blank.png,blank.png,blank.png,blank.png,blank.png,"[""marshmallow.png""]",blank.png,blank.png,blank.png,blank.png,blank.png,,,,,,,,,,,,,,,,,,,,,,,,,,,,,"[""marshmallow.png""]","[""strawberry.png""]",PB18.png,,,,,,,,,,,0,6,"[""strawberry.png""]","[""strawberry.png""]","[""strawberry.png""]","[""strawberry.png""]","[""strawberry.png""]","[""strawberry.png""]",blank.png,PB18.png,PB14.png,"[""strawberry.png""]","[""strawberry.png""]","[""strawberry.png""]","[""strawberry.png""]","[""strawberry.png""]","[""strawberry.png""]","[""strawberry.png""]","[""strawberry.png""]","[""strawberry.png""]",blank.png,blank.png,blank.png,1,"[""marshmallow.png""]",blank.png,blank.png,blank.png,3,"[""strawberry.png""]","[""strawberry.png""]","[""strawberry.png""]",blank.png,blank.png,blank.png,PB14.png,,,,,,,,,,,1,,,,,,,,,,,,1049.6959999999963,,timeout,,,,,,,,,,,,white,4,,,,,,,,,,,,,,,,,,,,,,,,,,,,,,,,,,,,,,,,,,,,,,,,,,,,,,,,,"[""strawberry.png""]","[""marshmallow.png""]",,,,6,,,false,,1,,,,,,,417433.1950000487,417432.204,416432.272,416436.1149999313,416457.327,417507.023,,,,
choice_sequence,flow.Sequence,2_4_2_6_1_0_0_0_0_6,2021-01-14T19:42:28.881Z,,,blank.png,blank.png,blank.png,blank.png,blank.png,blank.png,blank.png,"[""marshmallow.png""]",blank.png,blank.png,blank.png,blank.png,blank.png,,,,,,,,,,,,,,,,,,,,,,,,,,,,,"[""marshmallow.png""]","[""strawberry.png""]",PB18.png,,,,,,,,,,,0,6,"[""strawberry.png""]","[""strawberry.png""]","[""strawberry.png""]","[""strawberry.png""]","[""strawberry.png""]","[""strawberry.png""]",blank.png,PB18.png,PB14.png,"[""strawberry.png""]","[""strawberry.png""]","[""strawberry.png""]","[""strawberry.png""]","[""strawberry.png""]","[""strawberry.png""]","[""strawberry.png""]","[""strawberry.png""]","[""strawberry.png""]",blank.png,blank.png,blank.png,1,"[""marshmallow.png""]",blank.png,blank.png,blank.png,3,"[""strawberry.png""]","[""strawberry.png""]","[""strawberry.png""]",blank.png,blank.png,blank.png,PB14.png,,,,,,,,,,,1,,,,,,,,,,,,4974.785000000033,,completion,,,,,,,,,,,,,4,,,,,,,,,,,,,,,,,,,,,,,,,,,,,,,,,,,,,,,,,,,,,,,,,,,,,,,,,"[""strawberry.png""]","[""marshmallow.png""]",,,,6,,,false,,1,,,,,,,417434.2000000179,417432.204,412432.612,412452.58999988437,412457.419,417507.023,,,,
choice_loop,flow.Loop,2_4_2_6_1_0_0_0_0,2021-01-14T19:42:28.882Z,,,,,,,,,,,,,,,,,,,,,,,,,,,,,,,,,,,,,,,,,,,,"[""marshmallow.png""]","[""strawberry.png""]",,,,,,,,,,,,,,,,,,,,,,,,,,,,,,,,,,,,,,,,,,,,,,,,,,,,,,,,,,,,,,,,,,,,,,40946.94200000004,,completion,,,,,,,,,,,,,,,,,,,,,,,,,,,,,,,,,,,,,,,,,,,,,,,,,,,,,,,,,,,,,,,,,,,,,,"[""strawberry.png""]","[""marshmallow.png""]",,,,6,,,false,,,,,,,,,417434.83499996364,417432.204,376410.287,376483.93499990925,376485.262,417507.023,,,,
choice_frame,html.Frame,2_4_2_6_1_0_0_0,2021-01-14T19:42:28.882Z,,,,,,,,,,,,,,,,,,,,,,,,,,,,,,,,,,,,,,,,,,,,,,,,,,,,,,,,,,,,,,,,,,,,,,,,,,,,,,,,,,,,,,,,,,,,,,,,,,,,,,,,,,,,,,,,,,,40949.808000123245,,,,,,,,,,,,,,,,,,,,,,,,,,,,,,,,,,,,,,,,,,,,,,,,,,,,,,,,,,,,,,,,,,,,,,,,,,,,,6,,,false,,,,,,,,,417435.455000028,417435.07000012323,376410.287,376411.58499987796,376485.262,417532.017,,,,
sublock_1,flow.Sequence,2_4_2_6_1_0_0,2021-01-14T19:42:28.883Z,,,,,,,,,,,,,,,,,,,,,,,,,,,,,,,,,,,,,,,,,,,,,,,,,,,,,,,,,,,,,,,,,,,,,,,,,,,,,,,,,,,,,,,,,,,,,,,,,,,,,,,,,,,,,,,,,,,40949.808000123245,,completion,,,,,,,,,,,,,,,,,,,,,,,,,,,,,,,,,,,,,,,,,,,,,,,,,,,,,,,,,,,,,,,,,,,,,,,,,,,6,,,false,,,,,,,,,417435.81499997526,417435.07000012323,376410.287,376411.48500004783,376485.262,417532.017,,,,
fixCross,canvas.Screen,2_4_2_6_1_0_1_0_0_0_0,2021-01-14T19:42:29.705Z,,,blank.png,blank.png,blank.png,blank.png,blank.png,blank.png,blank.png,"[""marshmallow.png""]",blank.png,blank.png,blank.png,blank.png,blank.png,,,,,,,,,,,,,,,,,,,,,,,,,,,,,"[""marshmallow.png""]","[""strawberry.png""]",PB18.png,,,,,,,,,,,0,6,"[""strawberry.png""]","[""strawberry.png""]","[""strawberry.png""]","[""strawberry.png""]","[""strawberry.png""]","[""strawberry.png""]",blank.png,PB18.png,PB14.png,"[""strawberry.png""]","[""strawberry.png""]","[""strawberry.png""]","[""strawberry.png""]","[""strawberry.png""]","[""strawberry.png""]","[""strawberry.png""]","[""strawberry.png""]","[""strawberry.png""]",blank.png,blank.png,blank.png,1,"[""marshmallow.png""]",blank.png,blank.png,blank.png,3,"[""strawberry.png""]","[""strawberry.png""]","[""strawberry.png""]",blank.png,blank.png,blank.png,PB14.png,,,,,,,,,,,1,,,,,,,,,,,,1399.9220000000205,,timeout,,,,,,,,,,,,,4,,,,,,,,,,,,,,,,,,,,,,,,,,,,,,,,,,,,,,,,,,,,,,,,,,,,,,,,,"[""strawberry.png""]","[""marshmallow.png""]",,,,3,,,false,,1,,,,,,,418258.04500002414,418257.065,417507.023,417525.12999996543,417532.017,418931.939,8,,,
timeout,canvas.Screen,2_4_2_6_1_0_1_0_0_0_1,2021-01-14T19:42:30.855Z,,,blank.png,blank.png,blank.png,blank.png,blank.png,blank.png,blank.png,"[""marshmallow.png""]",blank.png,blank.png,blank.png,blank.png,blank.png,,,,,,,,,,,,,,,,,,,,,,,,,,,,,"[""marshmallow.png""]","[""strawberry.png""]",PB18.png,,,,,,,,,,,0,6,"[""strawberry.png""]","[""strawberry.png""]","[""strawberry.png""]","[""strawberry.png""]","[""strawberry.png""]","[""strawberry.png""]",blank.png,PB18.png,PB14.png,"[""strawberry.png""]","[""strawberry.png""]","[""strawberry.png""]","[""strawberry.png""]","[""strawberry.png""]","[""strawberry.png""]","[""strawberry.png""]","[""strawberry.png""]","[""strawberry.png""]",blank.png,blank.png,blank.png,1,"[""marshmallow.png""]",blank.png,blank.png,blank.png,3,"[""strawberry.png""]","[""strawberry.png""]","[""strawberry.png""]",blank.png,blank.png,blank.png,PB14.png,,,,,,,,,,,1,,,,,,,,,,,,1149.8530000000028,,timeout,,,,,,,,,,,,,4,,,,,,,,,,,,,,,,,,,,,,,,,,,,,,,,,,,,,,,,,,,,,,,,,,,,,,,,,"[""strawberry.png""]","[""marshmallow.png""]",,,,3,,,false,,1,,,,,,,419408.0599998124,419406.961,418257.065,418923.5299997963,418931.939,420081.792,,,,
choice,canvas.Screen,2_4_2_6_1_0_1_0_0_0_2,2021-01-14T19:42:31.540Z,,,blank.png,blank.png,blank.png,blank.png,blank.png,blank.png,blank.png,"[""marshmallow.png""]",blank.png,blank.png,blank.png,blank.png,blank.png,,,,,,,,,,,,,,,,,,,,,,,,,,,,,"[""marshmallow.png""]","[""strawberry.png""]",PB18.png,,,,,,,,,,,0,6,"[""strawberry.png""]","[""strawberry.png""]","[""strawberry.png""]","[""strawberry.png""]","[""strawberry.png""]","[""strawberry.png""]",blank.png,PB18.png,PB14.png,"[""strawberry.png""]","[""strawberry.png""]","[""strawberry.png""]","[""strawberry.png""]","[""strawberry.png""]","[""strawberry.png""]","[""strawberry.png""]","[""strawberry.png""]","[""strawberry.png""]",blank.png,blank.png,blank.png,1,"[""marshmallow.png""]",blank.png,blank.png,blank.png,3,"[""strawberry.png""]","[""strawberry.png""]","[""strawberry.png""]",blank.png,blank.png,blank.png,PB14.png,,,,,,,,,,,1,,,,,,,,,,,,674.3689999572234,,response,,,,,,,,,,,,,4,,,,,,,,,,,,,,,,,,,,,,,,,,,,,,,,,,,,,,,,,,,,,,,,,,,,,,,,,"[""strawberry.png""]","[""marshmallow.png""]",,,,3,left,keydown(ArrowLeft),false,,1,,,,,,,420093.03499991074,420081.32999995723,419406.961,420076.7549998127,,420756.783,,8,,
square,canvas.Screen,2_4_2_6_1_0_1_0_0_0_3,2021-01-14T19:42:33.180Z,,,blank.png,blank.png,blank.png,blank.png,blank.png,blank.png,blank.png,"[""marshmallow.png""]",blank.png,blank.png,blank.png,blank.png,blank.png,,,,,,,,,,,,,,,,,,,,,,,,,,,,,"[""marshmallow.png""]","[""strawberry.png""]",PB18.png,,,,,,,,,,,0,6,"[""strawberry.png""]","[""strawberry.png""]","[""strawberry.png""]","[""strawberry.png""]","[""strawberry.png""]","[""strawberry.png""]",blank.png,PB18.png,PB14.png,"[""strawberry.png""]","[""strawberry.png""]","[""strawberry.png""]","[""strawberry.png""]","[""strawberry.png""]","[""strawberry.png""]","[""strawberry.png""]","[""strawberry.png""]","[""strawberry.png""]",blank.png,blank.png,blank.png,1,"[""marshmallow.png""]",blank.png,blank.png,blank.png,3,"[""strawberry.png""]","[""strawberry.png""]","[""strawberry.png""]",blank.png,blank.png,blank.png,PB14.png,,,,,,,,,,,1,,#33ff3f,#808080,,,,,,,,,1000.064000000013,,timeout,,,,,,,,,,,,,4,,,,,,,,,,,,,,,,,,,,,,,,,,,,,,,,,,,,,,,,,,,,,,,,,,,,,,,,,"[""strawberry.png""]","[""marshmallow.png""]",,,,3,,,false,,1,,,,,black,white,421733.0700000748,421731.859,420081.792,420750.8950000629,420756.783,421756.847,,,,
ITI_late,canvas.Screen,2_4_2_6_1_0_1_0_0_0_4,2021-01-14T19:42:34.430Z,,,blank.png,blank.png,blank.png,blank.png,blank.png,blank.png,blank.png,"[""marshmallow.png""]",blank.png,blank.png,blank.png,blank.png,blank.png,,,,,,,,,,,,,,,,,,,,,,,,,,,,,"[""marshmallow.png""]","[""strawberry.png""]",PB18.png,,,,,,,,,,,0,6,"[""strawberry.png""]","[""strawberry.png""]","[""strawberry.png""]","[""strawberry.png""]","[""strawberry.png""]","[""strawberry.png""]",blank.png,PB18.png,PB14.png,"[""strawberry.png""]","[""strawberry.png""]","[""strawberry.png""]","[""strawberry.png""]","[""strawberry.png""]","[""strawberry.png""]","[""strawberry.png""]","[""strawberry.png""]","[""strawberry.png""]",blank.png,blank.png,blank.png,1,"[""marshmallow.png""]",blank.png,blank.png,blank.png,3,"[""strawberry.png""]","[""strawberry.png""]","[""strawberry.png""]",blank.png,blank.png,blank.png,PB14.png,,,,,,,,,,,1,,,,,,,,,,,,1249.738000000012,,timeout,,,,,,,,,,,,white,4,,,,,,,,,,,,,,,,,,,,,,,,,,,,,,,,,,,,,,,,,,,,,,,,,,,,,,,,,"[""strawberry.png""]","[""marshmallow.png""]",,,,3,,,false,,1,,,,,,,422982.71000012755,422981.74,421731.859,421735.86999997497,421756.847,423006.585,,,,
choice_sequence,flow.Sequence,2_4_2_6_1_0_1_0_0_0,2021-01-14T19:42:34.431Z,,,blank.png,blank.png,blank.png,blank.png,blank.png,blank.png,blank.png,"[""marshmallow.png""]",blank.png,blank.png,blank.png,blank.png,blank.png,,,,,,,,,,,,,,,,,,,,,,,,,,,,,"[""marshmallow.png""]","[""strawberry.png""]",PB18.png,,,,,,,,,,,0,6,"[""strawberry.png""]","[""strawberry.png""]","[""strawberry.png""]","[""strawberry.png""]","[""strawberry.png""]","[""strawberry.png""]",blank.png,PB18.png,PB14.png,"[""strawberry.png""]","[""strawberry.png""]","[""strawberry.png""]","[""strawberry.png""]","[""strawberry.png""]","[""strawberry.png""]","[""strawberry.png""]","[""strawberry.png""]","[""strawberry.png""]",blank.png,blank.png,blank.png,1,"[""marshmallow.png""]",blank.png,blank.png,blank.png,3,"[""strawberry.png""]","[""strawberry.png""]","[""strawberry.png""]",blank.png,blank.png,blank.png,PB14.png,,,,,,,,,,,1,,,,,,,,,,,,5449.722999999998,,completion,,,,,,,,,,,,,4,,,,,,,,,,,,,,,,,,,,,,,,,,,,,,,,,,,,,,,,,,,,,,,,,,,,,,,,,"[""strawberry.png""]","[""marshmallow.png""]",,,,3,,,false,,1,,,,,,,422983.5950001143,422981.74,417507.023,417523.8149999641,417532.017,423006.585,,,,
fixCross,canvas.Screen,2_4_2_6_1_0_1_0_0_1_0,2021-01-14T19:42:34.680Z,,,blank.png,blank.png,blank.png,blank.png,blank.png,blank.png,blank.png,"[""marshmallow.png""]",blank.png,blank.png,blank.png,blank.png,blank.png,,,,,,,,,,,,,,,,,,,,,,,,,,,,,"[""marshmallow.png""]","[""strawberry.png""]",PB18.png,,,,,,,,,,,0,6,"[""strawberry.png""]","[""strawberry.png""]","[""strawberry.png""]","[""strawberry.png""]","[""strawberry.png""]","[""strawberry.png""]",blank.png,PB18.png,PB17.png,"[""strawberry.png""]","[""strawberry.png""]","[""strawberry.png""]","[""strawberry.png""]","[""strawberry.png""]","[""strawberry.png""]","[""strawberry.png""]","[""strawberry.png""]","[""strawberry.png""]","[""strawberry.png""]","[""strawberry.png""]","[""strawberry.png""]",1,"[""marshmallow.png""]",blank.png,blank.png,blank.png,6,"[""strawberry.png""]","[""strawberry.png""]","[""strawberry.png""]","[""strawberry.png""]","[""strawberry.png""]","[""strawberry.png""]",PB17.png,,,,,,,,,,,1,,,,,,,,,,,,1075.0819999999949,,timeout,,,,,,,,,,,,,4,,,,,,,,,,,,,,,,,,,,,,,,,,,,,,,,,,,,,,,,,,,,,,,,,,,,,,,,,"[""strawberry.png""]","[""marshmallow.png""]",,,,3,,,false,,1,,,,,,,423232.9099997878,423231.735,422981.74,423002.0300000906,423006.585,424081.667,9,,,
timeout,canvas.Screen,2_4_2_6_1_0_1_0_0_1_1,2021-01-14T19:42:36.005Z,,,blank.png,blank.png,blank.png,blank.png,blank.png,blank.png,blank.png,"[""marshmallow.png""]",blank.png,blank.png,blank.png,blank.png,blank.png,,,,,,,,,,,,,,,,,,,,,,,,,,,,,"[""marshmallow.png""]","[""strawberry.png""]",PB18.png,,,,,,,,,,,0,6,"[""strawberry.png""]","[""strawberry.png""]","[""strawberry.png""]","[""strawberry.png""]","[""strawberry.png""]","[""strawberry.png""]",blank.png,PB18.png,PB17.png,"[""strawberry.png""]","[""strawberry.png""]","[""strawberry.png""]","[""strawberry.png""]","[""strawberry.png""]","[""strawberry.png""]","[""strawberry.png""]","[""strawberry.png""]","[""strawberry.png""]","[""strawberry.png""]","[""strawberry.png""]","[""strawberry.png""]",1,"[""marshmallow.png""]",blank.png,blank.png,blank.png,6,"[""strawberry.png""]","[""strawberry.png""]","[""strawberry.png""]","[""strawberry.png""]","[""strawberry.png""]","[""strawberry.png""]",PB17.png,,,,,,,,,,,1,,,,,,,,,,,,1249.7490000000107,,timeout,,,,,,,,,,,,,4,,,,,,,,,,,,,,,,,,,,,,,,,,,,,,,,,,,,,,,,,,,,,,,,,,,,,,,,,"[""strawberry.png""]","[""marshmallow.png""]",,,,3,,,false,,1,,,,,,,424557.6749998145,424556.647,423231.735,424084.65000009164,424081.667,425331.416,,,,
choice,canvas.Screen,2_4_2_6_1_0_1_0_0_1_2,2021-01-14T19:42:37.310Z,,,blank.png,blank.png,blank.png,blank.png,blank.png,blank.png,blank.png,"[""marshmallow.png""]",blank.png,blank.png,blank.png,blank.png,blank.png,,,,,,,,,,,,,,,,,,,,,,,,,,,,,"[""marshmallow.png""]","[""strawberry.png""]",PB18.png,,,,,,,,,,,0,6,"[""strawberry.png""]","[""strawberry.png""]","[""strawberry.png""]","[""strawberry.png""]","[""strawberry.png""]","[""strawberry.png""]",blank.png,PB18.png,PB17.png,"[""strawberry.png""]","[""strawberry.png""]","[""strawberry.png""]","[""strawberry.png""]","[""strawberry.png""]","[""strawberry.png""]","[""strawberry.png""]","[""strawberry.png""]","[""strawberry.png""]","[""strawberry.png""]","[""strawberry.png""]","[""strawberry.png""]",1,"[""marshmallow.png""]",blank.png,blank.png,blank.png,6,"[""strawberry.png""]","[""strawberry.png""]","[""strawberry.png""]","[""strawberry.png""]","[""strawberry.png""]","[""strawberry.png""]",PB17.png,,,,,,,,,,,1,,,,,,,,,,,,528.4590000819298,,response,,,,,,,,,,,,,4,,,,,,,,,,,,,,,,,,,,,,,,,,,,,,,,,,,,,,,,,,,,,,,,,,,,,,,,,"[""strawberry.png""]","[""marshmallow.png""]",,,,3,right,keydown(ArrowRight),false,,1,,,,,,,425862.6449997537,425859.87500008196,424556.647,425329.830000177,425331.416,426631.661,,9,,
square,canvas.Screen,2_4_2_6_1_0_1_0_0_1_3,2021-01-14T19:42:39.055Z,,,blank.png,blank.png,blank.png,blank.png,blank.png,blank.png,blank.png,"[""marshmallow.png""]",blank.png,blank.png,blank.png,blank.png,blank.png,,,,,,,,,,,,,,,,,,,,,,,,,,,,,"[""marshmallow.png""]","[""strawberry.png""]",PB18.png,,,,,,,,,,,0,6,"[""strawberry.png""]","[""strawberry.png""]","[""strawberry.png""]","[""strawberry.png""]","[""strawberry.png""]","[""strawberry.png""]",blank.png,PB18.png,PB17.png,"[""strawberry.png""]","[""strawberry.png""]","[""strawberry.png""]","[""strawberry.png""]","[""strawberry.png""]","[""strawberry.png""]","[""strawberry.png""]","[""strawberry.png""]","[""strawberry.png""]","[""strawberry.png""]","[""strawberry.png""]","[""strawberry.png""]",1,"[""marshmallow.png""]",blank.png,blank.png,blank.png,6,"[""strawberry.png""]","[""strawberry.png""]","[""strawberry.png""]","[""strawberry.png""]","[""strawberry.png""]","[""strawberry.png""]",PB17.png,,,,,,,,,,,1,,#808080,#33ff3f,,,,,,,,,999.6039999999921,,timeout,,,,,,,,,,,,,4,,,,,,,,,,,,,,,,,,,,,,,,,,,,,,,,,,,,,,,,,,,,,,,,,,,,,,,,,"[""strawberry.png""]","[""marshmallow.png""]",,,,3,,,false,,1,,,,,white,black,427607.7149999328,427606.37,426606.403,426613.214999903,426631.661,427631.265,,,,
ITI_late,canvas.Screen,2_4_2_6_1_0_1_0_0_1_4,2021-01-14T19:42:40.054Z,,,blank.png,blank.png,blank.png,blank.png,blank.png,blank.png,blank.png,"[""marshmallow.png""]",blank.png,blank.png,blank.png,blank.png,blank.png,,,,,,,,,,,,,,,,,,,,,,,,,,,,,"[""marshmallow.png""]","[""strawberry.png""]",PB18.png,,,,,,,,,,,0,6,"[""strawberry.png""]","[""strawberry.png""]","[""strawberry.png""]","[""strawberry.png""]","[""strawberry.png""]","[""strawberry.png""]",blank.png,PB18.png,PB17.png,"[""strawberry.png""]","[""strawberry.png""]","[""strawberry.png""]","[""strawberry.png""]","[""strawberry.png""]","[""strawberry.png""]","[""strawberry.png""]","[""strawberry.png""]","[""strawberry.png""]","[""strawberry.png""]","[""strawberry.png""]","[""strawberry.png""]",1,"[""marshmallow.png""]",blank.png,blank.png,blank.png,6,"[""strawberry.png""]","[""strawberry.png""]","[""strawberry.png""]","[""strawberry.png""]","[""strawberry.png""]","[""strawberry.png""]",PB17.png,,,,,,,,,,,1,,,,,,,,,,,,999.8699999999953,,timeout,,,,,,,,,,,,white,4,,,,,,,,,,,,,,,,,,,,,,,,,,,,,,,,,,,,,,,,,,,,,,,,,,,,,,,,,"[""strawberry.png""]","[""marshmallow.png""]",,,,3,,,false,,1,,,,,,,428607.2550001554,428606.299,427606.37,427610.65499996766,427631.265,428631.135,,,,
