sender,sender_type,sender_id,timestamp,meta,,Blank,DownLeft1,DownLeft2,DownLeft3,DownLeft4,DownLeft5,DownLeft6,DownRight1,DownRight2,DownRight3,DownRight4,DownRight5,DownRight6,FoodHabits_Fru_item1,FoodHabits_Fru_item2,FoodHabits_Fru_item3,FoodHabits_Fru_item4,FoodHabits_Fru_item5,FoodHabits_Fru_item6,FoodHabits_Fru_item7,FoodHabits_Meat_item1,FoodHabits_Meat_item2,FoodHabits_Meat_item3,FoodHabits_Meat_item4,FoodHabits_Meat_item5,FoodHabits_Meat_item6,FoodHabits_Meat_item7,FoodHabits_Swe_item1,FoodHabits_Swe_item2,FoodHabits_Swe_item3,FoodHabits_Swe_item4,FoodHabits_Swe_item5,FoodHabits_Swe_item6,FoodHabits_Swe_item7,FoodHabits_Veg_item1,FoodHabits_Veg_item2,FoodHabits_Veg_item3,FoodHabits_Veg_item4,FoodHabits_Veg_item5,FoodHabits_Veg_item6,FoodHabits_Veg_item7,ImgA,ImgB,LeftBar,PSS_item01,PSS_item02,PSS_item03,PSS_item04,PSS_item05,PSS_item06,PSS_item07,PSS_item08,PSS_item09,PSS_item10,RefA,RefB,RefB1,RefB2,RefB3,RefB4,RefB5,RefB6,RefB7,Ref_PB,RightBar,UpLeft1,UpLeft2,UpLeft3,UpLeft4,UpLeft5,UpLeft6,UpRight1,UpRight2,UpRight3,UpRight4,UpRight5,UpRight6,VarA,VarA1,VarA2,VarA3,VarA4,VarB,VarB1,VarB2,VarB3,VarB4,VarB5,VarB6,Var_PB,attCheck_fileA,attCheck_fileB,attCheck_fileC,attCheck_fileD,attCheck_options,attCheck_valueA,attCheck_valueB,attCheck_valueC,attCheck_valueD,attention_check,block,break1,browser_name,choseL,choseR,consent_form1,consent_form2,consentconfirmation_form1,consentconfirmation_form2,correct,correctResponse,diet,disorder,duration,edu,ended_on,enjoy,full_version,gender,group,hunger,img,imgTask,input_age,input_meal,input_occ,input_remark,lateRespFeed,list,major_version,message,mixQ_item1,mixQ_item2,mixQ_item3,mixQ_item4,mixQ_item5,name,navigator_appName,navigator_userAgent,os,pracQ1_IDa,pracQ1_IDb,pracQ1_IDc,pracQ1_IDd,pracQ1_optionA,pracQ1_optionB,pracQ1_optionC,pracQ1_optionD,pracQ1_valueA,pracQ1_valueB,pracQ1_valueC,pracQ1_valueD,pracQ2_IDa,pracQ2_IDb,pracQ2_IDc,pracQ2_optionA,pracQ2_optionB,pracQ2_optionC,pracQ2_valueA,pracQ2_valueB,pracQ2_valueC,pracQ4_IDa,pracQ4_IDb,pracQ4_IDc,pracQ4_IDd,pracQ4_optionA,pracQ4_optionB,pracQ4_optionC,pracQ4_optionD,pracQ4_valueA,pracQ4_valueB,pracQ4_valueC,pracQ4_valueD,pracQ5_IDa,pracQ5_IDb,pracQ5_IDc,pracQ5_IDd,pracQ5_optionA,pracQ5_optionB,pracQ5_optionC,pracQ5_optionD,pracQ5_valueA,pracQ5_valueB,pracQ5_valueC,pracQ5_valueD,prefHealty,prefUnhealthy,prolific_ID,psessionID,pstudyID,rep,response,response_action,skip,snack,sublock,subtitle,task_difficulty,task_engagement,task_focus,textL,textR,time_commit,time_end,time_render,time_run,time_show,time_switch,trial_count,trial_countO,url,valence
Title,html.Page,0,2021-05-24T15:22:09.696Z,"{""labjs_version"":""20.2.2"",""labjs_build"":{""flavor"":""production"",""commit"":""a25486e0c714a0ae2ce03ff94b7bb6896854dcfa""},""location"":""https://run.pavlovia.org/E3lab/rebund/html/?PROLIFIC_PID=5f355f594bc5b1508a8432d6&SESSION_ID=0e8c96y7rvr&STUDY_ID=60008f34cd719d13b0d706dd&preview=1"",""userAgent"":""Mozilla/5.0 (Macintosh; Intel Mac OS X 10_15_7) AppleWebKit/605.1.15 (KHTML, like Gecko) Version/14.1 Safari/605.1.15"",""platform"":""MacIntel"",""language"":""en-gb"",""locale"":""en-GB"",""timeZone"":""Europe/Zurich"",""timezoneOffset"":-120,""screen_width"":1440,""screen_height"":900,""scroll_width"":1440,""scroll_height"":772,""window_innerWidth"":1440,""window_innerHeight"":820,""devicePixelRatio"":2}",,,,,,,,,,,,,,,,,,,,,,,,,,,,,,,,,,,,,,,,,,,,,,,,,,,,,,,,,,,,,,,,,,,,,,,,,,,,,,,,,,,,,,,,,,,,,,,,,,,,,,,,,,,,,,,,,,,2650.000000000001,,form submission,,,,,,,,,,,,,,,,,,,,,,,,,,,,,,,,,,,,,,,,,,,,,,,,,,,,,,,,,,,,,,,,,,,,,,,,,,,,,,,,,,,,,,,7640.000000000001,7640.000000000001,4978,4926,4990,7667,,,"{""PROLIFIC_PID"":""5f355f594bc5b1508a8432d6"",""SESSION_ID"":""0e8c96y7rvr"",""STUDY_ID"":""60008f34cd719d13b0d706dd"",""preview"":""1""}",
get_systemInfo,canvas.Screen,1,2021-05-24T15:22:09.723Z,,,,,,,,,,,,,,,,,,,,,,,,,,,,,,,,,,,,,,,,,,,,,,,,,,,,,,,,,,,,,,,,,,,,,,,,,,,,,,,,,,,,,,,,,,,,,,,,,,,,,,,,,Safari,,,,,,,,,,,907,,timeout,,14.1,,,,,,,,,,,,14,,,,,,,,Netscape,"Mozilla/5.0 (Macintosh; Intel Mac OS X 10_15_7) AppleWebKit/605.1.15 (KHTML, like Gecko) Version/14.1 Safari/605.1.15",MacOS,,,,,,,,,,,,,,,,,,,,,,,,,,,,,,,,,,,,,,,,,,,,,,,,5f355f594bc5b1508a8432d6,,60008f34cd719d13b0d706dd,,,,,,,,,,,,,7668,7667,7651,7642,7667,8574,,,,
ConsentForm,html.Form,2_0,2021-05-24T15:22:16.325Z,,,,,,,,,,,,,,,,,,,,,,,,,,,,,,,,,,,,,,,,,,,,,,,,,,,,,,,,,,,,,,,,,,,,,,,,,,,,,,,,,,,,,,,,,,,,,,,,,,,,,,,,,,,,true,true,,,,,,,5695,,form submission,,,,,,,,,,,,,,,,,,,,,,,,,,,,,,,,,,,,,,,,,,,,,,,,,,,,,,,,,,,,,,,,,,,,,,,,,,,,,,,,,,,,,,,14269,14269,7667,8556.000000000002,8574,14287,,,,
PepTalk,html.Page,2_1,2021-05-24T15:22:17.685Z,,,,,,,,,,,,,,,,,,,,,,,,,,,,,,,,,,,,,,,,,,,,,,,,,,,,,,,,,,,,,,,,,,,,,,,,,,,,,,,,,,,,,,,,,,,,,,,,,,,,,,,,,,,,,,,,,,,,1342,,form submission,,,,,,,,,,,,,,,,,,,,,,,,,,,,,,,,,,,,,,,,,,,,,,,,,,,,,,,,,,,,,,,,,,,,,,,,,,,,,,,,,,,,,,,15630,15629,14274,14270,14287,15655,,,,
Demographics,html.Form,2_2,2021-05-24T15:22:22.716Z,,,,,,,,,,,,,,,,,,,,,,,,,,,,,,,,,,,,,,,,,,,,,,,,,,,,,,,,,,,,,,,,,,,,,,,,,,,,,,,,,,,,,,,,,,,,,,,,,,,,,,,,,,,,,,,,,,,,5005,3,form submission,,,2,,,,,25,,stu,,,,,,,,,,,,,,,,,,,,,,,,,,,,,,,,,,,,,,,,,,,,,,,,,,,,,,,,,,,,,,,,,,,,,,,,,,,,,20660,20660,15639,15630,15655,20681,,,,
InclusionCrit,html.Form,2_3,2021-05-24T15:22:27.100Z,,,,,,,,,,,,,,,,,,,,,,,,,,,,,,,,,,,,,,,,,,,,,,,,,,,,,,,,,,,,,,,,,,,,,,,,,,,,,,,,,,,,,,,,,,,,,,,,,,,,,,,,,,,,,,,,,,1,1,4363,,form submission,0,,,,,,,,,,,,,,,,,,,,,,,,,,,,,,,,,,,,,,,,,,,,,,,,,,,,,,,,,,,,,,,,,,,,,,,,,,,,,,,,,,,,,,25044,25044,20666,20660,20681,25079,,,,
Selection,html.Page,2_4_0,2021-05-24T15:22:29.132Z,,,,,,,,,,,,,,,,,,,,,,,,,,,,,,,,,,,,,,,,,,,,,,,,,,,,,,,,,,,,,,,,,,,,,,,,,,,,,,,,,,,,,,,,,,,,,,,,,,,,,,,,,,,,,,,,,,,,1997,,form submission,,,,,,,,,,,,,,,,,,,,,,,,,,,,,,,,,,,,,,,,,,,,,,,,,,,,,,,,,,,,,,,,,,,,,,,,,,,,,,,0,,,,,,,,27076,27076,25063,25044,25079,27098,,,,
Load,html.Page,2_4_1,2021-05-24T15:22:29.154Z,,,,,,,,,,,,,,,,,,,,,,,,,,,,,,,,,,,,,,,,,,,,,,,,,,,,,,,,,,,,,,,,,,,,,,,,,,,,,,,,,,,,,,,,,,,,,,,,,,,,,,,,,,,,,,,,,,,,10949,,timeout,,,,,,,,,,,,,,,,,,,,,,,,,,,,,,,,,,,,,,,,,,,,,,,,,,,,,,,,,,,,,,,,,,,,,,,,,,,,,,,,,,,,,,,27098,27098,27082,27076,27098,38047,,,,
ratings_instructions,html.Screen,2_4_2_0,2021-05-24T15:22:49.917Z,,,,,,,,,,,,,,,,,,,,,,,,,,,,,,,,,,,,,,,,,,,,,,,,,,,,,,,,,,,,,,,,,,,,,,,,,,,,,,,,,,,,,,,,,,,,,,,,,,,,,,,,,,,,,,,,,,,,20760.000000000007,,response,,,,,,,,,,,,,,,,,,,,,,,,,,,,,,,,,,,,,,,,,,,,,,,,,,,,,,,,,,,,,,,,,,,,,,,,,,,,continue,keypress(Space),false,,,,,,,,,47861.00000000001,47858.00000000001,27098,38038.00000000001,38047,47894,0,0,,
fixCross,canvas.Screen,2_4_2_1_0_0,2021-05-24T15:22:50.437Z,,,,,,,,,,,,,,,,,,,,,,,,,,,,,,,,,,,,,,,,,,,,,,,,,,,,,,,,,,,,,,,,,,,,,,,,,,,,,,,,,,,,,,,,,,,,,,,,,,,,,,,,,,,,,,,,,,,,508,,timeout,,,,healthy,,coconut.png,,,,,,,,,,,,,,,coconut,,,,,,,,,,,,,,,,,,,,,,,,,,,,,,,,,,,,,,,,,,,,,,,,,,,,,,,,,false,,,,,,,,,48381,48381,47878,47861.00000000001,47894,48402,,,,
Rating,html.Form,2_4_2_1_0_1,2021-05-24T15:22:51.955Z,,,,,,,,,,,,,,,,,,,,,,,,,,,,,,,,,,,,,,,,,,,,,,,,,,,,,,,,,,,,,,,,,,,,,,,,,,,,,,,,,,,,,,,,,,,,,,,,,,,,,,,,,,,,,,,,,,,,1497,,form submission,,,,healthy,,coconut.png,,,,,,,,,,,,,,,coconut,,,,,,,,,,,,,,,,,,,,,,,,,,,,,,,,,,,,,,,,,,,,,,,,,,,,,,,,,false,,,,,,,,,49899,49899,48381,48381,48402,49917,,,,50
rating_sequence,flow.Sequence,2_4_2_1_0,2021-05-24T15:22:51.955Z,,,,,,,,,,,,,,,,,,,,,,,,,,,,,,,,,,,,,,,,,,,,,,,,,,,,,,,,,,,,,,,,,,,,,,,,,,,,,,,,,,,,,,,,,,,,,,,,,,,,,,,,,,,,,,,,,,,,2005,,completion,,,,healthy,,coconut.png,,,,,,,,,,,,,,,coconut,,,,,,,,,,,,,,,,,,,,,,,,,,,,,,,,,,,,,,,,,,,,,,,,,,,,,,,,,false,,,,,,,,,49899,49899,47878,47861.00000000001,47894,49917,,,,
fixCross,canvas.Screen,2_4_2_1_1_0,2021-05-24T15:22:52.461Z,,,,,,,,,,,,,,,,,,,,,,,,,,,,,,,,,,,,,,,,,,,,,,,,,,,,,,,,,,,,,,,,,,,,,,,,,,,,,,,,,,,,,,,,,,,,,,,,,,,,,,,,,,,,,,,,,,,,510,,timeout,,,,healthy,,blueberry.png,,,,,,,,,,,,,,,blueberry,,,,,,,,,,,,,,,,,,,,,,,,,,,,,,,,,,,,,,,,,,,,,,,,,,,,,,,,,false,,,,,,,,,50405,50405,49901,49899,49917,50427,,,,
Rating,html.Form,2_4_2_1_1_1,2021-05-24T15:22:54.587Z,,,,,,,,,,,,,,,,,,,,,,,,,,,,,,,,,,,,,,,,,,,,,,,,,,,,,,,,,,,,,,,,,,,,,,,,,,,,,,,,,,,,,,,,,,,,,,,,,,,,,,,,,,,,,,,,,,,,2104,,form submission,,,,healthy,,blueberry.png,,,,,,,,,,,,,,,blueberry,,,,,,,,,,,,,,,,,,,,,,,,,,,,,,,,,,,,,,,,,,,,,,,,,,,,,,,,,false,,,,,,,,,52531,52531,50405,50405,50427,52549,,,,100
rating_sequence,flow.Sequence,2_4_2_1_1,2021-05-24T15:22:54.587Z,,,,,,,,,,,,,,,,,,,,,,,,,,,,,,,,,,,,,,,,,,,,,,,,,,,,,,,,,,,,,,,,,,,,,,,,,,,,,,,,,,,,,,,,,,,,,,,,,,,,,,,,,,,,,,,,,,,,2614,,completion,,,,healthy,,blueberry.png,,,,,,,,,,,,,,,blueberry,,,,,,,,,,,,,,,,,,,,,,,,,,,,,,,,,,,,,,,,,,,,,,,,,,,,,,,,,false,,,,,,,,,52531,52531,49901,49899,49917,52549,,,,
fixCross,canvas.Screen,2_4_2_1_2_0,2021-05-24T15:22:55.093Z,,,,,,,,,,,,,,,,,,,,,,,,,,,,,,,,,,,,,,,,,,,,,,,,,,,,,,,,,,,,,,,,,,,,,,,,,,,,,,,,,,,,,,,,,,,,,,,,,,,,,,,,,,,,,,,,,,,,508,,timeout,,,,unhealthy,,chocolate.png,,,,,,,,,,,,,,,chocolate,,,,,,,,,,,,,,,,,,,,,,,,,,,,,,,,,,,,,,,,,,,,,,,,,,,,,,,,,false,,,,,,,,,53037,53037,52533,52531,52549,53057,,,,
Rating,html.Form,2_4_2_1_2_1,2021-05-24T15:22:59.191Z,,,,,,,,,,,,,,,,,,,,,,,,,,,,,,,,,,,,,,,,,,,,,,,,,,,,,,,,,,,,,,,,,,,,,,,,,,,,,,,,,,,,,,,,,,,,,,,,,,,,,,,,,,,,,,,,,,,,4077,,form submission,,,,unhealthy,,chocolate.png,,,,,,,,,,,,,,,chocolate,,,,,,,,,,,,,,,,,,,,,,,,,,,,,,,,,,,,,,,,,,,,,,,,,,,,,,,,,false,,,,,,,,,57134,57134,53037,53037,53057,57165,,,,70
rating_sequence,flow.Sequence,2_4_2_1_2,2021-05-24T15:22:59.191Z,,,,,,,,,,,,,,,,,,,,,,,,,,,,,,,,,,,,,,,,,,,,,,,,,,,,,,,,,,,,,,,,,,,,,,,,,,,,,,,,,,,,,,,,,,,,,,,,,,,,,,,,,,,,,,,,,,,,4585,,completion,,,,unhealthy,,chocolate.png,,,,,,,,,,,,,,,chocolate,,,,,,,,,,,,,,,,,,,,,,,,,,,,,,,,,,,,,,,,,,,,,,,,,,,,,,,,,false,,,,,,,,,57135,57134,52533,52531,52549,57165,,,,
fixCross,canvas.Screen,2_4_2_1_3_0,2021-05-24T15:22:59.708Z,,,,,,,,,,,,,,,,,,,,,,,,,,,,,,,,,,,,,,,,,,,,,,,,,,,,,,,,,,,,,,,,,,,,,,,,,,,,,,,,,,,,,,,,,,,,,,,,,,,,,,,,,,,,,,,,,,,,509,,timeout,,,,healthy,,pear.png,,,,,,,,,,,,,,,pear,,,,,,,,,,,,,,,,,,,,,,,,,,,,,,,,,,,,,,,,,,,,,,,,,,,,,,,,,false,,,,,,,,,57652,57652,57147,57135,57165,57674,,,,
Rating,html.Form,2_4_2_1_3_1,2021-05-24T15:23:00.616Z,,,,,,,,,,,,,,,,,,,,,,,,,,,,,,,,,,,,,,,,,,,,,,,,,,,,,,,,,,,,,,,,,,,,,,,,,,,,,,,,,,,,,,,,,,,,,,,,,,,,,,,,,,,,,,,,,,,,886,,form submission,,,,healthy,,pear.png,,,,,,,,,,,,,,,pear,,,,,,,,,,,,,,,,,,,,,,,,,,,,,,,,,,,,,,,,,,,,,,,,,,,,,,,,,false,,,,,,,,,58560,58560,57652,57652,57674,58585,,,,50
rating_sequence,flow.Sequence,2_4_2_1_3,2021-05-24T15:23:00.616Z,,,,,,,,,,,,,,,,,,,,,,,,,,,,,,,,,,,,,,,,,,,,,,,,,,,,,,,,,,,,,,,,,,,,,,,,,,,,,,,,,,,,,,,,,,,,,,,,,,,,,,,,,,,,,,,,,,,,1395,,completion,,,,healthy,,pear.png,,,,,,,,,,,,,,,pear,,,,,,,,,,,,,,,,,,,,,,,,,,,,,,,,,,,,,,,,,,,,,,,,,,,,,,,,,false,,,,,,,,,58560,58560,57147,57135,57165,58585,,,,
fixCross,canvas.Screen,2_4_2_1_4_0,2021-05-24T15:23:01.131Z,,,,,,,,,,,,,,,,,,,,,,,,,,,,,,,,,,,,,,,,,,,,,,,,,,,,,,,,,,,,,,,,,,,,,,,,,,,,,,,,,,,,,,,,,,,,,,,,,,,,,,,,,,,,,,,,,,,,512,,timeout,,,,unhealthy,,candy.png,,,,,,,,,,,,,,,candy,,,,,,,,,,,,,,,,,,,,,,,,,,,,,,,,,,,,,,,,,,,,,,,,,,,,,,,,,false,,,,,,,,,59074,59074,58567,58560,58585,59097,,,,
Rating,html.Form,2_4_2_1_4_1,2021-05-24T15:23:01.662Z,,,,,,,,,,,,,,,,,,,,,,,,,,,,,,,,,,,,,,,,,,,,,,,,,,,,,,,,,,,,,,,,,,,,,,,,,,,,,,,,,,,,,,,,,,,,,,,,,,,,,,,,,,,,,,,,,,,,508.0000000000073,,form submission,,,,unhealthy,,candy.png,,,,,,,,,,,,,,,candy,,,,,,,,,,,,,,,,,,,,,,,,,,,,,,,,,,,,,,,,,,,,,,,,,,,,,,,,,false,,,,,,,,,59606,59605.00000000001,59074,59075,59097,59626,,,,50
rating_sequence,flow.Sequence,2_4_2_1_4,2021-05-24T15:23:01.662Z,,,,,,,,,,,,,,,,,,,,,,,,,,,,,,,,,,,,,,,,,,,,,,,,,,,,,,,,,,,,,,,,,,,,,,,,,,,,,,,,,,,,,,,,,,,,,,,,,,,,,,,,,,,,,,,,,,,,1020.0000000000073,,completion,,,,unhealthy,,candy.png,,,,,,,,,,,,,,,candy,,,,,,,,,,,,,,,,,,,,,,,,,,,,,,,,,,,,,,,,,,,,,,,,,,,,,,,,,false,,,,,,,,,59606,59605.00000000001,58567,58560,58585,59626,,,,
fixCross,canvas.Screen,2_4_2_1_5_0,2021-05-24T15:23:02.168Z,,,,,,,,,,,,,,,,,,,,,,,,,,,,,,,,,,,,,,,,,,,,,,,,,,,,,,,,,,,,,,,,,,,,,,,,,,,,,,,,,,,,,,,,,,,,,,,,,,,,,,,,,,,,,,,,,,,,513,,timeout,,,,unhealthy,,maltesers.png,,,,,,,,,,,,,,,malteser,,,,,,,,,,,,,,,,,,,,,,,,,,,,,,,,,,,,,,,,,,,,,,,,,,,,,,,,,false,,,,,,,,,60112,60111,59609,59606,59626,60139,,,,
Rating,html.Form,2_4_2_1_5_1,2021-05-24T15:23:02.691Z,,,,,,,,,,,,,,,,,,,,,,,,,,,,,,,,,,,,,,,,,,,,,,,,,,,,,,,,,,,,,,,,,,,,,,,,,,,,,,,,,,,,,,,,,,,,,,,,,,,,,,,,,,,,,,,,,,,,495,,form submission,,,,unhealthy,,maltesers.png,,,,,,,,,,,,,,,malteser,,,,,,,,,,,,,,,,,,,,,,,,,,,,,,,,,,,,,,,,,,,,,,,,,,,,,,,,,false,,,,,,,,,60635,60634,60111,60112,60139,60652,,,,50
rating_sequence,flow.Sequence,2_4_2_1_5,2021-05-24T15:23:02.692Z,,,,,,,,,,,,,,,,,,,,,,,,,,,,,,,,,,,,,,,,,,,,,,,,,,,,,,,,,,,,,,,,,,,,,,,,,,,,,,,,,,,,,,,,,,,,,,,,,,,,,,,,,,,,,,,,,,,,1008,,completion,,,,unhealthy,,maltesers.png,,,,,,,,,,,,,,,malteser,,,,,,,,,,,,,,,,,,,,,,,,,,,,,,,,,,,,,,,,,,,,,,,,,,,,,,,,,false,,,,,,,,,60635,60634,59609,59606,59626,60652,,,,
fixCross,canvas.Screen,2_4_2_1_6_0,2021-05-24T15:23:03.195Z,,,,,,,,,,,,,,,,,,,,,,,,,,,,,,,,,,,,,,,,,,,,,,,,,,,,,,,,,,,,,,,,,,,,,,,,,,,,,,,,,,,,,,,,,,,,,,,,,,,,,,,,,,,,,,,,,,,,512,,timeout,,,,unhealthy,,gummybear.png,,,,,,,,,,,,,,,gummybear,,,,,,,,,,,,,,,,,,,,,,,,,,,,,,,,,,,,,,,,,,,,,,,,,,,,,,,,,false,,,,,,,,,61139,61138,60638,60635,60652,61164,,,,
Rating,html.Form,2_4_2_1_6_1,2021-05-24T15:23:03.611Z,,,,,,,,,,,,,,,,,,,,,,,,,,,,,,,,,,,,,,,,,,,,,,,,,,,,,,,,,,,,,,,,,,,,,,,,,,,,,,,,,,,,,,,,,,,,,,,,,,,,,,,,,,,,,,,,,,,,390,,form submission,,,,unhealthy,,gummybear.png,,,,,,,,,,,,,,,gummybear,,,,,,,,,,,,,,,,,,,,,,,,,,,,,,,,,,,,,,,,,,,,,,,,,,,,,,,,,false,,,,,,,,,61555,61554,61138,61139,61164,61575,,,,50
rating_sequence,flow.Sequence,2_4_2_1_6,2021-05-24T15:23:03.611Z,,,,,,,,,,,,,,,,,,,,,,,,,,,,,,,,,,,,,,,,,,,,,,,,,,,,,,,,,,,,,,,,,,,,,,,,,,,,,,,,,,,,,,,,,,,,,,,,,,,,,,,,,,,,,,,,,,,,902,,completion,,,,unhealthy,,gummybear.png,,,,,,,,,,,,,,,gummybear,,,,,,,,,,,,,,,,,,,,,,,,,,,,,,,,,,,,,,,,,,,,,,,,,,,,,,,,,false,,,,,,,,,61555,61554,60638,60635,60652,61575,,,,
fixCross,canvas.Screen,2_4_2_1_7_0,2021-05-24T15:23:04.117Z,,,,,,,,,,,,,,,,,,,,,,,,,,,,,,,,,,,,,,,,,,,,,,,,,,,,,,,,,,,,,,,,,,,,,,,,,,,,,,,,,,,,,,,,,,,,,,,,,,,,,,,,,,,,,,,,,,,,510,,timeout,,,,unhealthy,,marshmallow.png,,,,,,,,,,,,,,,marshmallow,,,,,,,,,,,,,,,,,,,,,,,,,,,,,,,,,,,,,,,,,,,,,,,,,,,,,,,,,false,,,,,,,,,62061,62061,61559,61555,61575,62085,,,,
Rating,html.Form,2_4_2_1_7_1,2021-05-24T15:23:04.622Z,,,,,,,,,,,,,,,,,,,,,,,,,,,,,,,,,,,,,,,,,,,,,,,,,,,,,,,,,,,,,,,,,,,,,,,,,,,,,,,,,,,,,,,,,,,,,,,,,,,,,,,,,,,,,,,,,,,,481,,form submission,,,,unhealthy,,marshmallow.png,,,,,,,,,,,,,,,marshmallow,,,,,,,,,,,,,,,,,,,,,,,,,,,,,,,,,,,,,,,,,,,,,,,,,,,,,,,,,false,,,,,,,,,62566,62566,62061,62061,62085,62585,,,,50
rating_sequence,flow.Sequence,2_4_2_1_7,2021-05-24T15:23:04.622Z,,,,,,,,,,,,,,,,,,,,,,,,,,,,,,,,,,,,,,,,,,,,,,,,,,,,,,,,,,,,,,,,,,,,,,,,,,,,,,,,,,,,,,,,,,,,,,,,,,,,,,,,,,,,,,,,,,,,991,,completion,,,,unhealthy,,marshmallow.png,,,,,,,,,,,,,,,marshmallow,,,,,,,,,,,,,,,,,,,,,,,,,,,,,,,,,,,,,,,,,,,,,,,,,,,,,,,,,false,,,,,,,,,62566,62566,61559,61555,61575,62585,,,,
fixCross,canvas.Screen,2_4_2_1_8_0,2021-05-24T15:23:05.129Z,,,,,,,,,,,,,,,,,,,,,,,,,,,,,,,,,,,,,,,,,,,,,,,,,,,,,,,,,,,,,,,,,,,,,,,,,,,,,,,,,,,,,,,,,,,,,,,,,,,,,,,,,,,,,,,,,,,,515,,timeout,,,,healthy,,strawberry.png,,,,,,,,,,,,,,,strawberry,,,,,,,,,,,,,,,,,,,,,,,,,,,,,,,,,,,,,,,,,,,,,,,,,,,,,,,,,false,,,,,,,,,63073,63073,62568,62566,62585,63100,,,,
Rating,html.Form,2_4_2_1_8_1,2021-05-24T15:23:05.647Z,,,,,,,,,,,,,,,,,,,,,,,,,,,,,,,,,,,,,,,,,,,,,,,,,,,,,,,,,,,,,,,,,,,,,,,,,,,,,,,,,,,,,,,,,,,,,,,,,,,,,,,,,,,,,,,,,,,,491,,form submission,,,,healthy,,strawberry.png,,,,,,,,,,,,,,,strawberry,,,,,,,,,,,,,,,,,,,,,,,,,,,,,,,,,,,,,,,,,,,,,,,,,,,,,,,,,false,,,,,,,,,63591,63591,63073,63073,63100,63611,,,,50
rating_sequence,flow.Sequence,2_4_2_1_8,2021-05-24T15:23:05.647Z,,,,,,,,,,,,,,,,,,,,,,,,,,,,,,,,,,,,,,,,,,,,,,,,,,,,,,,,,,,,,,,,,,,,,,,,,,,,,,,,,,,,,,,,,,,,,,,,,,,,,,,,,,,,,,,,,,,,1006,,completion,,,,healthy,,strawberry.png,,,,,,,,,,,,,,,strawberry,,,,,,,,,,,,,,,,,,,,,,,,,,,,,,,,,,,,,,,,,,,,,,,,,,,,,,,,,false,,,,,,,,,63591,63591,62568,62566,62585,63611,,,,
fixCross,canvas.Screen,2_4_2_1_9_0,2021-05-24T15:23:06.155Z,,,,,,,,,,,,,,,,,,,,,,,,,,,,,,,,,,,,,,,,,,,,,,,,,,,,,,,,,,,,,,,,,,,,,,,,,,,,,,,,,,,,,,,,,,,,,,,,,,,,,,,,,,,,,,,,,,,,518,,timeout,,,,unhealthy,,praline.png,,,,,,,,,,,,,,,praline,,,,,,,,,,,,,,,,,,,,,,,,,,,,,,,,,,,,,,,,,,,,,,,,,,,,,,,,,false,,,,,,,,,64098,64098,63594,63591,63611,64129,,,,
Rating,html.Form,2_4_2_1_9_1,2021-05-24T15:23:08.302Z,,,,,,,,,,,,,,,,,,,,,,,,,,,,,,,,,,,,,,,,,,,,,,,,,,,,,,,,,,,,,,,,,,,,,,,,,,,,,,,,,,,,,,,,,,,,,,,,,,,,,,,,,,,,,,,,,,,,2116,,form submission,,,,unhealthy,,praline.png,,,,,,,,,,,,,,,praline,,,,,,,,,,,,,,,,,,,,,,,,,,,,,,,,,,,,,,,,,,,,,,,,,,,,,,,,,false,,,,,,,,,66245,66245,64098,64098,64129,66265,,,,100
rating_sequence,flow.Sequence,2_4_2_1_9,2021-05-24T15:23:08.302Z,,,,,,,,,,,,,,,,,,,,,,,,,,,,,,,,,,,,,,,,,,,,,,,,,,,,,,,,,,,,,,,,,,,,,,,,,,,,,,,,,,,,,,,,,,,,,,,,,,,,,,,,,,,,,,,,,,,,2634,,completion,,,,unhealthy,,praline.png,,,,,,,,,,,,,,,praline,,,,,,,,,,,,,,,,,,,,,,,,,,,,,,,,,,,,,,,,,,,,,,,,,,,,,,,,,false,,,,,,,,,66246,66245,63594,63591,63611,66265,,,,
fixCross,canvas.Screen,2_4_2_1_10_0,2021-05-24T15:23:08.808Z,,,,,,,,,,,,,,,,,,,,,,,,,,,,,,,,,,,,,,,,,,,,,,,,,,,,,,,,,,,,,,,,,,,,,,,,,,,,,,,,,,,,,,,,,,,,,,,,,,,,,,,,,,,,,,,,,,,,510,,timeout,,,,healthy,,grape.png,,,,,,,,,,,,,,,grape,,,,,,,,,,,,,,,,,,,,,,,,,,,,,,,,,,,,,,,,,,,,,,,,,,,,,,,,,false,,,,,,,,,66752,66751,66247,66246,66265,66775,,,,
Rating,html.Form,2_4_2_1_10_1,2021-05-24T15:23:09.482Z,,,,,,,,,,,,,,,,,,,,,,,,,,,,,,,,,,,,,,,,,,,,,,,,,,,,,,,,,,,,,,,,,,,,,,,,,,,,,,,,,,,,,,,,,,,,,,,,,,,,,,,,,,,,,,,,,,,,651,,form submission,,,,healthy,,grape.png,,,,,,,,,,,,,,,grape,,,,,,,,,,,,,,,,,,,,,,,,,,,,,,,,,,,,,,,,,,,,,,,,,,,,,,,,,false,,,,,,,,,67426,67426,66751,66752,66775,67457,,,,50
rating_sequence,flow.Sequence,2_4_2_1_10,2021-05-24T15:23:09.483Z,,,,,,,,,,,,,,,,,,,,,,,,,,,,,,,,,,,,,,,,,,,,,,,,,,,,,,,,,,,,,,,,,,,,,,,,,,,,,,,,,,,,,,,,,,,,,,,,,,,,,,,,,,,,,,,,,,,,1161,,completion,,,,healthy,,grape.png,,,,,,,,,,,,,,,grape,,,,,,,,,,,,,,,,,,,,,,,,,,,,,,,,,,,,,,,,,,,,,,,,,,,,,,,,,false,,,,,,,,,67426,67426,66247,66246,66265,67457,,,,
fixCross,canvas.Screen,2_4_2_1_11_0,2021-05-24T15:23:10.000Z,,,,,,,,,,,,,,,,,,,,,,,,,,,,,,,,,,,,,,,,,,,,,,,,,,,,,,,,,,,,,,,,,,,,,,,,,,,,,,,,,,,,,,,,,,,,,,,,,,,,,,,,,,,,,,,,,,,,513,,timeout,,,,healthy,,apple.png,,,,,,,,,,,,,,,apple,,,,,,,,,,,,,,,,,,,,,,,,,,,,,,,,,,,,,,,,,,,,,,,,,,,,,,,,,false,,,,,,,,,67944,67943,67439,67426,67457,67970,,,,
Rating,html.Form,2_4_2_1_11_1,2021-05-24T15:23:10.211Z,,,,,,,,,,,,,,,,,,,,,,,,,,,,,,,,,,,,,,,,,,,,,,,,,,,,,,,,,,,,,,,,,,,,,,,,,,,,,,,,,,,,,,,,,,,,,,,,,,,,,,,,,,,,,,,,,,,,184,,form submission,,,,healthy,,apple.png,,,,,,,,,,,,,,,apple,,,,,,,,,,,,,,,,,,,,,,,,,,,,,,,,,,,,,,,,,,,,,,,,,,,,,,,,,false,,,,,,,,,68154,68154,67943,67944,67970,68181,,,,50
rating_sequence,flow.Sequence,2_4_2_1_11,2021-05-24T15:23:10.211Z,,,,,,,,,,,,,,,,,,,,,,,,,,,,,,,,,,,,,,,,,,,,,,,,,,,,,,,,,,,,,,,,,,,,,,,,,,,,,,,,,,,,,,,,,,,,,,,,,,,,,,,,,,,,,,,,,,,,697,,completion,,,,healthy,,apple.png,,,,,,,,,,,,,,,apple,,,,,,,,,,,,,,,,,,,,,,,,,,,,,,,,,,,,,,,,,,,,,,,,,,,,,,,,,false,,,,,,,,,68154,68154,67439,67426,67457,68181,,,,
fixCross,canvas.Screen,2_4_2_1_12_0,2021-05-24T15:23:10.725Z,,,,,,,,,,,,,,,,,,,,,,,,,,,,,,,,,,,,,,,,,,,,,,,,,,,,,,,,,,,,,,,,,,,,,,,,,,,,,,,,,,,,,,,,,,,,,,,,,,,,,,,,,,,,,,,,,,,,511,,timeout,,,,unhealthy,,m&m.png,,,,,,,,,,,,,,,m&m,,,,,,,,,,,,,,,,,,,,,,,,,,,,,,,,,,,,,,,,,,,,,,,,,,,,,,,,,false,,,,,,,,,68668,68667,68165,68154,68181,68692,,,,
Rating,html.Form,2_4_2_1_12_1,2021-05-24T15:23:10.819Z,,,,,,,,,,,,,,,,,,,,,,,,,,,,,,,,,,,,,,,,,,,,,,,,,,,,,,,,,,,,,,,,,,,,,,,,,,,,,,,,,,,,,,,,,,,,,,,,,,,,,,,,,,,,,,,,,,,,70,,form submission,,,,unhealthy,,m&m.png,,,,,,,,,,,,,,,m&m,,,,,,,,,,,,,,,,,,,,,,,,,,,,,,,,,,,,,,,,,,,,,,,,,,,,,,,,,false,,,,,,,,,68763,68762,68667,68669,68692,68791,,,,50
rating_sequence,flow.Sequence,2_4_2_1_12,2021-05-24T15:23:10.819Z,,,,,,,,,,,,,,,,,,,,,,,,,,,,,,,,,,,,,,,,,,,,,,,,,,,,,,,,,,,,,,,,,,,,,,,,,,,,,,,,,,,,,,,,,,,,,,,,,,,,,,,,,,,,,,,,,,,,581,,completion,,,,unhealthy,,m&m.png,,,,,,,,,,,,,,,m&m,,,,,,,,,,,,,,,,,,,,,,,,,,,,,,,,,,,,,,,,,,,,,,,,,,,,,,,,,false,,,,,,,,,68763,68762,68165,68154,68181,68791,,,,
fixCross,canvas.Screen,2_4_2_1_13_0,2021-05-24T15:23:11.334Z,,,,,,,,,,,,,,,,,,,,,,,,,,,,,,,,,,,,,,,,,,,,,,,,,,,,,,,,,,,,,,,,,,,,,,,,,,,,,,,,,,,,,,,,,,,,,,,,,,,,,,,,,,,,,,,,,,,,511,,timeout,,,,unhealthy,,chocolate_truffle.png,,,,,,,,,,,,,,,chocolate truffle,,,,,,,,,,,,,,,,,,,,,,,,,,,,,,,,,,,,,,,,,,,,,,,,,,,,,,,,,false,,,,,,,,,69277,69277,68773,68763,68791,69302,,,,
Rating,html.Form,2_4_2_1_13_1,2021-05-24T15:23:11.482Z,,,,,,,,,,,,,,,,,,,,,,,,,,,,,,,,,,,,,,,,,,,,,,,,,,,,,,,,,,,,,,,,,,,,,,,,,,,,,,,,,,,,,,,,,,,,,,,,,,,,,,,,,,,,,,,,,,,,124,,form submission,,,,unhealthy,,chocolate_truffle.png,,,,,,,,,,,,,,,chocolate truffle,,,,,,,,,,,,,,,,,,,,,,,,,,,,,,,,,,,,,,,,,,,,,,,,,,,,,,,,,false,,,,,,,,,69426,69426,69277,69277,69302,69449,,,,50
rating_sequence,flow.Sequence,2_4_2_1_13,2021-05-24T15:23:11.483Z,,,,,,,,,,,,,,,,,,,,,,,,,,,,,,,,,,,,,,,,,,,,,,,,,,,,,,,,,,,,,,,,,,,,,,,,,,,,,,,,,,,,,,,,,,,,,,,,,,,,,,,,,,,,,,,,,,,,635,,completion,,,,unhealthy,,chocolate_truffle.png,,,,,,,,,,,,,,,chocolate truffle,,,,,,,,,,,,,,,,,,,,,,,,,,,,,,,,,,,,,,,,,,,,,,,,,,,,,,,,,false,,,,,,,,,69426,69426,68773,68763,68791,69449,,,,
fixCross,canvas.Screen,2_4_2_1_14_0,2021-05-24T15:23:11.992Z,,,,,,,,,,,,,,,,,,,,,,,,,,,,,,,,,,,,,,,,,,,,,,,,,,,,,,,,,,,,,,,,,,,,,,,,,,,,,,,,,,,,,,,,,,,,,,,,,,,,,,,,,,,,,,,,,,,,510,,timeout,,,,unhealthy,,liqorice.png,,,,,,,,,,,,,,,liquorice,,,,,,,,,,,,,,,,,,,,,,,,,,,,,,,,,,,,,,,,,,,,,,,,,,,,,,,,,false,,,,,,,,,69935,69935,69431,69426,69449,69959,,,,
Rating,html.Form,2_4_2_1_14_1,2021-05-24T15:23:12.172Z,,,,,,,,,,,,,,,,,,,,,,,,,,,,,,,,,,,,,,,,,,,,,,,,,,,,,,,,,,,,,,,,,,,,,,,,,,,,,,,,,,,,,,,,,,,,,,,,,,,,,,,,,,,,,,,,,,,,156,,form submission,,,,unhealthy,,liqorice.png,,,,,,,,,,,,,,,liquorice,,,,,,,,,,,,,,,,,,,,,,,,,,,,,,,,,,,,,,,,,,,,,,,,,,,,,,,,,false,,,,,,,,,70116,70115,69935,69936,69959,70141,,,,50
rating_sequence,flow.Sequence,2_4_2_1_14,2021-05-24T15:23:12.172Z,,,,,,,,,,,,,,,,,,,,,,,,,,,,,,,,,,,,,,,,,,,,,,,,,,,,,,,,,,,,,,,,,,,,,,,,,,,,,,,,,,,,,,,,,,,,,,,,,,,,,,,,,,,,,,,,,,,,666,,completion,,,,unhealthy,,liqorice.png,,,,,,,,,,,,,,,liquorice,,,,,,,,,,,,,,,,,,,,,,,,,,,,,,,,,,,,,,,,,,,,,,,,,,,,,,,,,false,,,,,,,,,70116,70115,69431,69426,69449,70141,,,,
fixCross,canvas.Screen,2_4_2_1_15_0,2021-05-24T15:23:12.685Z,,,,,,,,,,,,,,,,,,,,,,,,,,,,,,,,,,,,,,,,,,,,,,,,,,,,,,,,,,,,,,,,,,,,,,,,,,,,,,,,,,,,,,,,,,,,,,,,,,,,,,,,,,,,,,,,,,,,509,,timeout,,,,healthy,,cherry.png,,,,,,,,,,,,,,,cherry,,,,,,,,,,,,,,,,,,,,,,,,,,,,,,,,,,,,,,,,,,,,,,,,,,,,,,,,,false,,,,,,,,,70628,70628,70125,70116,70141,70650,,,,
Rating,html.Form,2_4_2_1_15_1,2021-05-24T15:23:12.892Z,,,,,,,,,,,,,,,,,,,,,,,,,,,,,,,,,,,,,,,,,,,,,,,,,,,,,,,,,,,,,,,,,,,,,,,,,,,,,,,,,,,,,,,,,,,,,,,,,,,,,,,,,,,,,,,,,,,,186,,form submission,,,,healthy,,cherry.png,,,,,,,,,,,,,,,cherry,,,,,,,,,,,,,,,,,,,,,,,,,,,,,,,,,,,,,,,,,,,,,,,,,,,,,,,,,false,,,,,,,,,70836,70836,70628,70628,70650,70865,,,,50
rating_sequence,flow.Sequence,2_4_2_1_15,2021-05-24T15:23:12.893Z,,,,,,,,,,,,,,,,,,,,,,,,,,,,,,,,,,,,,,,,,,,,,,,,,,,,,,,,,,,,,,,,,,,,,,,,,,,,,,,,,,,,,,,,,,,,,,,,,,,,,,,,,,,,,,,,,,,,695,,completion,,,,healthy,,cherry.png,,,,,,,,,,,,,,,cherry,,,,,,,,,,,,,,,,,,,,,,,,,,,,,,,,,,,,,,,,,,,,,,,,,,,,,,,,,false,,,,,,,,,70836,70836,70125,70116,70141,70865,,,,
fixCross,canvas.Screen,2_4_2_1_16_0,2021-05-24T15:23:13.408Z,,,,,,,,,,,,,,,,,,,,,,,,,,,,,,,,,,,,,,,,,,,,,,,,,,,,,,,,,,,,,,,,,,,,,,,,,,,,,,,,,,,,,,,,,,,,,,,,,,,,,,,,,,,,,,,,,,,,514,,timeout,,,,healthy,,orange.png,,,,,,,,,,,,,,,orange,,,,,,,,,,,,,,,,,,,,,,,,,,,,,,,,,,,,,,,,,,,,,,,,,,,,,,,,,false,,,,,,,,,71352,71351,70847,70836,70865,71379,,,,
Rating,html.Form,2_4_2_1_16_1,2021-05-24T15:23:21.798Z,,,,,,,,,,,,,,,,,,,,,,,,,,,,,,,,,,,,,,,,,,,,,,,,,,,,,,,,,,,,,,,,,,,,,,,,,,,,,,,,,,,,,,,,,,,,,,,,,,,,,,,,,,,,,,,,,,,,8362,,form submission,,,,healthy,,orange.png,,,,,,,,,,,,,,,orange,,,,,,,,,,,,,,,,,,,,,,,,,,,,,,,,,,,,,,,,,,,,,,,,,,,,,,,,,false,,,,,,,,,79741,79741,71351,71352,71379,79775,,,,50
rating_sequence,flow.Sequence,2_4_2_1_16,2021-05-24T15:23:21.798Z,,,,,,,,,,,,,,,,,,,,,,,,,,,,,,,,,,,,,,,,,,,,,,,,,,,,,,,,,,,,,,,,,,,,,,,,,,,,,,,,,,,,,,,,,,,,,,,,,,,,,,,,,,,,,,,,,,,,8876,,completion,,,,healthy,,orange.png,,,,,,,,,,,,,,,orange,,,,,,,,,,,,,,,,,,,,,,,,,,,,,,,,,,,,,,,,,,,,,,,,,,,,,,,,,false,,,,,,,,,79742,79741,70847,70836,70865,79775,,,,
fixCross,canvas.Screen,2_4_2_1_17_0,2021-05-24T15:23:22.318Z,,,,,,,,,,,,,,,,,,,,,,,,,,,,,,,,,,,,,,,,,,,,,,,,,,,,,,,,,,,,,,,,,,,,,,,,,,,,,,,,,,,,,,,,,,,,,,,,,,,,,,,,,,,,,,,,,,,,510,,timeout,,,,healthy,,raspberry.png,,,,,,,,,,,,,,,raspberry,,,,,,,,,,,,,,,,,,,,,,,,,,,,,,,,,,,,,,,,,,,,,,,,,,,,,,,,,false,,,,,,,,,80261,80261,79758,79742,79775,80285,,,,
Rating,html.Form,2_4_2_1_17_1,2021-05-24T15:23:24.538Z,,,,,,,,,,,,,,,,,,,,,,,,,,,,,,,,,,,,,,,,,,,,,,,,,,,,,,,,,,,,,,,,,,,,,,,,,,,,,,,,,,,,,,,,,,,,,,,,,,,,,,,,,,,,,,,,,,,,2197,,form submission,,,,healthy,,raspberry.png,,,,,,,,,,,,,,,raspberry,,,,,,,,,,,,,,,,,,,,,,,,,,,,,,,,,,,,,,,,,,,,,,,,,,,,,,,,,false,,,,,,,,,82482,82482,80261,80261,80285,82513,,,,100
rating_sequence,flow.Sequence,2_4_2_1_17,2021-05-24T15:23:24.539Z,,,,,,,,,,,,,,,,,,,,,,,,,,,,,,,,,,,,,,,,,,,,,,,,,,,,,,,,,,,,,,,,,,,,,,,,,,,,,,,,,,,,,,,,,,,,,,,,,,,,,,,,,,,,,,,,,,,,2707,,completion,,,,healthy,,raspberry.png,,,,,,,,,,,,,,,raspberry,,,,,,,,,,,,,,,,,,,,,,,,,,,,,,,,,,,,,,,,,,,,,,,,,,,,,,,,,false,,,,,,,,,82482,82482,79758,79742,79775,82513,,,,
rating_loop,flow.Loop,2_4_2_1,2021-05-24T15:23:24.539Z,,,,,,,,,,,,,,,,,,,,,,,,,,,,,,,,,,,,,,,,,,,,,,,,,,,,,,,,,,,,,,,,,,,,,,,,,,,,,,,,,,,,,,,,,,,,,,,,,,,,,,,,,,,,,,,,,,,,34588,,completion,,,,,,,,,,,,,,,,,,,,,,,,,,,,,,,,,,,,,,,,,,,,,,,,,,,,,,,,,,,,,,,,,,,,,,,,,,,,,,false,,,,,,,,,82482,82482,47878,47861.00000000001,47894,82513,,,,
data_transmission,html.Screen,2_4_2_2,2021-05-24T15:23:24.543Z,,,,,,,,,,,,,,,,,,,,,,,,,,,,,,,,,,,,,,,,,,,,,,,,,,,,,,,,,,,,,,,,,,,,,,,,,,,,,,,,,,,,,,,,,,,,,,,,,,,,,,,,,,,,,,,,,,,,NaN,,no compatible backend,,,,,,,,,,,,,,,Transferring data,,,,,,,,,,,,,,,,,,,,,,,,,,,,,,,,,,,,,,,,,,,,,,,,,,,,,,,,,,,,,,,false,,,Please wait a second…,,,,,,82487,82487,,82482,,82513,,,,
instructions,html.Screen,2_4_2_3,2021-05-24T15:23:35.062Z,,,,,,,,,,,,,,,,,,,,,,,,,,,,,,,,,,,,,,,,,,,,,,,,,,,,,,,,,,,,,,,,,,,,,,,,,,,,,,,,,,,,,,,,,,,,,,,,,,,,,,,,,,,,,,,,,,,,10492,,done,,,,,,,,,,,,,,,,,,,,,,,,,,,,,,,,,,,,,,,,,,,,,,,,,,,,,,,,,,,,,,,,,,,,,,,,,,,,,,false,,,,,,,,,93006,93005,82497,82487,82513,93065,,,,
Q1,html.Screen,2_4_2_4_0,2021-05-24T15:23:37.582Z,,,,,,,,,,,,,,,,,,,,,,,,,,,,,,,,,,,,,,,,,,,,,,,,,,,,,,,,,,,,,,,,,,,,,,,,,,,,,,,,,,,,,,,,,,,,,,,,,,,,,,,,,,,,,,,,false,input_Q1==3,,,2491,,response,,,,,,,,,,,,,,,,,,,,,,,,,Q1_i2,Q1_i3,Q1_i1,Q1_i4,2,3,1,4,false,correct,false,false,,,,,,,,,,,,,,,,,,,,,,,,,,,,,,,,,,,,,,,,,click #Q1_i3,false,,,,,,,,,95525,95521,93030,93006,93065,95558,,,,
Q1_correct,html.Screen,2_4_2_4_1,2021-05-24T15:23:37.914Z,,,,,,,,,,,,,,,,,,,,,,,,,,,,,,,,,,,,,,,,,,,,,,,,,,,,,,,,,,,,,,,,,,,,,,,,,,,,,,,,,,,,,,,,,,,,,,,,,,,,,,,,,,,,,,,,,,,,313,,response,,,,,,,,,,,,,,,,,,,,,,,,,,,,,,,,,,,,,,,,,,,,,,,,,,,,,,,,,,,,,,,,,,,,,,,,,,,,,keypress,false,,,,,,,,,95857,95854,95541,95525,95558,95900,,,,
Q2,html.Screen,2_4_2_4_2,2021-05-24T15:23:39.863Z,,,,,,,,,,,,,,,,,,,,,,,,,,,,,,,,,,,,,,,,,,,,,,,,,,,,,,,,,,,,,,,,,,,,,,,,,,,,,,,,,,,,,,,,,,,,,,,,,,,,,,,,,,,,,,,,,,,,1942,,response,,,,,,,,,,,,,,,,,,,,,,,,,,,,,,,,,,,,,Q2_i2,Q2_i3,Q2_i1,Option 2,Same amount,Option 1,opt2,same,correct,,,,,,,,,,,,,,,,,,,,,,,,,,,,,,,,click #Q2_i1,false,,,,,,,,,97806,97803,95861,95857,95900,97829,,,,
Q2_correct,html.Screen,2_4_2_4_3,2021-05-24T15:23:40.063Z,,,,,,,,,,,,,,,,,,,,,,,,,,,,,,,,,,,,,,,,,,,,,,,,,,,,,,,,,,,,,,,,,,,,,,,,,,,,,,,,,,,,,,,,,,,,,,,,,,,,,,,,,,,,,,,,,,,,191,,response,,,,,,,,,,,,,,,,,,,,,,,,,,,,,,,,,,,,,,,,,,,,,,,,,,,,,,,,,,,,,,,,,,,,,,,,,,,,,keypress,false,,,,,,,,,98006,98003,97812,97806,97829,98077,,,,
Q4,html.Screen,2_4_2_4_4,2021-05-24T15:23:41.897Z,,,,,,,,,,,,,,,,,,,,,,,,,,,,,,,,,,,,,,,,,,,,,,,,,,,,,,,,,,,,,,,,,,,,,,,,,,,,,,,,,,,,,,,,,,,,,,,,,,,,,,,,,,,,,,,,,,,,1822,,response,,,,,,,,,,,,,,,,,,,,,,,,,,,,,,,,,,,,,,,,,,,,,,Q4_i2,Q4_i3,Q4_i4,Q4_i1,Indicate the number of food items in each snack option,Press the arrow key that corresponds with the snack option with more food items,Press the space key,Press the arrow key that corresponds with the snack option I prefer,indicate,morefood,pressspace,correct,,,,,,,,,,,,,,,,,,,,click #Q4_i1,false,,,,,,,,,99840,99837,98015,98006,98077,99874,,,,
Q4_correct,html.Screen,2_4_2_4_5,2021-05-24T15:23:42.278Z,,,,,,,,,,,,,,,,,,,,,,,,,,,,,,,,,,,,,,,,,,,,,,,,,,,,,,,,,,,,,,,,,,,,,,,,,,,,,,,,,,,,,,,,,,,,,,,,,,,,,,,,,,,,,,,,,,,,361,,response,,,,,,,,,,,,,,,,,,,,,,,,,,,,,,,,,,,,,,,,,,,,,,,,,,,,,,,,,,,,,,,,,,,,,,,,,,,,,keypress,false,,,,,,,,,100222.00000000001,100218,99857,99841.00000000001,99874,100291,,,,
Q5,html.Screen,2_4_2_4_6,2021-05-24T15:23:44.205Z,,,,,,,,,,,,,,,,,,,,,,,,,,,,,,,,,,,,,,,,,,,,,,,,,,,,,,,,,,,,,,,,,,,,,,,,,,,,,,,,,,,,,,,,,,,,,,,,,,,,,,,,,,,,,,,,,,,,1918,,response,,,,,,,,,,,,,,,,,,,,,,,,,,,,,,,,,,,,,,,,,,,,,,,,,,,,,,,,,,Q5_i4,Q5_i2,Q5_i3,Q5_i1,Snack Option 1 has been chosen,There are more pieces of chocolate in snack Option 2,There are more slices of kiwi in snack Option 1,Snack Option 2 has been chosen,chose1,morechoc2,morekiwi1,correct,,,,,,,,click #Q5_i1,false,,,,,,,,,102148,102145,100227,100222.00000000001,100291,102175,,,,
Q5_correct,html.Screen,2_4_2_4_7,2021-05-24T15:23:44.697Z,,,,,,,,,,,,,,,,,,,,,,,,,,,,,,,,,,,,,,,,,,,,,,,,,,,,,,,,,,,,,,,,,,,,,,,,,,,,,,,,,,,,,,,,,,,,,,,,,,,,,,,,,,,,,,,,,,,,478,,response,,,,,,,,,,,,,,,,,,,,,,,,,,,,,,,,,,,,,,,,,,,,,,,,,,,,,,,,,,,,,,,,,,,,,,,,,,,,,keypress,false,,,,,,,,,102640,102637,102159,102148,102175,102679,,,,
practice_sequence,flow.Sequence,2_4_2_4,2021-05-24T15:23:44.697Z,,,,,,,,,,,,,,,,,,,,,,,,,,,,,,,,,,,,,,,,,,,,,,,,,,,,,,,,,,,,,,,,,,,,,,,,,,,,,,,,,,,,,,,,,,,,,,,,,,,,,,,,,,,,,,,,,,,,9572,,completion,,,,,,,,,,,,,,,,,,,,,,,,,,,,,,,,,,,,,,,,,,,,,,,,,,,,,,,,,,,,,,,,,,,,,,,,,,,,,,false,,,,,,,,,102640,102637,93030,93006,93065,102679,,,,
final_instru,html.Screen,2_4_2_5,2021-05-24T15:24:02.799Z,,,,,,,,,,,,,,,,,,,,,,,,,,,,,,,,,,,,,,,,,,,,,,,,,,,,,,,,,,,,,,,,,,,,,,,,,,,,,,,,,,,,,,,,,,,,,,,,,,,,,,,,,,,,,,,,,,,,18063,,done,,,,,,,,,,,,,,,,,,,,,,,,,,,,,,,,,,,,,,,,,,,,,,,,,,,,,,,,,,,,,,,,,,,,,,,,,,,,,,false,,,,,,,,,120742,120742,102662,102640,102679,120769,,,,
blank_screen,canvas.Screen,2_4_2_6_0,2021-05-24T15:24:04.814Z,,,,,,,,,,,,,,,,,,,,,,,,,,,,,,,,,,,,,,,,,,,,,,,,,,,,,,,,,,,,,,,,,,,,,,,,,,,,,,,,,,,,,,,,,,,,,,,,,,,,,,,,,,,,,,,,,,,,2018,,timeout,,,,,,,,,,,,,,,,,,,,,,,,,,,,,,,,,,,,,,,,,,,,,,,,,,,,,,,,,,,,,,,,,,,,,,,,,,,,,,false,,,,,,,,,122757,122757,120754,120742,120769,122787,,,,
fixCross,canvas.Screen,2_4_2_6_1_0_0_0_0_0_0,2021-05-24T15:24:05.372Z,,,blank.png,blank.png,blank.png,blank.png,blank.png,blank.png,blank.png,"[""praline.png""]",blank.png,blank.png,blank.png,blank.png,blank.png,,,,,,,,,,,,,,,,,,,,,,,,,,,,,"[""praline.png""]","[""blueberry.png""]",PB18.png,,,,,,,,,,,0,6,"[""blueberry.png""]","[""blueberry.png""]","[""blueberry.png""]","[""blueberry.png""]","[""blueberry.png""]","[""blueberry.png""]",blank.png,PB18.png,PB14.png,"[""blueberry.png""]","[""blueberry.png""]","[""blueberry.png""]","[""blueberry.png""]","[""blueberry.png""]","[""blueberry.png""]","[""blueberry.png""]","[""blueberry.png""]","[""blueberry.png""]",blank.png,blank.png,blank.png,1,"[""praline.png""]",blank.png,blank.png,blank.png,3,"[""blueberry.png""]","[""blueberry.png""]","[""blueberry.png""]",blank.png,blank.png,blank.png,PB14.png,,,,,,,,,,,1,,,,,,,,,,,,,1144,,timeout,,,,,,,,,,,,,4,,,,,,,,,,,,,,,,,,,,,,,,,,,,,,,,,,,,,,,,,,,,,,,,,,,,,,,,,"[""blueberry.png""]","[""praline.png""]",,,,3,,,false,,1,,,,,,,123315,123314,122757,122774,122787,123931,1,,,
timeout,canvas.Screen,2_4_2_6_1_0_0_0_0_0_1,2021-05-24T15:24:06.477Z,,,blank.png,blank.png,blank.png,blank.png,blank.png,blank.png,blank.png,"[""praline.png""]",blank.png,blank.png,blank.png,blank.png,blank.png,,,,,,,,,,,,,,,,,,,,,,,,,,,,,"[""praline.png""]","[""blueberry.png""]",PB18.png,,,,,,,,,,,0,6,"[""blueberry.png""]","[""blueberry.png""]","[""blueberry.png""]","[""blueberry.png""]","[""blueberry.png""]","[""blueberry.png""]",blank.png,PB18.png,PB14.png,"[""blueberry.png""]","[""blueberry.png""]","[""blueberry.png""]","[""blueberry.png""]","[""blueberry.png""]","[""blueberry.png""]","[""blueberry.png""]","[""blueberry.png""]","[""blueberry.png""]",blank.png,blank.png,blank.png,1,"[""praline.png""]",blank.png,blank.png,blank.png,3,"[""blueberry.png""]","[""blueberry.png""]","[""blueberry.png""]",blank.png,blank.png,blank.png,PB14.png,,,,,,,,,,,1,,,,,,,,,,,,,1222,,timeout,,,,,,,,,,,,,4,,,,,,,,,,,,,,,,,,,,,,,,,,,,,,,,,,,,,,,,,,,,,,,,,,,,,,,,,"[""blueberry.png""]","[""praline.png""]",,,,3,,,false,,1,,,,,,,124420,124420,123314,123913,123931,125153,,,,
choice,canvas.Screen,2_4_2_6_1_0_0_0_0_0_2,2021-05-24T15:24:08.140Z,,,blank.png,blank.png,blank.png,blank.png,blank.png,blank.png,blank.png,"[""praline.png""]",blank.png,blank.png,blank.png,blank.png,blank.png,,,,,,,,,,,,,,,,,,,,,,,,,,,,,"[""praline.png""]","[""blueberry.png""]",PB18.png,,,,,,,,,,,0,6,"[""blueberry.png""]","[""blueberry.png""]","[""blueberry.png""]","[""blueberry.png""]","[""blueberry.png""]","[""blueberry.png""]",blank.png,PB18.png,PB14.png,"[""blueberry.png""]","[""blueberry.png""]","[""blueberry.png""]","[""blueberry.png""]","[""blueberry.png""]","[""blueberry.png""]","[""blueberry.png""]","[""blueberry.png""]","[""blueberry.png""]",blank.png,blank.png,blank.png,1,"[""praline.png""]",blank.png,blank.png,blank.png,3,"[""blueberry.png""]","[""blueberry.png""]","[""blueberry.png""]",blank.png,blank.png,blank.png,PB14.png,,,,,,,,,,,1,,,,,,,,,,,,,1659.0000000000146,,response,,,,,,,,,,,,,4,,,,,,,,,,,,,,,,,,,,,,,,,,,,,,,,,,,,,,,,,,,,,,,,,,,,,,,,,"[""blueberry.png""]","[""praline.png""]",,,,3,right,keydown(ArrowRight),false,,1,,,,,,,126083,126079.00000000001,124420,125141,125153,126125,,1,,
square,canvas.Screen,2_4_2_6_1_0_0_0_0_0_3,2021-05-24T15:24:09.171Z,,,blank.png,blank.png,blank.png,blank.png,blank.png,blank.png,blank.png,"[""praline.png""]",blank.png,blank.png,blank.png,blank.png,blank.png,,,,,,,,,,,,,,,,,,,,,,,,,,,,,"[""praline.png""]","[""blueberry.png""]",PB18.png,,,,,,,,,,,0,6,"[""blueberry.png""]","[""blueberry.png""]","[""blueberry.png""]","[""blueberry.png""]","[""blueberry.png""]","[""blueberry.png""]",blank.png,PB18.png,PB14.png,"[""blueberry.png""]","[""blueberry.png""]","[""blueberry.png""]","[""blueberry.png""]","[""blueberry.png""]","[""blueberry.png""]","[""blueberry.png""]","[""blueberry.png""]","[""blueberry.png""]",blank.png,blank.png,blank.png,1,"[""praline.png""]",blank.png,blank.png,blank.png,3,"[""blueberry.png""]","[""blueberry.png""]","[""blueberry.png""]",blank.png,blank.png,blank.png,PB14.png,,,,,,,,,,,1,,,#808080,#33ff3f,,,,,,,,,1005,,timeout,,,,,,,,,,,,,4,,,,,,,,,,,,,,,,,,,,,,,,,,,,,,,,,,,,,,,,,,,,,,,,,,,,,,,,,"[""blueberry.png""]","[""praline.png""]",,,,3,,,false,,1,,,,,white,black,127114,127113,126109,126087,126125,127130,,,,
ITI_late,canvas.Screen,2_4_2_6_1_0_0_0_0_0_4,2021-05-24T15:24:10.425Z,,,blank.png,blank.png,blank.png,blank.png,blank.png,blank.png,blank.png,"[""praline.png""]",blank.png,blank.png,blank.png,blank.png,blank.png,,,,,,,,,,,,,,,,,,,,,,,,,,,,,"[""praline.png""]","[""blueberry.png""]",PB18.png,,,,,,,,,,,0,6,"[""blueberry.png""]","[""blueberry.png""]","[""blueberry.png""]","[""blueberry.png""]","[""blueberry.png""]","[""blueberry.png""]",blank.png,PB18.png,PB14.png,"[""blueberry.png""]","[""blueberry.png""]","[""blueberry.png""]","[""blueberry.png""]","[""blueberry.png""]","[""blueberry.png""]","[""blueberry.png""]","[""blueberry.png""]","[""blueberry.png""]",blank.png,blank.png,blank.png,1,"[""praline.png""]",blank.png,blank.png,blank.png,3,"[""blueberry.png""]","[""blueberry.png""]","[""blueberry.png""]",blank.png,blank.png,blank.png,PB14.png,,,,,,,,,,,1,,,,,,,,,,,,,1254,,timeout,,,,,,,,,,,,white,4,,,,,,,,,,,,,,,,,,,,,,,,,,,,,,,,,,,,,,,,,,,,,,,,,,,,,,,,,"[""blueberry.png""]","[""praline.png""]",,,,3,,,false,,1,,,,,,,128368,128368,127113,127117,127130,128384,,,,
choice_sequence,flow.Sequence,2_4_2_6_1_0_0_0_0_0,2021-05-24T15:24:10.426Z,,,blank.png,blank.png,blank.png,blank.png,blank.png,blank.png,blank.png,"[""praline.png""]",blank.png,blank.png,blank.png,blank.png,blank.png,,,,,,,,,,,,,,,,,,,,,,,,,,,,,"[""praline.png""]","[""blueberry.png""]",PB18.png,,,,,,,,,,,0,6,"[""blueberry.png""]","[""blueberry.png""]","[""blueberry.png""]","[""blueberry.png""]","[""blueberry.png""]","[""blueberry.png""]",blank.png,PB18.png,PB14.png,"[""blueberry.png""]","[""blueberry.png""]","[""blueberry.png""]","[""blueberry.png""]","[""blueberry.png""]","[""blueberry.png""]","[""blueberry.png""]","[""blueberry.png""]","[""blueberry.png""]",blank.png,blank.png,blank.png,1,"[""praline.png""]",blank.png,blank.png,blank.png,3,"[""blueberry.png""]","[""blueberry.png""]","[""blueberry.png""]",blank.png,blank.png,blank.png,PB14.png,,,,,,,,,,,1,,,,,,,,,,,,,5581,,completion,,,,,,,,,,,,,4,,,,,,,,,,,,,,,,,,,,,,,,,,,,,,,,,,,,,,,,,,,,,,,,,,,,,,,,,"[""blueberry.png""]","[""praline.png""]",,,,3,,,false,,1,,,,,,,128369,128368,122757,122773,122787,128384,,,,
fixCross,canvas.Screen,2_4_2_6_1_0_0_0_0_1_0,2021-05-24T15:24:10.780Z,,,blank.png,"[""praline.png""]",blank.png,blank.png,blank.png,blank.png,blank.png,blank.png,blank.png,blank.png,blank.png,blank.png,blank.png,,,,,,,,,,,,,,,,,,,,,,,,,,,,,"[""praline.png""]","[""blueberry.png""]",PB12.png,,,,,,,,,,,0,6,"[""blueberry.png""]","[""blueberry.png""]","[""blueberry.png""]","[""blueberry.png""]","[""blueberry.png""]","[""blueberry.png""]",blank.png,PB18.png,PB18.png,"[""blueberry.png""]","[""blueberry.png""]",blank.png,blank.png,blank.png,blank.png,"[""blueberry.png""]","[""blueberry.png""]","[""blueberry.png""]","[""blueberry.png""]","[""blueberry.png""]","[""blueberry.png""]",1,"[""praline.png""]",blank.png,blank.png,blank.png,2,"[""blueberry.png""]","[""blueberry.png""]",blank.png,blank.png,blank.png,blank.png,PB12.png,,,,,,,,,,,1,,,,,,,,,,,,,1621,,timeout,,,,,,,,,,,,,3,,,,,,,,,,,,,,,,,,,,,,,,,,,,,,,,,,,,,,,,,,,,,,,,,,,,,,,,,"[""blueberry.png""]","[""praline.png""]",,,,3,,,false,,1,,,,,,,128722.00000000001,128722,128368,128371.00000000001,128384,130005,2,,,
timeout,canvas.Screen,2_4_2_6_1_0_0_0_0_1_1,2021-05-24T15:24:12.553Z,,,blank.png,"[""praline.png""]",blank.png,blank.png,blank.png,blank.png,blank.png,blank.png,blank.png,blank.png,blank.png,blank.png,blank.png,,,,,,,,,,,,,,,,,,,,,,,,,,,,,"[""praline.png""]","[""blueberry.png""]",PB12.png,,,,,,,,,,,0,6,"[""blueberry.png""]","[""blueberry.png""]","[""blueberry.png""]","[""blueberry.png""]","[""blueberry.png""]","[""blueberry.png""]",blank.png,PB18.png,PB18.png,"[""blueberry.png""]","[""blueberry.png""]",blank.png,blank.png,blank.png,blank.png,"[""blueberry.png""]","[""blueberry.png""]","[""blueberry.png""]","[""blueberry.png""]","[""blueberry.png""]","[""blueberry.png""]",1,"[""praline.png""]",blank.png,blank.png,blank.png,2,"[""blueberry.png""]","[""blueberry.png""]",blank.png,blank.png,blank.png,blank.png,PB12.png,,,,,,,,,,,1,,,,,,,,,,,,,506,,timeout,,,,,,,,,,,,,3,,,,,,,,,,,,,,,,,,,,,,,,,,,,,,,,,,,,,,,,,,,,,,,,,,,,,,,,,"[""blueberry.png""]","[""praline.png""]",,,,3,,,false,,1,,,,,,,130495,130495,128722,129993,130005,130511,,,,
choice,canvas.Screen,2_4_2_6_1_0_0_0_0_1_2,2021-05-24T15:24:12.857Z,,,blank.png,"[""praline.png""]",blank.png,blank.png,blank.png,blank.png,blank.png,blank.png,blank.png,blank.png,blank.png,blank.png,blank.png,,,,,,,,,,,,,,,,,,,,,,,,,,,,,"[""praline.png""]","[""blueberry.png""]",PB12.png,,,,,,,,,,,0,6,"[""blueberry.png""]","[""blueberry.png""]","[""blueberry.png""]","[""blueberry.png""]","[""blueberry.png""]","[""blueberry.png""]",blank.png,PB18.png,PB18.png,"[""blueberry.png""]","[""blueberry.png""]",blank.png,blank.png,blank.png,blank.png,"[""blueberry.png""]","[""blueberry.png""]","[""blueberry.png""]","[""blueberry.png""]","[""blueberry.png""]","[""blueberry.png""]",1,"[""praline.png""]",blank.png,blank.png,blank.png,2,"[""blueberry.png""]","[""blueberry.png""]",blank.png,blank.png,blank.png,blank.png,PB12.png,,,,,,,,,,,1,,,,,,,,,,,,,300.00000000001455,,response,,,,,,,,,,,,,3,,,,,,,,,,,,,,,,,,,,,,,,,,,,,,,,,,,,,,,,,,,,,,,,,,,,,,,,,"[""blueberry.png""]","[""praline.png""]",,,,3,right,keydown(ArrowRight),false,,1,,,,,,,130799,130795.00000000001,130495,130499,130511,130832,,2,,
square,canvas.Screen,2_4_2_6_1_0_0_0_0_1_3,2021-05-24T15:24:13.879Z,,,blank.png,"[""praline.png""]",blank.png,blank.png,blank.png,blank.png,blank.png,blank.png,blank.png,blank.png,blank.png,blank.png,blank.png,,,,,,,,,,,,,,,,,,,,,,,,,,,,,"[""praline.png""]","[""blueberry.png""]",PB12.png,,,,,,,,,,,0,6,"[""blueberry.png""]","[""blueberry.png""]","[""blueberry.png""]","[""blueberry.png""]","[""blueberry.png""]","[""blueberry.png""]",blank.png,PB18.png,PB18.png,"[""blueberry.png""]","[""blueberry.png""]",blank.png,blank.png,blank.png,blank.png,"[""blueberry.png""]","[""blueberry.png""]","[""blueberry.png""]","[""blueberry.png""]","[""blueberry.png""]","[""blueberry.png""]",1,"[""praline.png""]",blank.png,blank.png,blank.png,2,"[""blueberry.png""]","[""blueberry.png""]",blank.png,blank.png,blank.png,blank.png,PB12.png,,,,,,,,,,,1,,,#808080,#33ff3f,,,,,,,,,1005,,timeout,,,,,,,,,,,,,3,,,,,,,,,,,,,,,,,,,,,,,,,,,,,,,,,,,,,,,,,,,,,,,,,,,,,,,,,"[""blueberry.png""]","[""praline.png""]",,,,3,,,false,,1,,,,,white,black,131821,131821,130815,130801.99999999999,130832,131837,,,,
ITI_late,canvas.Screen,2_4_2_6_1_0_0_0_0_1_4,2021-05-24T15:24:14.881Z,,,blank.png,"[""praline.png""]",blank.png,blank.png,blank.png,blank.png,blank.png,blank.png,blank.png,blank.png,blank.png,blank.png,blank.png,,,,,,,,,,,,,,,,,,,,,,,,,,,,,"[""praline.png""]","[""blueberry.png""]",PB12.png,,,,,,,,,,,0,6,"[""blueberry.png""]","[""blueberry.png""]","[""blueberry.png""]","[""blueberry.png""]","[""blueberry.png""]","[""blueberry.png""]",blank.png,PB18.png,PB18.png,"[""blueberry.png""]","[""blueberry.png""]",blank.png,blank.png,blank.png,blank.png,"[""blueberry.png""]","[""blueberry.png""]","[""blueberry.png""]","[""blueberry.png""]","[""blueberry.png""]","[""blueberry.png""]",1,"[""praline.png""]",blank.png,blank.png,blank.png,2,"[""blueberry.png""]","[""blueberry.png""]",blank.png,blank.png,blank.png,blank.png,PB12.png,,,,,,,,,,,1,,,,,,,,,,,,,1003,,timeout,,,,,,,,,,,,white,3,,,,,,,,,,,,,,,,,,,,,,,,,,,,,,,,,,,,,,,,,,,,,,,,,,,,,,,,,"[""blueberry.png""]","[""praline.png""]",,,,3,,,false,,1,,,,,,,132824,132823,131821,131823,131837,132840,,,,
choice_sequence,flow.Sequence,2_4_2_6_1_0_0_0_0_1,2021-05-24T15:24:14.882Z,,,blank.png,"[""praline.png""]",blank.png,blank.png,blank.png,blank.png,blank.png,blank.png,blank.png,blank.png,blank.png,blank.png,blank.png,,,,,,,,,,,,,,,,,,,,,,,,,,,,,"[""praline.png""]","[""blueberry.png""]",PB12.png,,,,,,,,,,,0,6,"[""blueberry.png""]","[""blueberry.png""]","[""blueberry.png""]","[""blueberry.png""]","[""blueberry.png""]","[""blueberry.png""]",blank.png,PB18.png,PB18.png,"[""blueberry.png""]","[""blueberry.png""]",blank.png,blank.png,blank.png,blank.png,"[""blueberry.png""]","[""blueberry.png""]","[""blueberry.png""]","[""blueberry.png""]","[""blueberry.png""]","[""blueberry.png""]",1,"[""praline.png""]",blank.png,blank.png,blank.png,2,"[""blueberry.png""]","[""blueberry.png""]",blank.png,blank.png,blank.png,blank.png,PB12.png,,,,,,,,,,,1,,,,,,,,,,,,,4439,,completion,,,,,,,,,,,,,3,,,,,,,,,,,,,,,,,,,,,,,,,,,,,,,,,,,,,,,,,,,,,,,,,,,,,,,,,"[""blueberry.png""]","[""praline.png""]",,,,3,,,false,,1,,,,,,,132824,132823,128368,128370,128384,132840,,,,
fixCross,canvas.Screen,2_4_2_6_1_0_0_0_0_2_0,2021-05-24T15:24:15.337Z,,,blank.png,blank.png,blank.png,blank.png,blank.png,blank.png,blank.png,"[""praline.png""]",blank.png,blank.png,blank.png,blank.png,blank.png,,,,,,,,,,,,,,,,,,,,,,,,,,,,,"[""praline.png""]","[""blueberry.png""]",PB18.png,,,,,,,,,,,0,6,"[""blueberry.png""]","[""blueberry.png""]","[""blueberry.png""]","[""blueberry.png""]","[""blueberry.png""]","[""blueberry.png""]",blank.png,PB18.png,PB17.png,"[""blueberry.png""]","[""blueberry.png""]","[""blueberry.png""]","[""blueberry.png""]","[""blueberry.png""]","[""blueberry.png""]","[""blueberry.png""]","[""blueberry.png""]","[""blueberry.png""]","[""blueberry.png""]","[""blueberry.png""]","[""blueberry.png""]",1,"[""praline.png""]",blank.png,blank.png,blank.png,6,"[""blueberry.png""]","[""blueberry.png""]","[""blueberry.png""]","[""blueberry.png""]","[""blueberry.png""]","[""blueberry.png""]",PB17.png,,,,,,,,,,,1,,,,,,,,,,,,,1006,,timeout,,,,,,,,,,,,,4,,,,,,,,,,,,,,,,,,,,,,,,,,,,,,,,,,,,,,,,,,,,,,,,,,,,,,,,,"[""blueberry.png""]","[""praline.png""]",,,,3,,,false,,1,,,,,,,133280,133279,132823,132827,132840,133846,3,,,
timeout,canvas.Screen,2_4_2_6_1_0_0_0_0_2_1,2021-05-24T15:24:16.390Z,,,blank.png,blank.png,blank.png,blank.png,blank.png,blank.png,blank.png,"[""praline.png""]",blank.png,blank.png,blank.png,blank.png,blank.png,,,,,,,,,,,,,,,,,,,,,,,,,,,,,"[""praline.png""]","[""blueberry.png""]",PB18.png,,,,,,,,,,,0,6,"[""blueberry.png""]","[""blueberry.png""]","[""blueberry.png""]","[""blueberry.png""]","[""blueberry.png""]","[""blueberry.png""]",blank.png,PB18.png,PB17.png,"[""blueberry.png""]","[""blueberry.png""]","[""blueberry.png""]","[""blueberry.png""]","[""blueberry.png""]","[""blueberry.png""]","[""blueberry.png""]","[""blueberry.png""]","[""blueberry.png""]","[""blueberry.png""]","[""blueberry.png""]","[""blueberry.png""]",1,"[""praline.png""]",blank.png,blank.png,blank.png,6,"[""blueberry.png""]","[""blueberry.png""]","[""blueberry.png""]","[""blueberry.png""]","[""blueberry.png""]","[""blueberry.png""]",PB17.png,,,,,,,,,,,1,,,,,,,,,,,,,503,,timeout,,,,,,,,,,,,,4,,,,,,,,,,,,,,,,,,,,,,,,,,,,,,,,,,,,,,,,,,,,,,,,,,,,,,,,,"[""blueberry.png""]","[""praline.png""]",,,,3,,,false,,1,,,,,,,134333,134333,133279,133831,133846,134349,,,,
choice,canvas.Screen,2_4_2_6_1_0_0_0_0_2_2,2021-05-24T15:24:17.033Z,,,blank.png,blank.png,blank.png,blank.png,blank.png,blank.png,blank.png,"[""praline.png""]",blank.png,blank.png,blank.png,blank.png,blank.png,,,,,,,,,,,,,,,,,,,,,,,,,,,,,"[""praline.png""]","[""blueberry.png""]",PB18.png,,,,,,,,,,,0,6,"[""blueberry.png""]","[""blueberry.png""]","[""blueberry.png""]","[""blueberry.png""]","[""blueberry.png""]","[""blueberry.png""]",blank.png,PB18.png,PB17.png,"[""blueberry.png""]","[""blueberry.png""]","[""blueberry.png""]","[""blueberry.png""]","[""blueberry.png""]","[""blueberry.png""]","[""blueberry.png""]","[""blueberry.png""]","[""blueberry.png""]","[""blueberry.png""]","[""blueberry.png""]","[""blueberry.png""]",1,"[""praline.png""]",blank.png,blank.png,blank.png,6,"[""blueberry.png""]","[""blueberry.png""]","[""blueberry.png""]","[""blueberry.png""]","[""blueberry.png""]","[""blueberry.png""]",PB17.png,,,,,,,,,,,1,,,,,,,,,,,,,638,,response,,,,,,,,,,,,,4,,,,,,,,,,,,,,,,,,,,,,,,,,,,,,,,,,,,,,,,,,,,,,,,,,,,,,,,,"[""blueberry.png""]","[""praline.png""]",,,,3,left,keydown(ArrowLeft),false,,1,,,,,,,134975,134971,134333,134336,134349,135005,,3,,
square,canvas.Screen,2_4_2_6_1_0_0_0_0_2_3,2021-05-24T15:24:18.049Z,,,blank.png,blank.png,blank.png,blank.png,blank.png,blank.png,blank.png,"[""praline.png""]",blank.png,blank.png,blank.png,blank.png,blank.png,,,,,,,,,,,,,,,,,,,,,,,,,,,,,"[""praline.png""]","[""blueberry.png""]",PB18.png,,,,,,,,,,,0,6,"[""blueberry.png""]","[""blueberry.png""]","[""blueberry.png""]","[""blueberry.png""]","[""blueberry.png""]","[""blueberry.png""]",blank.png,PB18.png,PB17.png,"[""blueberry.png""]","[""blueberry.png""]","[""blueberry.png""]","[""blueberry.png""]","[""blueberry.png""]","[""blueberry.png""]","[""blueberry.png""]","[""blueberry.png""]","[""blueberry.png""]","[""blueberry.png""]","[""blueberry.png""]","[""blueberry.png""]",1,"[""praline.png""]",blank.png,blank.png,blank.png,6,"[""blueberry.png""]","[""blueberry.png""]","[""blueberry.png""]","[""blueberry.png""]","[""blueberry.png""]","[""blueberry.png""]",PB17.png,,,,,,,,,,,1,,,#33ff3f,#808080,,,,,,,,,1002,,timeout,,,,,,,,,,,,,4,,,,,,,,,,,,,,,,,,,,,,,,,,,,,,,,,,,,,,,,,,,,,,,,,,,,,,,,,"[""blueberry.png""]","[""praline.png""]",,,,3,,,false,,1,,,,,black,white,135992,135991,134988,134977,135005,136007,,,,
ITI_late,canvas.Screen,2_4_2_6_1_0_0_0_0_2_4,2021-05-24T15:24:19.054Z,,,blank.png,blank.png,blank.png,blank.png,blank.png,blank.png,blank.png,"[""praline.png""]",blank.png,blank.png,blank.png,blank.png,blank.png,,,,,,,,,,,,,,,,,,,,,,,,,,,,,"[""praline.png""]","[""blueberry.png""]",PB18.png,,,,,,,,,,,0,6,"[""blueberry.png""]","[""blueberry.png""]","[""blueberry.png""]","[""blueberry.png""]","[""blueberry.png""]","[""blueberry.png""]",blank.png,PB18.png,PB17.png,"[""blueberry.png""]","[""blueberry.png""]","[""blueberry.png""]","[""blueberry.png""]","[""blueberry.png""]","[""blueberry.png""]","[""blueberry.png""]","[""blueberry.png""]","[""blueberry.png""]","[""blueberry.png""]","[""blueberry.png""]","[""blueberry.png""]",1,"[""praline.png""]",blank.png,blank.png,blank.png,6,"[""blueberry.png""]","[""blueberry.png""]","[""blueberry.png""]","[""blueberry.png""]","[""blueberry.png""]","[""blueberry.png""]",PB17.png,,,,,,,,,,,1,,,,,,,,,,,,,1006,,timeout,,,,,,,,,,,,white,4,,,,,,,,,,,,,,,,,,,,,,,,,,,,,,,,,,,,,,,,,,,,,,,,,,,,,,,,,"[""blueberry.png""]","[""praline.png""]",,,,3,,,false,,1,,,,,,,136997,136997,135991,135993,136007,137013,,,,
choice_sequence,flow.Sequence,2_4_2_6_1_0_0_0_0_2,2021-05-24T15:24:19.055Z,,,blank.png,blank.png,blank.png,blank.png,blank.png,blank.png,blank.png,"[""praline.png""]",blank.png,blank.png,blank.png,blank.png,blank.png,,,,,,,,,,,,,,,,,,,,,,,,,,,,,"[""praline.png""]","[""blueberry.png""]",PB18.png,,,,,,,,,,,0,6,"[""blueberry.png""]","[""blueberry.png""]","[""blueberry.png""]","[""blueberry.png""]","[""blueberry.png""]","[""blueberry.png""]",blank.png,PB18.png,PB17.png,"[""blueberry.png""]","[""blueberry.png""]","[""blueberry.png""]","[""blueberry.png""]","[""blueberry.png""]","[""blueberry.png""]","[""blueberry.png""]","[""blueberry.png""]","[""blueberry.png""]","[""blueberry.png""]","[""blueberry.png""]","[""blueberry.png""]",1,"[""praline.png""]",blank.png,blank.png,blank.png,6,"[""blueberry.png""]","[""blueberry.png""]","[""blueberry.png""]","[""blueberry.png""]","[""blueberry.png""]","[""blueberry.png""]",PB17.png,,,,,,,,,,,1,,,,,,,,,,,,,4157,,completion,,,,,,,,,,,,,4,,,,,,,,,,,,,,,,,,,,,,,,,,,,,,,,,,,,,,,,,,,,,,,,,,,,,,,,,"[""blueberry.png""]","[""praline.png""]",,,,3,,,false,,1,,,,,,,136998,136997,132823,132826,132840,137013,,,,
fixCross,canvas.Screen,2_4_2_6_1_0_0_0_0_3_0,2021-05-24T15:24:19.809Z,,,blank.png,blank.png,blank.png,blank.png,blank.png,blank.png,blank.png,"[""praline.png""]",blank.png,blank.png,blank.png,blank.png,blank.png,,,,,,,,,,,,,,,,,,,,,,,,,,,,,"[""praline.png""]","[""blueberry.png""]",PB18.png,,,,,,,,,,,0,6,"[""blueberry.png""]","[""blueberry.png""]","[""blueberry.png""]","[""blueberry.png""]","[""blueberry.png""]","[""blueberry.png""]",blank.png,PB18.png,PB07.png,"[""blueberry.png""]","[""blueberry.png""]","[""blueberry.png""]","[""blueberry.png""]","[""blueberry.png""]","[""blueberry.png""]","[""blueberry.png""]",blank.png,blank.png,blank.png,blank.png,blank.png,1,"[""praline.png""]",blank.png,blank.png,blank.png,1,"[""blueberry.png""]",blank.png,blank.png,blank.png,blank.png,blank.png,PB07.png,,,,,,,,,,,1,,,,,,,,,,,,,837,,timeout,,,,,,,,,,,,,4,,,,,,,,,,,,,,,,,,,,,,,,,,,,,,,,,,,,,,,,,,,,,,,,,,,,,,,,,"[""blueberry.png""]","[""praline.png""]",,,,3,,,false,,1,,,,,,,137751,137751,136997,137000,137013,137850,4,,,
timeout,canvas.Screen,2_4_2_6_1_0_0_0_0_3_1,2021-05-24T15:24:20.398Z,,,blank.png,blank.png,blank.png,blank.png,blank.png,blank.png,blank.png,"[""praline.png""]",blank.png,blank.png,blank.png,blank.png,blank.png,,,,,,,,,,,,,,,,,,,,,,,,,,,,,"[""praline.png""]","[""blueberry.png""]",PB18.png,,,,,,,,,,,0,6,"[""blueberry.png""]","[""blueberry.png""]","[""blueberry.png""]","[""blueberry.png""]","[""blueberry.png""]","[""blueberry.png""]",blank.png,PB18.png,PB07.png,"[""blueberry.png""]","[""blueberry.png""]","[""blueberry.png""]","[""blueberry.png""]","[""blueberry.png""]","[""blueberry.png""]","[""blueberry.png""]",blank.png,blank.png,blank.png,blank.png,blank.png,1,"[""praline.png""]",blank.png,blank.png,blank.png,1,"[""blueberry.png""]",blank.png,blank.png,blank.png,blank.png,blank.png,PB07.png,,,,,,,,,,,1,,,,,,,,,,,,,506,,timeout,,,,,,,,,,,,,4,,,,,,,,,,,,,,,,,,,,,,,,,,,,,,,,,,,,,,,,,,,,,,,,,,,,,,,,,"[""blueberry.png""]","[""praline.png""]",,,,3,,,false,,1,,,,,,,138340,138340,137751,137835,137850,138356,,,,
choice,canvas.Screen,2_4_2_6_1_0_0_0_0_3_2,2021-05-24T15:24:21.126Z,,,blank.png,blank.png,blank.png,blank.png,blank.png,blank.png,blank.png,"[""praline.png""]",blank.png,blank.png,blank.png,blank.png,blank.png,,,,,,,,,,,,,,,,,,,,,,,,,,,,,"[""praline.png""]","[""blueberry.png""]",PB18.png,,,,,,,,,,,0,6,"[""blueberry.png""]","[""blueberry.png""]","[""blueberry.png""]","[""blueberry.png""]","[""blueberry.png""]","[""blueberry.png""]",blank.png,PB18.png,PB07.png,"[""blueberry.png""]","[""blueberry.png""]","[""blueberry.png""]","[""blueberry.png""]","[""blueberry.png""]","[""blueberry.png""]","[""blueberry.png""]",blank.png,blank.png,blank.png,blank.png,blank.png,1,"[""praline.png""]",blank.png,blank.png,blank.png,1,"[""blueberry.png""]",blank.png,blank.png,blank.png,blank.png,blank.png,PB07.png,,,,,,,,,,,1,,,,,,,,,,,,,724,,response,,,,,,,,,,,,,4,,,,,,,,,,,,,,,,,,,,,,,,,,,,,,,,,,,,,,,,,,,,,,,,,,,,,,,,,"[""blueberry.png""]","[""praline.png""]",,,,3,left,keydown(ArrowLeft),false,,1,,,,,,,139069.00000000003,139064,138340,138343,138356,139110,,4,,
square,canvas.Screen,2_4_2_6_1_0_0_0_0_3_3,2021-05-24T15:24:22.156Z,,,blank.png,blank.png,blank.png,blank.png,blank.png,blank.png,blank.png,"[""praline.png""]",blank.png,blank.png,blank.png,blank.png,blank.png,,,,,,,,,,,,,,,,,,,,,,,,,,,,,"[""praline.png""]","[""blueberry.png""]",PB18.png,,,,,,,,,,,0,6,"[""blueberry.png""]","[""blueberry.png""]","[""blueberry.png""]","[""blueberry.png""]","[""blueberry.png""]","[""blueberry.png""]",blank.png,PB18.png,PB07.png,"[""blueberry.png""]","[""blueberry.png""]","[""blueberry.png""]","[""blueberry.png""]","[""blueberry.png""]","[""blueberry.png""]","[""blueberry.png""]",blank.png,blank.png,blank.png,blank.png,blank.png,1,"[""praline.png""]",blank.png,blank.png,blank.png,1,"[""blueberry.png""]",blank.png,blank.png,blank.png,blank.png,blank.png,PB07.png,,,,,,,,,,,1,,,#33ff3f,#808080,,,,,,,,,1006,,timeout,,,,,,,,,,,,,4,,,,,,,,,,,,,,,,,,,,,,,,,,,,,,,,,,,,,,,,,,,,,,,,,,,,,,,,,"[""blueberry.png""]","[""praline.png""]",,,,3,,,false,,1,,,,,black,white,140099,140098,139093,139071,139110,140116,,,,
ITI_late,canvas.Screen,2_4_2_6_1_0_0_0_0_3_4,2021-05-24T15:24:23.161Z,,,blank.png,blank.png,blank.png,blank.png,blank.png,blank.png,blank.png,"[""praline.png""]",blank.png,blank.png,blank.png,blank.png,blank.png,,,,,,,,,,,,,,,,,,,,,,,,,,,,,"[""praline.png""]","[""blueberry.png""]",PB18.png,,,,,,,,,,,0,6,"[""blueberry.png""]","[""blueberry.png""]","[""blueberry.png""]","[""blueberry.png""]","[""blueberry.png""]","[""blueberry.png""]",blank.png,PB18.png,PB07.png,"[""blueberry.png""]","[""blueberry.png""]","[""blueberry.png""]","[""blueberry.png""]","[""blueberry.png""]","[""blueberry.png""]","[""blueberry.png""]",blank.png,blank.png,blank.png,blank.png,blank.png,1,"[""praline.png""]",blank.png,blank.png,blank.png,1,"[""blueberry.png""]",blank.png,blank.png,blank.png,blank.png,blank.png,PB07.png,,,,,,,,,,,1,,,,,,,,,,,,,1003,,timeout,,,,,,,,,,,,white,4,,,,,,,,,,,,,,,,,,,,,,,,,,,,,,,,,,,,,,,,,,,,,,,,,,,,,,,,,"[""blueberry.png""]","[""praline.png""]",,,,3,,,false,,1,,,,,,,141103,141103,140098,140100,140116,141119,,,,
choice_sequence,flow.Sequence,2_4_2_6_1_0_0_0_0_3,2021-05-24T15:24:23.161Z,,,blank.png,blank.png,blank.png,blank.png,blank.png,blank.png,blank.png,"[""praline.png""]",blank.png,blank.png,blank.png,blank.png,blank.png,,,,,,,,,,,,,,,,,,,,,,,,,,,,,"[""praline.png""]","[""blueberry.png""]",PB18.png,,,,,,,,,,,0,6,"[""blueberry.png""]","[""blueberry.png""]","[""blueberry.png""]","[""blueberry.png""]","[""blueberry.png""]","[""blueberry.png""]",blank.png,PB18.png,PB07.png,"[""blueberry.png""]","[""blueberry.png""]","[""blueberry.png""]","[""blueberry.png""]","[""blueberry.png""]","[""blueberry.png""]","[""blueberry.png""]",blank.png,blank.png,blank.png,blank.png,blank.png,1,"[""praline.png""]",blank.png,blank.png,blank.png,1,"[""blueberry.png""]",blank.png,blank.png,blank.png,blank.png,blank.png,PB07.png,,,,,,,,,,,1,,,,,,,,,,,,,4090,,completion,,,,,,,,,,,,,4,,,,,,,,,,,,,,,,,,,,,,,,,,,,,,,,,,,,,,,,,,,,,,,,,,,,,,,,,"[""blueberry.png""]","[""praline.png""]",,,,3,,,false,,1,,,,,,,141104,141103,136997,136999,137013,141119,,,,
fixCross,canvas.Screen,2_4_2_6_1_0_0_0_0_4_0,2021-05-24T15:24:23.516Z,,,blank.png,blank.png,blank.png,blank.png,blank.png,blank.png,blank.png,"[""praline.png""]",blank.png,blank.png,blank.png,blank.png,blank.png,,,,,,,,,,,,,,,,,,,,,,,,,,,,,"[""praline.png""]","[""blueberry.png""]",PB18.png,,,,,,,,,,,0,6,"[""blueberry.png""]","[""blueberry.png""]","[""blueberry.png""]","[""blueberry.png""]","[""blueberry.png""]","[""blueberry.png""]",blank.png,PB18.png,PB15.png,"[""blueberry.png""]","[""blueberry.png""]","[""blueberry.png""]","[""blueberry.png""]","[""blueberry.png""]","[""blueberry.png""]","[""blueberry.png""]","[""blueberry.png""]","[""blueberry.png""]","[""blueberry.png""]",blank.png,blank.png,1,"[""praline.png""]",blank.png,blank.png,blank.png,4,"[""blueberry.png""]","[""blueberry.png""]","[""blueberry.png""]","[""blueberry.png""]",blank.png,blank.png,PB15.png,,,,,,,,,,,1,,,,,,,,,,,,,422,,timeout,,,,,,,,,,,,,4,,,,,,,,,,,,,,,,,,,,,,,,,,,,,,,,,,,,,,,,,,,,,,,,,,,,,,,,,"[""blueberry.png""]","[""praline.png""]",,,,3,,,false,,1,,,,,,,141458,141458,141103,141106,141119,141541,5,,,
timeout,canvas.Screen,2_4_2_6_1_0_0_0_0_4_1,2021-05-24T15:24:24.086Z,,,blank.png,blank.png,blank.png,blank.png,blank.png,blank.png,blank.png,"[""praline.png""]",blank.png,blank.png,blank.png,blank.png,blank.png,,,,,,,,,,,,,,,,,,,,,,,,,,,,,"[""praline.png""]","[""blueberry.png""]",PB18.png,,,,,,,,,,,0,6,"[""blueberry.png""]","[""blueberry.png""]","[""blueberry.png""]","[""blueberry.png""]","[""blueberry.png""]","[""blueberry.png""]",blank.png,PB18.png,PB15.png,"[""blueberry.png""]","[""blueberry.png""]","[""blueberry.png""]","[""blueberry.png""]","[""blueberry.png""]","[""blueberry.png""]","[""blueberry.png""]","[""blueberry.png""]","[""blueberry.png""]","[""blueberry.png""]",blank.png,blank.png,1,"[""praline.png""]",blank.png,blank.png,blank.png,4,"[""blueberry.png""]","[""blueberry.png""]","[""blueberry.png""]","[""blueberry.png""]",blank.png,blank.png,PB15.png,,,,,,,,,,,1,,,,,,,,,,,,,503,,timeout,,,,,,,,,,,,,4,,,,,,,,,,,,,,,,,,,,,,,,,,,,,,,,,,,,,,,,,,,,,,,,,,,,,,,,,"[""blueberry.png""]","[""praline.png""]",,,,3,,,false,,1,,,,,,,142029,142028,141458,141536,141541,142044,,,,
choice,canvas.Screen,2_4_2_6_1_0_0_0_0_4_2,2021-05-24T15:24:24.281Z,,,blank.png,blank.png,blank.png,blank.png,blank.png,blank.png,blank.png,"[""praline.png""]",blank.png,blank.png,blank.png,blank.png,blank.png,,,,,,,,,,,,,,,,,,,,,,,,,,,,,"[""praline.png""]","[""blueberry.png""]",PB18.png,,,,,,,,,,,0,6,"[""blueberry.png""]","[""blueberry.png""]","[""blueberry.png""]","[""blueberry.png""]","[""blueberry.png""]","[""blueberry.png""]",blank.png,PB18.png,PB15.png,"[""blueberry.png""]","[""blueberry.png""]","[""blueberry.png""]","[""blueberry.png""]","[""blueberry.png""]","[""blueberry.png""]","[""blueberry.png""]","[""blueberry.png""]","[""blueberry.png""]","[""blueberry.png""]",blank.png,blank.png,1,"[""praline.png""]",blank.png,blank.png,blank.png,4,"[""blueberry.png""]","[""blueberry.png""]","[""blueberry.png""]","[""blueberry.png""]",blank.png,blank.png,PB15.png,,,,,,,,,,,1,,,,,,,,,,,,,191,,response,,,,,,,,,,,,,4,,,,,,,,,,,,,,,,,,,,,,,,,,,,,,,,,,,,,,,,,,,,,,,,,,,,,,,,,"[""blueberry.png""]","[""praline.png""]",,,,3,right,keydown(ArrowRight),false,,1,,,,,,,142223,142219,142028,142031,142044,142250,,5,,
square,canvas.Screen,2_4_2_6_1_0_0_0_0_4_3,2021-05-24T15:24:25.294Z,,,blank.png,blank.png,blank.png,blank.png,blank.png,blank.png,blank.png,"[""praline.png""]",blank.png,blank.png,blank.png,blank.png,blank.png,,,,,,,,,,,,,,,,,,,,,,,,,,,,,"[""praline.png""]","[""blueberry.png""]",PB18.png,,,,,,,,,,,0,6,"[""blueberry.png""]","[""blueberry.png""]","[""blueberry.png""]","[""blueberry.png""]","[""blueberry.png""]","[""blueberry.png""]",blank.png,PB18.png,PB15.png,"[""blueberry.png""]","[""blueberry.png""]","[""blueberry.png""]","[""blueberry.png""]","[""blueberry.png""]","[""blueberry.png""]","[""blueberry.png""]","[""blueberry.png""]","[""blueberry.png""]","[""blueberry.png""]",blank.png,blank.png,1,"[""praline.png""]",blank.png,blank.png,blank.png,4,"[""blueberry.png""]","[""blueberry.png""]","[""blueberry.png""]","[""blueberry.png""]",blank.png,blank.png,PB15.png,,,,,,,,,,,1,,,#808080,#33ff3f,,,,,,,,,1003,,timeout,,,,,,,,,,,,,4,,,,,,,,,,,,,,,,,,,,,,,,,,,,,,,,,,,,,,,,,,,,,,,,,,,,,,,,,"[""blueberry.png""]","[""praline.png""]",,,,3,,,false,,1,,,,,white,black,143237,143236,142234,142226,142250,143253,,,,
ITI_late,canvas.Screen,2_4_2_6_1_0_0_0_0_4_4,2021-05-24T15:24:26.298Z,,,blank.png,blank.png,blank.png,blank.png,blank.png,blank.png,blank.png,"[""praline.png""]",blank.png,blank.png,blank.png,blank.png,blank.png,,,,,,,,,,,,,,,,,,,,,,,,,,,,,"[""praline.png""]","[""blueberry.png""]",PB18.png,,,,,,,,,,,0,6,"[""blueberry.png""]","[""blueberry.png""]","[""blueberry.png""]","[""blueberry.png""]","[""blueberry.png""]","[""blueberry.png""]",blank.png,PB18.png,PB15.png,"[""blueberry.png""]","[""blueberry.png""]","[""blueberry.png""]","[""blueberry.png""]","[""blueberry.png""]","[""blueberry.png""]","[""blueberry.png""]","[""blueberry.png""]","[""blueberry.png""]","[""blueberry.png""]",blank.png,blank.png,1,"[""praline.png""]",blank.png,blank.png,blank.png,4,"[""blueberry.png""]","[""blueberry.png""]","[""blueberry.png""]","[""blueberry.png""]",blank.png,blank.png,PB15.png,,,,,,,,,,,1,,,,,,,,,,,,,1004,,timeout,,,,,,,,,,,,white,4,,,,,,,,,,,,,,,,,,,,,,,,,,,,,,,,,,,,,,,,,,,,,,,,,,,,,,,,,"[""blueberry.png""]","[""praline.png""]",,,,3,,,false,,1,,,,,,,144241,144240,143236,143238,143253,144257,,,,
choice_sequence,flow.Sequence,2_4_2_6_1_0_0_0_0_4,2021-05-24T15:24:26.299Z,,,blank.png,blank.png,blank.png,blank.png,blank.png,blank.png,blank.png,"[""praline.png""]",blank.png,blank.png,blank.png,blank.png,blank.png,,,,,,,,,,,,,,,,,,,,,,,,,,,,,"[""praline.png""]","[""blueberry.png""]",PB18.png,,,,,,,,,,,0,6,"[""blueberry.png""]","[""blueberry.png""]","[""blueberry.png""]","[""blueberry.png""]","[""blueberry.png""]","[""blueberry.png""]",blank.png,PB18.png,PB15.png,"[""blueberry.png""]","[""blueberry.png""]","[""blueberry.png""]","[""blueberry.png""]","[""blueberry.png""]","[""blueberry.png""]","[""blueberry.png""]","[""blueberry.png""]","[""blueberry.png""]","[""blueberry.png""]",blank.png,blank.png,1,"[""praline.png""]",blank.png,blank.png,blank.png,4,"[""blueberry.png""]","[""blueberry.png""]","[""blueberry.png""]","[""blueberry.png""]",blank.png,blank.png,PB15.png,,,,,,,,,,,1,,,,,,,,,,,,,3121,,completion,,,,,,,,,,,,,4,,,,,,,,,,,,,,,,,,,,,,,,,,,,,,,,,,,,,,,,,,,,,,,,,,,,,,,,,"[""blueberry.png""]","[""praline.png""]",,,,3,,,false,,1,,,,,,,144241,144240,141103,141105,141119,144257,,,,
fixCross,canvas.Screen,2_4_2_6_1_0_0_0_0_5_0,2021-05-24T15:24:26.852Z,,,blank.png,"[""praline.png""]",blank.png,blank.png,blank.png,blank.png,blank.png,blank.png,blank.png,blank.png,blank.png,blank.png,blank.png,,,,,,,,,,,,,,,,,,,,,,,,,,,,,"[""praline.png""]","[""blueberry.png""]",PB01.png,,,,,,,,,,,0,6,"[""blueberry.png""]","[""blueberry.png""]","[""blueberry.png""]","[""blueberry.png""]","[""blueberry.png""]","[""blueberry.png""]",blank.png,PB18.png,PB18.png,blank.png,blank.png,blank.png,blank.png,blank.png,blank.png,"[""blueberry.png""]","[""blueberry.png""]","[""blueberry.png""]","[""blueberry.png""]","[""blueberry.png""]","[""blueberry.png""]",1,"[""praline.png""]",blank.png,blank.png,blank.png,0,blank.png,blank.png,blank.png,blank.png,blank.png,blank.png,PB01.png,,,,,,,,,,,1,,,,,,,,,,,,,587,,timeout,,,,,,,,,,,,,3,,,,,,,,,,,,,,,,,,,,,,,,,,,,,,,,,,,,,,,,,,,,,,,,,,,,,,,,,"[""blueberry.png""]","[""praline.png""]",,,,3,,,false,,1,,,,,,,144795.00000000003,144794,144240,144243,144257,144844,6,,,
timeout,canvas.Screen,2_4_2_6_1_0_0_0_0_5_1,2021-05-24T15:24:27.390Z,,,blank.png,"[""praline.png""]",blank.png,blank.png,blank.png,blank.png,blank.png,blank.png,blank.png,blank.png,blank.png,blank.png,blank.png,,,,,,,,,,,,,,,,,,,,,,,,,,,,,"[""praline.png""]","[""blueberry.png""]",PB01.png,,,,,,,,,,,0,6,"[""blueberry.png""]","[""blueberry.png""]","[""blueberry.png""]","[""blueberry.png""]","[""blueberry.png""]","[""blueberry.png""]",blank.png,PB18.png,PB18.png,blank.png,blank.png,blank.png,blank.png,blank.png,blank.png,"[""blueberry.png""]","[""blueberry.png""]","[""blueberry.png""]","[""blueberry.png""]","[""blueberry.png""]","[""blueberry.png""]",1,"[""praline.png""]",blank.png,blank.png,blank.png,0,blank.png,blank.png,blank.png,blank.png,blank.png,blank.png,PB01.png,,,,,,,,,,,1,,,,,,,,,,,,,505,,timeout,,,,,,,,,,,,,3,,,,,,,,,,,,,,,,,,,,,,,,,,,,,,,,,,,,,,,,,,,,,,,,,,,,,,,,,"[""blueberry.png""]","[""praline.png""]",,,,3,,,false,,1,,,,,,,145333,145332,144794,144842,144844,145349,,,,
choice,canvas.Screen,2_4_2_6_1_0_0_0_0_5_2,2021-05-24T15:24:27.712Z,,,blank.png,"[""praline.png""]",blank.png,blank.png,blank.png,blank.png,blank.png,blank.png,blank.png,blank.png,blank.png,blank.png,blank.png,,,,,,,,,,,,,,,,,,,,,,,,,,,,,"[""praline.png""]","[""blueberry.png""]",PB01.png,,,,,,,,,,,0,6,"[""blueberry.png""]","[""blueberry.png""]","[""blueberry.png""]","[""blueberry.png""]","[""blueberry.png""]","[""blueberry.png""]",blank.png,PB18.png,PB18.png,blank.png,blank.png,blank.png,blank.png,blank.png,blank.png,"[""blueberry.png""]","[""blueberry.png""]","[""blueberry.png""]","[""blueberry.png""]","[""blueberry.png""]","[""blueberry.png""]",1,"[""praline.png""]",blank.png,blank.png,blank.png,0,blank.png,blank.png,blank.png,blank.png,blank.png,blank.png,PB01.png,,,,,,,,,,,1,,,,,,,,,,,,,317,,response,,,,,,,,,,,,,3,,,,,,,,,,,,,,,,,,,,,,,,,,,,,,,,,,,,,,,,,,,,,,,,,,,,,,,,,"[""blueberry.png""]","[""praline.png""]",,,,3,left,keydown(ArrowLeft),false,,1,,,,,,,145654,145649,145332,145335,145349,145687,,6,,
square,canvas.Screen,2_4_2_6_1_0_0_0_0_5_3,2021-05-24T15:24:28.734Z,,,blank.png,"[""praline.png""]",blank.png,blank.png,blank.png,blank.png,blank.png,blank.png,blank.png,blank.png,blank.png,blank.png,blank.png,,,,,,,,,,,,,,,,,,,,,,,,,,,,,"[""praline.png""]","[""blueberry.png""]",PB01.png,,,,,,,,,,,0,6,"[""blueberry.png""]","[""blueberry.png""]","[""blueberry.png""]","[""blueberry.png""]","[""blueberry.png""]","[""blueberry.png""]",blank.png,PB18.png,PB18.png,blank.png,blank.png,blank.png,blank.png,blank.png,blank.png,"[""blueberry.png""]","[""blueberry.png""]","[""blueberry.png""]","[""blueberry.png""]","[""blueberry.png""]","[""blueberry.png""]",1,"[""praline.png""]",blank.png,blank.png,blank.png,0,blank.png,blank.png,blank.png,blank.png,blank.png,blank.png,PB01.png,,,,,,,,,,,1,,,#33ff3f,#808080,,,,,,,,,1005,,timeout,,,,,,,,,,,,,3,,,,,,,,,,,,,,,,,,,,,,,,,,,,,,,,,,,,,,,,,,,,,,,,,,,,,,,,,"[""blueberry.png""]","[""praline.png""]",,,,3,,,false,,1,,,,,black,white,146677,146676,145670,145657,145687,146692,,,,
ITI_late,canvas.Screen,2_4_2_6_1_0_0_0_0_5_4,2021-05-24T15:24:29.988Z,,,blank.png,"[""praline.png""]",blank.png,blank.png,blank.png,blank.png,blank.png,blank.png,blank.png,blank.png,blank.png,blank.png,blank.png,,,,,,,,,,,,,,,,,,,,,,,,,,,,,"[""praline.png""]","[""blueberry.png""]",PB01.png,,,,,,,,,,,0,6,"[""blueberry.png""]","[""blueberry.png""]","[""blueberry.png""]","[""blueberry.png""]","[""blueberry.png""]","[""blueberry.png""]",blank.png,PB18.png,PB18.png,blank.png,blank.png,blank.png,blank.png,blank.png,blank.png,"[""blueberry.png""]","[""blueberry.png""]","[""blueberry.png""]","[""blueberry.png""]","[""blueberry.png""]","[""blueberry.png""]",1,"[""praline.png""]",blank.png,blank.png,blank.png,0,blank.png,blank.png,blank.png,blank.png,blank.png,blank.png,PB01.png,,,,,,,,,,,1,,,,,,,,,,,,,1254,,timeout,,,,,,,,,,,,white,3,,,,,,,,,,,,,,,,,,,,,,,,,,,,,,,,,,,,,,,,,,,,,,,,,,,,,,,,,"[""blueberry.png""]","[""praline.png""]",,,,3,,,false,,1,,,,,,,147930,147930,146676,146678,146692,147946,,,,
choice_sequence,flow.Sequence,2_4_2_6_1_0_0_0_0_5,2021-05-24T15:24:29.988Z,,,blank.png,"[""praline.png""]",blank.png,blank.png,blank.png,blank.png,blank.png,blank.png,blank.png,blank.png,blank.png,blank.png,blank.png,,,,,,,,,,,,,,,,,,,,,,,,,,,,,"[""praline.png""]","[""blueberry.png""]",PB01.png,,,,,,,,,,,0,6,"[""blueberry.png""]","[""blueberry.png""]","[""blueberry.png""]","[""blueberry.png""]","[""blueberry.png""]","[""blueberry.png""]",blank.png,PB18.png,PB18.png,blank.png,blank.png,blank.png,blank.png,blank.png,blank.png,"[""blueberry.png""]","[""blueberry.png""]","[""blueberry.png""]","[""blueberry.png""]","[""blueberry.png""]","[""blueberry.png""]",1,"[""praline.png""]",blank.png,blank.png,blank.png,0,blank.png,blank.png,blank.png,blank.png,blank.png,blank.png,PB01.png,,,,,,,,,,,1,,,,,,,,,,,,,3673,,completion,,,,,,,,,,,,,3,,,,,,,,,,,,,,,,,,,,,,,,,,,,,,,,,,,,,,,,,,,,,,,,,,,,,,,,,"[""blueberry.png""]","[""praline.png""]",,,,3,,,false,,1,,,,,,,147931,147930,144240,144243,144257,147946,,,,
fixCross,canvas.Screen,2_4_2_6_1_0_0_0_0_6_0,2021-05-24T15:24:30.443Z,,,blank.png,"[""praline.png""]",blank.png,blank.png,blank.png,blank.png,blank.png,blank.png,blank.png,blank.png,blank.png,blank.png,blank.png,,,,,,,,,,,,,,,,,,,,,,,,,,,,,"[""praline.png""]","[""blueberry.png""]",PB16.png,,,,,,,,,,,0,6,"[""blueberry.png""]","[""blueberry.png""]","[""blueberry.png""]","[""blueberry.png""]","[""blueberry.png""]","[""blueberry.png""]",blank.png,PB18.png,PB18.png,"[""blueberry.png""]","[""blueberry.png""]","[""blueberry.png""]","[""blueberry.png""]","[""blueberry.png""]",blank.png,"[""blueberry.png""]","[""blueberry.png""]","[""blueberry.png""]","[""blueberry.png""]","[""blueberry.png""]","[""blueberry.png""]",1,"[""praline.png""]",blank.png,blank.png,blank.png,5,"[""blueberry.png""]","[""blueberry.png""]","[""blueberry.png""]","[""blueberry.png""]","[""blueberry.png""]",blank.png,PB16.png,,,,,,,,,,,1,,,,,,,,,,,,,522,,timeout,,,,,,,,,,,,,3,,,,,,,,,,,,,,,,,,,,,,,,,,,,,,,,,,,,,,,,,,,,,,,,,,,,,,,,,"[""blueberry.png""]","[""praline.png""]",,,,3,,,false,,1,,,,,,,148386,148385,147930,147933,147946,148468,7,,,
timeout,canvas.Screen,2_4_2_6_1_0_0_0_0_6_1,2021-05-24T15:24:31.013Z,,,blank.png,"[""praline.png""]",blank.png,blank.png,blank.png,blank.png,blank.png,blank.png,blank.png,blank.png,blank.png,blank.png,blank.png,,,,,,,,,,,,,,,,,,,,,,,,,,,,,"[""praline.png""]","[""blueberry.png""]",PB16.png,,,,,,,,,,,0,6,"[""blueberry.png""]","[""blueberry.png""]","[""blueberry.png""]","[""blueberry.png""]","[""blueberry.png""]","[""blueberry.png""]",blank.png,PB18.png,PB18.png,"[""blueberry.png""]","[""blueberry.png""]","[""blueberry.png""]","[""blueberry.png""]","[""blueberry.png""]",blank.png,"[""blueberry.png""]","[""blueberry.png""]","[""blueberry.png""]","[""blueberry.png""]","[""blueberry.png""]","[""blueberry.png""]",1,"[""praline.png""]",blank.png,blank.png,blank.png,5,"[""blueberry.png""]","[""blueberry.png""]","[""blueberry.png""]","[""blueberry.png""]","[""blueberry.png""]",blank.png,PB16.png,,,,,,,,,,,1,,,,,,,,,,,,,504,,timeout,,,,,,,,,,,,,3,,,,,,,,,,,,,,,,,,,,,,,,,,,,,,,,,,,,,,,,,,,,,,,,,,,,,,,,,"[""blueberry.png""]","[""praline.png""]",,,,3,,,false,,1,,,,,,,148956.00000000003,148955,148385,148456.00000000003,148468,148972,,,,
choice,canvas.Screen,2_4_2_6_1_0_0_0_0_6_2,2021-05-24T15:24:32.241Z,,,blank.png,"[""praline.png""]",blank.png,blank.png,blank.png,blank.png,blank.png,blank.png,blank.png,blank.png,blank.png,blank.png,blank.png,,,,,,,,,,,,,,,,,,,,,,,,,,,,,"[""praline.png""]","[""blueberry.png""]",PB16.png,,,,,,,,,,,0,6,"[""blueberry.png""]","[""blueberry.png""]","[""blueberry.png""]","[""blueberry.png""]","[""blueberry.png""]","[""blueberry.png""]",blank.png,PB18.png,PB18.png,"[""blueberry.png""]","[""blueberry.png""]","[""blueberry.png""]","[""blueberry.png""]","[""blueberry.png""]",blank.png,"[""blueberry.png""]","[""blueberry.png""]","[""blueberry.png""]","[""blueberry.png""]","[""blueberry.png""]","[""blueberry.png""]",1,"[""praline.png""]",blank.png,blank.png,blank.png,5,"[""blueberry.png""]","[""blueberry.png""]","[""blueberry.png""]","[""blueberry.png""]","[""blueberry.png""]",blank.png,PB16.png,,,,,,,,,,,1,,,,,,,,,,,,,1224,,response,,,,,,,,,,,,,3,,,,,,,,,,,,,,,,,,,,,,,,,,,,,,,,,,,,,,,,,,,,,,,,,,,,,,,,,"[""blueberry.png""]","[""praline.png""]",,,,3,left,keydown(ArrowLeft),false,,1,,,,,,,150183,150179,148955,148958,148972,150226,,7,,
square,canvas.Screen,2_4_2_6_1_0_0_0_0_6_3,2021-05-24T15:24:33.271Z,,,blank.png,"[""praline.png""]",blank.png,blank.png,blank.png,blank.png,blank.png,blank.png,blank.png,blank.png,blank.png,blank.png,blank.png,,,,,,,,,,,,,,,,,,,,,,,,,,,,,"[""praline.png""]","[""blueberry.png""]",PB16.png,,,,,,,,,,,0,6,"[""blueberry.png""]","[""blueberry.png""]","[""blueberry.png""]","[""blueberry.png""]","[""blueberry.png""]","[""blueberry.png""]",blank.png,PB18.png,PB18.png,"[""blueberry.png""]","[""blueberry.png""]","[""blueberry.png""]","[""blueberry.png""]","[""blueberry.png""]",blank.png,"[""blueberry.png""]","[""blueberry.png""]","[""blueberry.png""]","[""blueberry.png""]","[""blueberry.png""]","[""blueberry.png""]",1,"[""praline.png""]",blank.png,blank.png,blank.png,5,"[""blueberry.png""]","[""blueberry.png""]","[""blueberry.png""]","[""blueberry.png""]","[""blueberry.png""]",blank.png,PB16.png,,,,,,,,,,,1,,,#33ff3f,#808080,,,,,,,,,1004,,timeout,,,,,,,,,,,,,3,,,,,,,,,,,,,,,,,,,,,,,,,,,,,,,,,,,,,,,,,,,,,,,,,,,,,,,,,"[""blueberry.png""]","[""praline.png""]",,,,3,,,false,,1,,,,,black,white,151213,151213,150210,150185,150226,151230,,,,
ITI_late,canvas.Screen,2_4_2_6_1_0_0_0_0_6_4,2021-05-24T15:24:33.777Z,,,blank.png,"[""praline.png""]",blank.png,blank.png,blank.png,blank.png,blank.png,blank.png,blank.png,blank.png,blank.png,blank.png,blank.png,,,,,,,,,,,,,,,,,,,,,,,,,,,,,"[""praline.png""]","[""blueberry.png""]",PB16.png,,,,,,,,,,,0,6,"[""blueberry.png""]","[""blueberry.png""]","[""blueberry.png""]","[""blueberry.png""]","[""blueberry.png""]","[""blueberry.png""]",blank.png,PB18.png,PB18.png,"[""blueberry.png""]","[""blueberry.png""]","[""blueberry.png""]","[""blueberry.png""]","[""blueberry.png""]",blank.png,"[""blueberry.png""]","[""blueberry.png""]","[""blueberry.png""]","[""blueberry.png""]","[""blueberry.png""]","[""blueberry.png""]",1,"[""praline.png""]",blank.png,blank.png,blank.png,5,"[""blueberry.png""]","[""blueberry.png""]","[""blueberry.png""]","[""blueberry.png""]","[""blueberry.png""]",blank.png,PB16.png,,,,,,,,,,,1,,,,,,,,,,,,,518,,timeout,,,,,,,,,,,,white,3,,,,,,,,,,,,,,,,,,,,,,,,,,,,,,,,,,,,,,,,,,,,,,,,,,,,,,,,,"[""blueberry.png""]","[""praline.png""]",,,,3,,,false,,1,,,,,,,151720,151719,151213,151214,151230,151748,,,,
choice_sequence,flow.Sequence,2_4_2_6_1_0_0_0_0_6,2021-05-24T15:24:33.778Z,,,blank.png,"[""praline.png""]",blank.png,blank.png,blank.png,blank.png,blank.png,blank.png,blank.png,blank.png,blank.png,blank.png,blank.png,,,,,,,,,,,,,,,,,,,,,,,,,,,,,"[""praline.png""]","[""blueberry.png""]",PB16.png,,,,,,,,,,,0,6,"[""blueberry.png""]","[""blueberry.png""]","[""blueberry.png""]","[""blueberry.png""]","[""blueberry.png""]","[""blueberry.png""]",blank.png,PB18.png,PB18.png,"[""blueberry.png""]","[""blueberry.png""]","[""blueberry.png""]","[""blueberry.png""]","[""blueberry.png""]",blank.png,"[""blueberry.png""]","[""blueberry.png""]","[""blueberry.png""]","[""blueberry.png""]","[""blueberry.png""]","[""blueberry.png""]",1,"[""praline.png""]",blank.png,blank.png,blank.png,5,"[""blueberry.png""]","[""blueberry.png""]","[""blueberry.png""]","[""blueberry.png""]","[""blueberry.png""]",blank.png,PB16.png,,,,,,,,,,,1,,,,,,,,,,,,,3773,,completion,,,,,,,,,,,,,3,,,,,,,,,,,,,,,,,,,,,,,,,,,,,,,,,,,,,,,,,,,,,,,,,,,,,,,,,"[""blueberry.png""]","[""praline.png""]",,,,3,,,false,,1,,,,,,,151720,151719,147930,147932.00000000003,147946,151748,,,,
choice_loop,flow.Loop,2_4_2_6_1_0_0_0_0,2021-05-24T15:24:33.778Z,,,,,,,,,,,,,,,,,,,,,,,,,,,,,,,,,,,,,,,,,,,,"[""praline.png""]","[""blueberry.png""]",,,,,,,,,,,,,,,,,,,,,,,,,,,,,,,,,,,,,,,,,,,,,,,,,,,,,,,,,,,,,,,,,,,,,,,28932,,completion,,,,,,,,,,,,,,,,,,,,,,,,,,,,,,,,,,,,,,,,,,,,,,,,,,,,,,,,,,,,,,,,,,,,,,"[""blueberry.png""]","[""praline.png""]",,,,3,,,false,,,,,,,,,151721,151719,122757,122771,122787,151748,,,,
choice_frame,html.Frame,2_4_2_6_1_0_0_0,2021-05-24T15:24:33.779Z,,,,,,,,,,,,,,,,,,,,,,,,,,,,,,,,,,,,,,,,,,,,,,,,,,,,,,,,,,,,,,,,,,,,,,,,,,,,,,,,,,,,,,,,,,,,,,,,,,,,,,,,,,,,,,,,,,,,28934,,,,,,,,,,,,,,,,,,,,,,,,,,,,,,,,,,,,,,,,,,,,,,,,,,,,,,,,,,,,,,,,,,,,,,,,,,,,,3,,,false,,,,,,,,,151721,151721,122757,122757,122787,151755,,,,
sublock_1,flow.Sequence,2_4_2_6_1_0_0,2021-05-24T15:24:33.779Z,,,,,,,,,,,,,,,,,,,,,,,,,,,,,,,,,,,,,,,,,,,,,,,,,,,,,,,,,,,,,,,,,,,,,,,,,,,,,,,,,,,,,,,,,,,,,,,,,,,,,,,,,,,,,,,,,,,,28934,,completion,,,,,,,,,,,,,,,,,,,,,,,,,,,,,,,,,,,,,,,,,,,,,,,,,,,,,,,,,,,,,,,,,,,,,,,,,,,3,,,false,,,,,,,,,151722,151721,122757,122757,122787,151755,,,,
fixCross,canvas.Screen,2_4_2_6_1_0_1_0_0_0_0,2021-05-24T15:24:34.447Z,,,blank.png,blank.png,blank.png,blank.png,blank.png,blank.png,blank.png,"[""praline.png""]",blank.png,blank.png,blank.png,blank.png,blank.png,,,,,,,,,,,,,,,,,,,,,,,,,,,,,"[""praline.png""]","[""blueberry.png""]",PB18.png,,,,,,,,,,,0,6,"[""blueberry.png""]","[""blueberry.png""]","[""blueberry.png""]","[""blueberry.png""]","[""blueberry.png""]","[""blueberry.png""]",blank.png,PB18.png,PB14.png,"[""blueberry.png""]","[""blueberry.png""]","[""blueberry.png""]","[""blueberry.png""]","[""blueberry.png""]","[""blueberry.png""]","[""blueberry.png""]","[""blueberry.png""]","[""blueberry.png""]",blank.png,blank.png,blank.png,1,"[""praline.png""]",blank.png,blank.png,blank.png,3,"[""blueberry.png""]","[""blueberry.png""]","[""blueberry.png""]",blank.png,blank.png,blank.png,PB14.png,,,,,,,,,,,1,,,,,,,,,,,,,652,,timeout,,,,,,,,,,,,,4,,,,,,,,,,,,,,,,,,,,,,,,,,,,,,,,,,,,,,,,,,,,,,,,,,,,,,,,,"[""blueberry.png""]","[""praline.png""]",,,,6,,,false,,1,,,,,,,152389,152389,151748,151736,151755,152407,8,,,
timeout,canvas.Screen,2_4_2_6_1_0_1_0_0_0_1,2021-05-24T15:24:34.951Z,,,blank.png,blank.png,blank.png,blank.png,blank.png,blank.png,blank.png,"[""praline.png""]",blank.png,blank.png,blank.png,blank.png,blank.png,,,,,,,,,,,,,,,,,,,,,,,,,,,,,"[""praline.png""]","[""blueberry.png""]",PB18.png,,,,,,,,,,,0,6,"[""blueberry.png""]","[""blueberry.png""]","[""blueberry.png""]","[""blueberry.png""]","[""blueberry.png""]","[""blueberry.png""]",blank.png,PB18.png,PB14.png,"[""blueberry.png""]","[""blueberry.png""]","[""blueberry.png""]","[""blueberry.png""]","[""blueberry.png""]","[""blueberry.png""]","[""blueberry.png""]","[""blueberry.png""]","[""blueberry.png""]",blank.png,blank.png,blank.png,1,"[""praline.png""]",blank.png,blank.png,blank.png,3,"[""blueberry.png""]","[""blueberry.png""]","[""blueberry.png""]",blank.png,blank.png,blank.png,PB14.png,,,,,,,,,,,1,,,,,,,,,,,,,502,,timeout,,,,,,,,,,,,,4,,,,,,,,,,,,,,,,,,,,,,,,,,,,,,,,,,,,,,,,,,,,,,,,,,,,,,,,,"[""blueberry.png""]","[""praline.png""]",,,,6,,,false,,1,,,,,,,152893,152892,152389,152392,152407,152909,,,,
choice,canvas.Screen,2_4_2_6_1_0_1_0_0_0_2,2021-05-24T15:24:35.346Z,,,blank.png,blank.png,blank.png,blank.png,blank.png,blank.png,blank.png,"[""praline.png""]",blank.png,blank.png,blank.png,blank.png,blank.png,,,,,,,,,,,,,,,,,,,,,,,,,,,,,"[""praline.png""]","[""blueberry.png""]",PB18.png,,,,,,,,,,,0,6,"[""blueberry.png""]","[""blueberry.png""]","[""blueberry.png""]","[""blueberry.png""]","[""blueberry.png""]","[""blueberry.png""]",blank.png,PB18.png,PB14.png,"[""blueberry.png""]","[""blueberry.png""]","[""blueberry.png""]","[""blueberry.png""]","[""blueberry.png""]","[""blueberry.png""]","[""blueberry.png""]","[""blueberry.png""]","[""blueberry.png""]",blank.png,blank.png,blank.png,1,"[""praline.png""]",blank.png,blank.png,blank.png,3,"[""blueberry.png""]","[""blueberry.png""]","[""blueberry.png""]",blank.png,blank.png,blank.png,PB14.png,,,,,,,,,,,1,,,,,,,,,,,,,393,,response,,,,,,,,,,,,,4,,,,,,,,,,,,,,,,,,,,,,,,,,,,,,,,,,,,,,,,,,,,,,,,,,,,,,,,,"[""blueberry.png""]","[""praline.png""]",,,,6,right,keydown(ArrowRight),false,,1,,,,,,,153289.00000000003,153285,152892,152897,152909,153328,,8,,
square,canvas.Screen,2_4_2_6_1_0_1_0_0_0_3,2021-05-24T15:24:36.375Z,,,blank.png,blank.png,blank.png,blank.png,blank.png,blank.png,blank.png,"[""praline.png""]",blank.png,blank.png,blank.png,blank.png,blank.png,,,,,,,,,,,,,,,,,,,,,,,,,,,,,"[""praline.png""]","[""blueberry.png""]",PB18.png,,,,,,,,,,,0,6,"[""blueberry.png""]","[""blueberry.png""]","[""blueberry.png""]","[""blueberry.png""]","[""blueberry.png""]","[""blueberry.png""]",blank.png,PB18.png,PB14.png,"[""blueberry.png""]","[""blueberry.png""]","[""blueberry.png""]","[""blueberry.png""]","[""blueberry.png""]","[""blueberry.png""]","[""blueberry.png""]","[""blueberry.png""]","[""blueberry.png""]",blank.png,blank.png,blank.png,1,"[""praline.png""]",blank.png,blank.png,blank.png,3,"[""blueberry.png""]","[""blueberry.png""]","[""blueberry.png""]",blank.png,blank.png,blank.png,PB14.png,,,,,,,,,,,1,,,#808080,#33ff3f,,,,,,,,,1006,,timeout,,,,,,,,,,,,,4,,,,,,,,,,,,,,,,,,,,,,,,,,,,,,,,,,,,,,,,,,,,,,,,,,,,,,,,,"[""blueberry.png""]","[""praline.png""]",,,,6,,,false,,1,,,,,white,black,154317,154317,153312,153291,153328,154334,,,,
ITI_late,canvas.Screen,2_4_2_6_1_0_1_0_0_0_4,2021-05-24T15:24:37.630Z,,,blank.png,blank.png,blank.png,blank.png,blank.png,blank.png,blank.png,"[""praline.png""]",blank.png,blank.png,blank.png,blank.png,blank.png,,,,,,,,,,,,,,,,,,,,,,,,,,,,,"[""praline.png""]","[""blueberry.png""]",PB18.png,,,,,,,,,,,0,6,"[""blueberry.png""]","[""blueberry.png""]","[""blueberry.png""]","[""blueberry.png""]","[""blueberry.png""]","[""blueberry.png""]",blank.png,PB18.png,PB14.png,"[""blueberry.png""]","[""blueberry.png""]","[""blueberry.png""]","[""blueberry.png""]","[""blueberry.png""]","[""blueberry.png""]","[""blueberry.png""]","[""blueberry.png""]","[""blueberry.png""]",blank.png,blank.png,blank.png,1,"[""praline.png""]",blank.png,blank.png,blank.png,3,"[""blueberry.png""]","[""blueberry.png""]","[""blueberry.png""]",blank.png,blank.png,blank.png,PB14.png,,,,,,,,,,,1,,,,,,,,,,,,,1254,,timeout,,,,,,,,,,,,white,4,,,,,,,,,,,,,,,,,,,,,,,,,,,,,,,,,,,,,,,,,,,,,,,,,,,,,,,,,"[""blueberry.png""]","[""praline.png""]",,,,6,,,false,,1,,,,,,,155572,155572,154317,154318,154334,155588,,,,
choice_sequence,flow.Sequence,2_4_2_6_1_0_1_0_0_0,2021-05-24T15:24:37.630Z,,,blank.png,blank.png,blank.png,blank.png,blank.png,blank.png,blank.png,"[""praline.png""]",blank.png,blank.png,blank.png,blank.png,blank.png,,,,,,,,,,,,,,,,,,,,,,,,,,,,,"[""praline.png""]","[""blueberry.png""]",PB18.png,,,,,,,,,,,0,6,"[""blueberry.png""]","[""blueberry.png""]","[""blueberry.png""]","[""blueberry.png""]","[""blueberry.png""]","[""blueberry.png""]",blank.png,PB18.png,PB14.png,"[""blueberry.png""]","[""blueberry.png""]","[""blueberry.png""]","[""blueberry.png""]","[""blueberry.png""]","[""blueberry.png""]","[""blueberry.png""]","[""blueberry.png""]","[""blueberry.png""]",blank.png,blank.png,blank.png,1,"[""praline.png""]",blank.png,blank.png,blank.png,3,"[""blueberry.png""]","[""blueberry.png""]","[""blueberry.png""]",blank.png,blank.png,blank.png,PB14.png,,,,,,,,,,,1,,,,,,,,,,,,,3817,,completion,,,,,,,,,,,,,4,,,,,,,,,,,,,,,,,,,,,,,,,,,,,,,,,,,,,,,,,,,,,,,,,,,,,,,,,"[""blueberry.png""]","[""praline.png""]",,,,6,,,false,,1,,,,,,,155573,155572,151748,151736,151755,155588,,,,
fixCross,canvas.Screen,2_4_2_6_1_0_1_0_0_1_0,2021-05-24T15:24:38.335Z,,,blank.png,"[""praline.png""]",blank.png,blank.png,blank.png,blank.png,blank.png,blank.png,blank.png,blank.png,blank.png,blank.png,blank.png,,,,,,,,,,,,,,,,,,,,,,,,,,,,,"[""praline.png""]","[""blueberry.png""]",PB16.png,,,,,,,,,,,0,6,"[""blueberry.png""]","[""blueberry.png""]","[""blueberry.png""]","[""blueberry.png""]","[""blueberry.png""]","[""blueberry.png""]",blank.png,PB18.png,PB18.png,"[""blueberry.png""]","[""blueberry.png""]","[""blueberry.png""]","[""blueberry.png""]","[""blueberry.png""]",blank.png,"[""blueberry.png""]","[""blueberry.png""]","[""blueberry.png""]","[""blueberry.png""]","[""blueberry.png""]","[""blueberry.png""]",1,"[""praline.png""]",blank.png,blank.png,blank.png,5,"[""blueberry.png""]","[""blueberry.png""]","[""blueberry.png""]","[""blueberry.png""]","[""blueberry.png""]",blank.png,PB16.png,,,,,,,,,,,1,,,,,,,,,,,,,706,,timeout,,,,,,,,,,,,,3,,,,,,,,,,,,,,,,,,,,,,,,,,,,,,,,,,,,,,,,,,,,,,,,,,,,,,,,,"[""blueberry.png""]","[""praline.png""]",,,,6,,,false,,1,,,,,,,156277.00000000003,156277,155572,155575.00000000003,155588,156294,9,,,
timeout,canvas.Screen,2_4_2_6_1_0_1_0_0_1_1,2021-05-24T15:24:38.839Z,,,blank.png,"[""praline.png""]",blank.png,blank.png,blank.png,blank.png,blank.png,blank.png,blank.png,blank.png,blank.png,blank.png,blank.png,,,,,,,,,,,,,,,,,,,,,,,,,,,,,"[""praline.png""]","[""blueberry.png""]",PB16.png,,,,,,,,,,,0,6,"[""blueberry.png""]","[""blueberry.png""]","[""blueberry.png""]","[""blueberry.png""]","[""blueberry.png""]","[""blueberry.png""]",blank.png,PB18.png,PB18.png,"[""blueberry.png""]","[""blueberry.png""]","[""blueberry.png""]","[""blueberry.png""]","[""blueberry.png""]",blank.png,"[""blueberry.png""]","[""blueberry.png""]","[""blueberry.png""]","[""blueberry.png""]","[""blueberry.png""]","[""blueberry.png""]",1,"[""praline.png""]",blank.png,blank.png,blank.png,5,"[""blueberry.png""]","[""blueberry.png""]","[""blueberry.png""]","[""blueberry.png""]","[""blueberry.png""]",blank.png,PB16.png,,,,,,,,,,,1,,,,,,,,,,,,,503,,timeout,,,,,,,,,,,,,3,,,,,,,,,,,,,,,,,,,,,,,,,,,,,,,,,,,,,,,,,,,,,,,,,,,,,,,,,"[""blueberry.png""]","[""praline.png""]",,,,6,,,false,,1,,,,,,,156781,156781,156277,156280,156294,156797,,,,
choice,canvas.Screen,2_4_2_6_1_0_1_0_0_1_2,2021-05-24T15:24:39.028Z,,,blank.png,"[""praline.png""]",blank.png,blank.png,blank.png,blank.png,blank.png,blank.png,blank.png,blank.png,blank.png,blank.png,blank.png,,,,,,,,,,,,,,,,,,,,,,,,,,,,,"[""praline.png""]","[""blueberry.png""]",PB16.png,,,,,,,,,,,0,6,"[""blueberry.png""]","[""blueberry.png""]","[""blueberry.png""]","[""blueberry.png""]","[""blueberry.png""]","[""blueberry.png""]",blank.png,PB18.png,PB18.png,"[""blueberry.png""]","[""blueberry.png""]","[""blueberry.png""]","[""blueberry.png""]","[""blueberry.png""]",blank.png,"[""blueberry.png""]","[""blueberry.png""]","[""blueberry.png""]","[""blueberry.png""]","[""blueberry.png""]","[""blueberry.png""]",1,"[""praline.png""]",blank.png,blank.png,blank.png,5,"[""blueberry.png""]","[""blueberry.png""]","[""blueberry.png""]","[""blueberry.png""]","[""blueberry.png""]",blank.png,PB16.png,,,,,,,,,,,1,,,,,,,,,,,,,185,,response,,,,,,,,,,,,,3,,,,,,,,,,,,,,,,,,,,,,,,,,,,,,,,,,,,,,,,,,,,,,,,,,,,,,,,,"[""blueberry.png""]","[""praline.png""]",,,,6,left,keydown(ArrowLeft),false,,1,,,,,,,156970,156966,156781,156783.00000000003,156797,157002,,9,,
square,canvas.Screen,2_4_2_6_1_0_1_0_0_1_3,2021-05-24T15:24:40.049Z,,,blank.png,"[""praline.png""]",blank.png,blank.png,blank.png,blank.png,blank.png,blank.png,blank.png,blank.png,blank.png,blank.png,blank.png,,,,,,,,,,,,,,,,,,,,,,,,,,,,,"[""praline.png""]","[""blueberry.png""]",PB16.png,,,,,,,,,,,0,6,"[""blueberry.png""]","[""blueberry.png""]","[""blueberry.png""]","[""blueberry.png""]","[""blueberry.png""]","[""blueberry.png""]",blank.png,PB18.png,PB18.png,"[""blueberry.png""]","[""blueberry.png""]","[""blueberry.png""]","[""blueberry.png""]","[""blueberry.png""]",blank.png,"[""blueberry.png""]","[""blueberry.png""]","[""blueberry.png""]","[""blueberry.png""]","[""blueberry.png""]","[""blueberry.png""]",1,"[""praline.png""]",blank.png,blank.png,blank.png,5,"[""blueberry.png""]","[""blueberry.png""]","[""blueberry.png""]","[""blueberry.png""]","[""blueberry.png""]",blank.png,PB16.png,,,,,,,,,,,1,,,#33ff3f,#808080,,,,,,,,,1004,,timeout,,,,,,,,,,,,,3,,,,,,,,,,,,,,,,,,,,,,,,,,,,,,,,,,,,,,,,,,,,,,,,,,,,,,,,,"[""blueberry.png""]","[""praline.png""]",,,,6,,,false,,1,,,,,black,white,157991,157990,156986,156973,157002,158006,,,,
ITI_late,canvas.Screen,2_4_2_6_1_0_1_0_0_1_4,2021-05-24T15:24:41.052Z,,,blank.png,"[""praline.png""]",blank.png,blank.png,blank.png,blank.png,blank.png,blank.png,blank.png,blank.png,blank.png,blank.png,blank.png,,,,,,,,,,,,,,,,,,,,,,,,,,,,,"[""praline.png""]","[""blueberry.png""]",PB16.png,,,,,,,,,,,0,6,"[""blueberry.png""]","[""blueberry.png""]","[""blueberry.png""]","[""blueberry.png""]","[""blueberry.png""]","[""blueberry.png""]",blank.png,PB18.png,PB18.png,"[""blueberry.png""]","[""blueberry.png""]","[""blueberry.png""]","[""blueberry.png""]","[""blueberry.png""]",blank.png,"[""blueberry.png""]","[""blueberry.png""]","[""blueberry.png""]","[""blueberry.png""]","[""blueberry.png""]","[""blueberry.png""]",1,"[""praline.png""]",blank.png,blank.png,blank.png,5,"[""blueberry.png""]","[""blueberry.png""]","[""blueberry.png""]","[""blueberry.png""]","[""blueberry.png""]",blank.png,PB16.png,,,,,,,,,,,1,,,,,,,,,,,,,1005,,timeout,,,,,,,,,,,,white,3,,,,,,,,,,,,,,,,,,,,,,,,,,,,,,,,,,,,,,,,,,,,,,,,,,,,,,,,,"[""blueberry.png""]","[""praline.png""]",,,,6,,,false,,1,,,,,,,158994,158994,157990,157992,158006,159011,,,,
choice_sequence,flow.Sequence,2_4_2_6_1_0_1_0_0_1,2021-05-24T15:24:41.053Z,,,blank.png,"[""praline.png""]",blank.png,blank.png,blank.png,blank.png,blank.png,blank.png,blank.png,blank.png,blank.png,blank.png,blank.png,,,,,,,,,,,,,,,,,,,,,,,,,,,,,"[""praline.png""]","[""blueberry.png""]",PB16.png,,,,,,,,,,,0,6,"[""blueberry.png""]","[""blueberry.png""]","[""blueberry.png""]","[""blueberry.png""]","[""blueberry.png""]","[""blueberry.png""]",blank.png,PB18.png,PB18.png,"[""blueberry.png""]","[""blueberry.png""]","[""blueberry.png""]","[""blueberry.png""]","[""blueberry.png""]",blank.png,"[""blueberry.png""]","[""blueberry.png""]","[""blueberry.png""]","[""blueberry.png""]","[""blueberry.png""]","[""blueberry.png""]",1,"[""praline.png""]",blank.png,blank.png,blank.png,5,"[""blueberry.png""]","[""blueberry.png""]","[""blueberry.png""]","[""blueberry.png""]","[""blueberry.png""]",blank.png,PB16.png,,,,,,,,,,,1,,,,,,,,,,,,,3406,,completion,,,,,,,,,,,,,3,,,,,,,,,,,,,,,,,,,,,,,,,,,,,,,,,,,,,,,,,,,,,,,,,,,,,,,,,"[""blueberry.png""]","[""praline.png""]",,,,6,,,false,,1,,,,,,,158995,158994,155572,155574,155588,159011,,,,
fixCross,canvas.Screen,2_4_2_6_1_0_1_0_0_2_0,2021-05-24T15:24:41.558Z,,,blank.png,blank.png,blank.png,blank.png,blank.png,blank.png,blank.png,"[""praline.png""]",blank.png,blank.png,blank.png,blank.png,blank.png,,,,,,,,,,,,,,,,,,,,,,,,,,,,,"[""praline.png""]","[""blueberry.png""]",PB18.png,,,,,,,,,,,0,6,"[""blueberry.png""]","[""blueberry.png""]","[""blueberry.png""]","[""blueberry.png""]","[""blueberry.png""]","[""blueberry.png""]",blank.png,PB18.png,PB17.png,"[""blueberry.png""]","[""blueberry.png""]","[""blueberry.png""]","[""blueberry.png""]","[""blueberry.png""]","[""blueberry.png""]","[""blueberry.png""]","[""blueberry.png""]","[""blueberry.png""]","[""blueberry.png""]","[""blueberry.png""]","[""blueberry.png""]",1,"[""praline.png""]",blank.png,blank.png,blank.png,6,"[""blueberry.png""]","[""blueberry.png""]","[""blueberry.png""]","[""blueberry.png""]","[""blueberry.png""]","[""blueberry.png""]",PB17.png,,,,,,,,,,,1,,,,,,,,,,,,,505,,timeout,,,,,,,,,,,,,4,,,,,,,,,,,,,,,,,,,,,,,,,,,,,,,,,,,,,,,,,,,,,,,,,,,,,,,,,"[""blueberry.png""]","[""praline.png""]",,,,6,,,false,,1,,,,,,,159500,159500,158994,158997,159011,159516,10,,,
timeout,canvas.Screen,2_4_2_6_1_0_1_0_0_2_1,2021-05-24T15:24:42.062Z,,,blank.png,blank.png,blank.png,blank.png,blank.png,blank.png,blank.png,"[""praline.png""]",blank.png,blank.png,blank.png,blank.png,blank.png,,,,,,,,,,,,,,,,,,,,,,,,,,,,,"[""praline.png""]","[""blueberry.png""]",PB18.png,,,,,,,,,,,0,6,"[""blueberry.png""]","[""blueberry.png""]","[""blueberry.png""]","[""blueberry.png""]","[""blueberry.png""]","[""blueberry.png""]",blank.png,PB18.png,PB17.png,"[""blueberry.png""]","[""blueberry.png""]","[""blueberry.png""]","[""blueberry.png""]","[""blueberry.png""]","[""blueberry.png""]","[""blueberry.png""]","[""blueberry.png""]","[""blueberry.png""]","[""blueberry.png""]","[""blueberry.png""]","[""blueberry.png""]",1,"[""praline.png""]",blank.png,blank.png,blank.png,6,"[""blueberry.png""]","[""blueberry.png""]","[""blueberry.png""]","[""blueberry.png""]","[""blueberry.png""]","[""blueberry.png""]",PB17.png,,,,,,,,,,,1,,,,,,,,,,,,,506,,timeout,,,,,,,,,,,,,4,,,,,,,,,,,,,,,,,,,,,,,,,,,,,,,,,,,,,,,,,,,,,,,,,,,,,,,,,"[""blueberry.png""]","[""praline.png""]",,,,6,,,false,,1,,,,,,,160004,160004,159500,159503,159516,160022,,,,
choice,canvas.Screen,2_4_2_6_1_0_1_0_0_2_2,2021-05-24T15:24:42.688Z,,,blank.png,blank.png,blank.png,blank.png,blank.png,blank.png,blank.png,"[""praline.png""]",blank.png,blank.png,blank.png,blank.png,blank.png,,,,,,,,,,,,,,,,,,,,,,,,,,,,,"[""praline.png""]","[""blueberry.png""]",PB18.png,,,,,,,,,,,0,6,"[""blueberry.png""]","[""blueberry.png""]","[""blueberry.png""]","[""blueberry.png""]","[""blueberry.png""]","[""blueberry.png""]",blank.png,PB18.png,PB17.png,"[""blueberry.png""]","[""blueberry.png""]","[""blueberry.png""]","[""blueberry.png""]","[""blueberry.png""]","[""blueberry.png""]","[""blueberry.png""]","[""blueberry.png""]","[""blueberry.png""]","[""blueberry.png""]","[""blueberry.png""]","[""blueberry.png""]",1,"[""praline.png""]",blank.png,blank.png,blank.png,6,"[""blueberry.png""]","[""blueberry.png""]","[""blueberry.png""]","[""blueberry.png""]","[""blueberry.png""]","[""blueberry.png""]",PB17.png,,,,,,,,,,,1,,,,,,,,,,,,,621,,response,,,,,,,,,,,,,4,,,,,,,,,,,,,,,,,,,,,,,,,,,,,,,,,,,,,,,,,,,,,,,,,,,,,,,,,"[""blueberry.png""]","[""praline.png""]",,,,6,left,keydown(ArrowLeft),false,,1,,,,,,,160630,160625,160004,160007,160022,160659,,10,,
square,canvas.Screen,2_4_2_6_1_0_1_0_0_2_3,2021-05-24T15:24:43.705Z,,,blank.png,blank.png,blank.png,blank.png,blank.png,blank.png,blank.png,"[""praline.png""]",blank.png,blank.png,blank.png,blank.png,blank.png,,,,,,,,,,,,,,,,,,,,,,,,,,,,,"[""praline.png""]","[""blueberry.png""]",PB18.png,,,,,,,,,,,0,6,"[""blueberry.png""]","[""blueberry.png""]","[""blueberry.png""]","[""blueberry.png""]","[""blueberry.png""]","[""blueberry.png""]",blank.png,PB18.png,PB17.png,"[""blueberry.png""]","[""blueberry.png""]","[""blueberry.png""]","[""blueberry.png""]","[""blueberry.png""]","[""blueberry.png""]","[""blueberry.png""]","[""blueberry.png""]","[""blueberry.png""]","[""blueberry.png""]","[""blueberry.png""]","[""blueberry.png""]",1,"[""praline.png""]",blank.png,blank.png,blank.png,6,"[""blueberry.png""]","[""blueberry.png""]","[""blueberry.png""]","[""blueberry.png""]","[""blueberry.png""]","[""blueberry.png""]",PB17.png,,,,,,,,,,,1,,,#33ff3f,#808080,,,,,,,,,1006,,timeout,,,,,,,,,,,,,4,,,,,,,,,,,,,,,,,,,,,,,,,,,,,,,,,,,,,,,,,,,,,,,,,,,,,,,,,"[""blueberry.png""]","[""praline.png""]",,,,6,,,false,,1,,,,,black,white,161648,161647,160642,160633,160659,161665,,,,
ITI_late,canvas.Screen,2_4_2_6_1_0_1_0_0_2_4,2021-05-24T15:24:44.711Z,,,blank.png,blank.png,blank.png,blank.png,blank.png,blank.png,blank.png,"[""praline.png""]",blank.png,blank.png,blank.png,blank.png,blank.png,,,,,,,,,,,,,,,,,,,,,,,,,,,,,"[""praline.png""]","[""blueberry.png""]",PB18.png,,,,,,,,,,,0,6,"[""blueberry.png""]","[""blueberry.png""]","[""blueberry.png""]","[""blueberry.png""]","[""blueberry.png""]","[""blueberry.png""]",blank.png,PB18.png,PB17.png,"[""blueberry.png""]","[""blueberry.png""]","[""blueberry.png""]","[""blueberry.png""]","[""blueberry.png""]","[""blueberry.png""]","[""blueberry.png""]","[""blueberry.png""]","[""blueberry.png""]","[""blueberry.png""]","[""blueberry.png""]","[""blueberry.png""]",1,"[""praline.png""]",blank.png,blank.png,blank.png,6,"[""blueberry.png""]","[""blueberry.png""]","[""blueberry.png""]","[""blueberry.png""]","[""blueberry.png""]","[""blueberry.png""]",PB17.png,,,,,,,,,,,1,,,,,,,,,,,,,1004,,timeout,,,,,,,,,,,,white,4,,,,,,,,,,,,,,,,,,,,,,,,,,,,,,,,,,,,,,,,,,,,,,,,,,,,,,,,,"[""blueberry.png""]","[""praline.png""]",,,,6,,,false,,1,,,,,,,162653,162653,161647,161649,161665,162669,,,,
choice_sequence,flow.Sequence,2_4_2_6_1_0_1_0_0_2,2021-05-24T15:24:44.711Z,,,blank.png,blank.png,blank.png,blank.png,blank.png,blank.png,blank.png,"[""praline.png""]",blank.png,blank.png,blank.png,blank.png,blank.png,,,,,,,,,,,,,,,,,,,,,,,,,,,,,"[""praline.png""]","[""blueberry.png""]",PB18.png,,,,,,,,,,,0,6,"[""blueberry.png""]","[""blueberry.png""]","[""blueberry.png""]","[""blueberry.png""]","[""blueberry.png""]","[""blueberry.png""]",blank.png,PB18.png,PB17.png,"[""blueberry.png""]","[""blueberry.png""]","[""blueberry.png""]","[""blueberry.png""]","[""blueberry.png""]","[""blueberry.png""]","[""blueberry.png""]","[""blueberry.png""]","[""blueberry.png""]","[""blueberry.png""]","[""blueberry.png""]","[""blueberry.png""]",1,"[""praline.png""]",blank.png,blank.png,blank.png,6,"[""blueberry.png""]","[""blueberry.png""]","[""blueberry.png""]","[""blueberry.png""]","[""blueberry.png""]","[""blueberry.png""]",PB17.png,,,,,,,,,,,1,,,,,,,,,,,,,3642,,completion,,,,,,,,,,,,,4,,,,,,,,,,,,,,,,,,,,,,,,,,,,,,,,,,,,,,,,,,,,,,,,,,,,,,,,,"[""blueberry.png""]","[""praline.png""]",,,,6,,,false,,1,,,,,,,162654,162653,158994,158997,159011,162669,,,,
fixCross,canvas.Screen,2_4_2_6_1_0_1_0_0_3_0,2021-05-24T15:24:45.150Z,,,blank.png,blank.png,blank.png,blank.png,blank.png,blank.png,blank.png,"[""praline.png""]",blank.png,blank.png,blank.png,blank.png,blank.png,,,,,,,,,,,,,,,,,,,,,,,,,,,,,"[""praline.png""]","[""blueberry.png""]",PB18.png,,,,,,,,,,,0,6,"[""blueberry.png""]","[""blueberry.png""]","[""blueberry.png""]","[""blueberry.png""]","[""blueberry.png""]","[""blueberry.png""]",blank.png,PB18.png,PB15.png,"[""blueberry.png""]","[""blueberry.png""]","[""blueberry.png""]","[""blueberry.png""]","[""blueberry.png""]","[""blueberry.png""]","[""blueberry.png""]","[""blueberry.png""]","[""blueberry.png""]","[""blueberry.png""]",blank.png,blank.png,1,"[""praline.png""]",blank.png,blank.png,blank.png,4,"[""blueberry.png""]","[""blueberry.png""]","[""blueberry.png""]","[""blueberry.png""]",blank.png,blank.png,PB15.png,,,,,,,,,,,1,,,,,,,,,,,,,441,,timeout,,,,,,,,,,,,,4,,,,,,,,,,,,,,,,,,,,,,,,,,,,,,,,,,,,,,,,,,,,,,,,,,,,,,,,,"[""blueberry.png""]","[""praline.png""]",,,,6,,,false,,1,,,,,,,163092,163092,162653,162656,162669,163110,11,,,
timeout,canvas.Screen,2_4_2_6_1_0_1_0_0_3_1,2021-05-24T15:24:45.654Z,,,blank.png,blank.png,blank.png,blank.png,blank.png,blank.png,blank.png,"[""praline.png""]",blank.png,blank.png,blank.png,blank.png,blank.png,,,,,,,,,,,,,,,,,,,,,,,,,,,,,"[""praline.png""]","[""blueberry.png""]",PB18.png,,,,,,,,,,,0,6,"[""blueberry.png""]","[""blueberry.png""]","[""blueberry.png""]","[""blueberry.png""]","[""blueberry.png""]","[""blueberry.png""]",blank.png,PB18.png,PB15.png,"[""blueberry.png""]","[""blueberry.png""]","[""blueberry.png""]","[""blueberry.png""]","[""blueberry.png""]","[""blueberry.png""]","[""blueberry.png""]","[""blueberry.png""]","[""blueberry.png""]","[""blueberry.png""]",blank.png,blank.png,1,"[""praline.png""]",blank.png,blank.png,blank.png,4,"[""blueberry.png""]","[""blueberry.png""]","[""blueberry.png""]","[""blueberry.png""]",blank.png,blank.png,PB15.png,,,,,,,,,,,1,,,,,,,,,,,,,502,,timeout,,,,,,,,,,,,,4,,,,,,,,,,,,,,,,,,,,,,,,,,,,,,,,,,,,,,,,,,,,,,,,,,,,,,,,,"[""blueberry.png""]","[""praline.png""]",,,,6,,,false,,1,,,,,,,163596,163596,163092,163094,163110,163612,,,,
