sender,sender_type,sender_id,timestamp,meta,,Blank,DownLeft1,DownLeft2,DownLeft3,DownLeft4,DownLeft5,DownLeft6,DownRight1,DownRight2,DownRight3,DownRight4,DownRight5,DownRight6,FoodHabits_Fru_item1,FoodHabits_Fru_item2,FoodHabits_Fru_item3,FoodHabits_Fru_item4,FoodHabits_Fru_item5,FoodHabits_Fru_item6,FoodHabits_Fru_item7,FoodHabits_Meat_item1,FoodHabits_Meat_item2,FoodHabits_Meat_item3,FoodHabits_Meat_item4,FoodHabits_Meat_item5,FoodHabits_Meat_item6,FoodHabits_Meat_item7,FoodHabits_Swe_item1,FoodHabits_Swe_item2,FoodHabits_Swe_item3,FoodHabits_Swe_item4,FoodHabits_Swe_item5,FoodHabits_Swe_item6,FoodHabits_Swe_item7,FoodHabits_Veg_item1,FoodHabits_Veg_item2,FoodHabits_Veg_item3,FoodHabits_Veg_item4,FoodHabits_Veg_item5,FoodHabits_Veg_item6,FoodHabits_Veg_item7,ImgA,ImgB,LeftBar,PSS_item01,PSS_item02,PSS_item03,PSS_item04,PSS_item05,PSS_item06,PSS_item07,PSS_item08,PSS_item09,PSS_item10,RefA,RefB,RefB1,RefB2,RefB3,RefB4,RefB5,RefB6,RefB7,Ref_PB,RightBar,UpLeft1,UpLeft2,UpLeft3,UpLeft4,UpLeft5,UpLeft6,UpRight1,UpRight2,UpRight3,UpRight4,UpRight5,UpRight6,VarA,VarA1,VarA2,VarA3,VarA4,VarB,VarB1,VarB2,VarB3,VarB4,VarB5,VarB6,Var_PB,attCheck_fileA,attCheck_fileB,attCheck_fileC,attCheck_fileD,attCheck_options,attCheck_valueA,attCheck_valueB,attCheck_valueC,attCheck_valueD,attention_check,block,browser_name,choseL,choseR,consent_form1,consent_form2,consentconfirmation_form1,consentconfirmation_form2,correct,correctResponse,diet,disorder,duration,edu,ended_on,enjoy,full_version,gender,group,hunger,img,imgTask,input_age,input_meal,input_occ,input_remark,lateRespFeed,list,major_version,message,mixQ_item1,mixQ_item2,mixQ_item3,mixQ_item4,mixQ_item5,name,navigator_appName,navigator_userAgent,os,pracQ1_IDa,pracQ1_IDb,pracQ1_IDc,pracQ1_IDd,pracQ1_optionA,pracQ1_optionB,pracQ1_optionC,pracQ1_optionD,pracQ1_valueA,pracQ1_valueB,pracQ1_valueC,pracQ1_valueD,pracQ2_IDa,pracQ2_IDb,pracQ2_IDc,pracQ2_optionA,pracQ2_optionB,pracQ2_optionC,pracQ2_valueA,pracQ2_valueB,pracQ2_valueC,pracQ4_IDa,pracQ4_IDb,pracQ4_IDc,pracQ4_IDd,pracQ4_optionA,pracQ4_optionB,pracQ4_optionC,pracQ4_optionD,pracQ4_valueA,pracQ4_valueB,pracQ4_valueC,pracQ4_valueD,pracQ5_IDa,pracQ5_IDb,pracQ5_IDc,pracQ5_IDd,pracQ5_optionA,pracQ5_optionB,pracQ5_optionC,pracQ5_optionD,pracQ5_valueA,pracQ5_valueB,pracQ5_valueC,pracQ5_valueD,prefHealty,prefUnhealthy,prolific_ID,psessionID,pstudyID,rep,response,response_action,skip,snack,sublock,subtitle,task_difficulty,task_engagement,task_focus,textL,textR,time_commit,time_end,time_render,time_run,time_show,time_switch,trial_count,trial_countO,url,valence
Title,html.Page,0,2021-01-14T18:32:06.619Z,"{""labjs_version"":""20.1.1"",""labjs_build"":{""flavor"":""production"",""commit"":""c48ac4ada3769e8d34489594ab03097d5f256ac7""},""location"":""https://run.pavlovia.org/E3lab/rebund/html/?PROLIFIC_PID={{%PROLIFIC_PID%}}&STUDY_ID={{%STUDY_ID%}}&SESSION_ID={{%SESSION_ID%}}"",""userAgent"":""Mozilla/5.0 (Windows NT 10.0; Win64; x64) AppleWebKit/537.36 (KHTML, like Gecko) Chrome/87.0.4280.141 Safari/537.36"",""platform"":""Win32"",""language"":""pl-PL"",""locale"":""pl"",""timeZone"":""Europe/Warsaw"",""timezoneOffset"":-60,""screen_width"":1536,""screen_height"":864,""scroll_width"":1536,""scroll_height"":674,""window_innerWidth"":1536,""window_innerHeight"":722,""devicePixelRatio"":1.25}",,,,,,,,,,,,,,,,,,,,,,,,,,,,,,,,,,,,,,,,,,,,,,,,,,,,,,,,,,,,,,,,,,,,,,,,,,,,,,,,,,,,,,,,,,,,,,,,,,,,,,,,,,,,,,,,,,5289.383999996931,,form submission,,,,,,,,,,,,,,,,,,,,,,,,,,,,,,,,,,,,,,,,,,,,,,,,,,,,,,,,,,,,,,,,,,,,,,,,,,,,,,,,,,,,,,,9836.889999998675,9836.454999996931,4530.386,4518.049999998766,4547.071,9858.552,,,"{""PROLIFIC_PID"":""{{%PROLIFIC_PID%}}"",""STUDY_ID"":""{{%STUDY_ID%}}"",""SESSION_ID"":""{{%SESSION_ID%}}""}",
get_systemInfo,canvas.Screen,1,2021-01-14T18:32:06.642Z,,,,,,,,,,,,,,,,,,,,,,,,,,,,,,,,,,,,,,,,,,,,,,,,,,,,,,,,,,,,,,,,,,,,,,,,,,,,,,,,,,,,,,,,,,,,,,,,,,,,,,,,Chrome,,,,,,,,,,,5494.648999999999,,timeout,,87.0.4280.141,,,,,,,,,,,,87,,,,,,,,Netscape,"Mozilla/5.0 (Windows NT 10.0; Win64; x64) AppleWebKit/537.36 (KHTML, like Gecko) Chrome/87.0.4280.141 Safari/537.36",Windows,,,,,,,,,,,,,,,,,,,,,,,,,,,,,,,,,,,,,,,,,,,,,,,,{{%PROLIFIC_PID%}},,{{%STUDY_ID%}},,,,,,,,,,,,,9859.629999999015,9859.23499999626,9841.83,9837.679999996908,9858.552,15353.201,,,,
ConsentForm,html.Form,2_0,2021-01-14T18:33:24.691Z,,,,,,,,,,,,,,,,,,,,,,,,,,,,,,,,,,,,,,,,,,,,,,,,,,,,,,,,,,,,,,,,,,,,,,,,,,,,,,,,,,,,,,,,,,,,,,,,,,,,,,,,,,,true,true,,,,,,,72554.51400000119,,form submission,,,,,,,,,,,,,,,,,,,,,,,,,,,,,,,,,,,,,,,,,,,,,,,,,,,,,,,,,,,,,,,,,,,,,,,,,,,,,,,,,,,,,,,87908.15999999904,87907.71500000119,9859.23499999626,15374.049999998533,15353.201,87914.708,,,,
PepTalk,html.Page,2_1,2021-01-14T18:33:41.205Z,,,,,,,,,,,,,,,,,,,,,,,,,,,,,,,,,,,,,,,,,,,,,,,,,,,,,,,,,,,,,,,,,,,,,,,,,,,,,,,,,,,,,,,,,,,,,,,,,,,,,,,,,,,,,,,,,,,16507.616999999547,,form submission,,,,,,,,,,,,,,,,,,,,,,,,,,,,,,,,,,,,,,,,,,,,,,,,,,,,,,,,,,,,,,,,,,,,,,,,,,,,,,,,,,,,,,,104422.63500000263,104422.32499999955,87898.198,87908.34499999619,87914.708,104431.763,,,,
Demographics,html.Form,2_2,2021-01-14T18:34:12.204Z,,,,,,,,,,,,,,,,,,,,,,,,,,,,,,,,,,,,,,,,,,,,,,,,,,,,,,,,,,,,,,,,,,,,,,,,,,,,,,,,,,,,,,,,,,,,,,,,,,,,,,,,,,,,,,,,,,,30989.987000001332,2,form submission,,,2,,,,,18,,Poland,,,,,,,,,,,,,,,,,,,,,,,,,,,,,,,,,,,,,,,,,,,,,,,,,,,,,,,,,,,,,,,,,,,,,,,,,,,,,135422.209999997,135421.75000000134,104415.17,104422.78000000078,104431.763,135434.51,,,,
InclusionCrit,html.Form,2_3,2021-01-14T18:34:27.204Z,,,,,,,,,,,,,,,,,,,,,,,,,,,,,,,,,,,,,,,,,,,,,,,,,,,,,,,,,,,,,,,,,,,,,,,,,,,,,,,,,,,,,,,,,,,,,,,,,,,,,,,,,,,,,,,,,1,1,14986.85500000196,,form submission,1,,,,,,,,,,,,,,,,,,,,,,,,,,,,,,,,,,,,,,,,,,,,,,,,,,,,,,,,,,,,,,,,,,,,,,,,,,,,,,,,,,,,,,150421.70500000066,150421.36500000197,135417.937,135422.53999999957,135434.51,150436.362,,,,
Selection,html.Page,2_4_0,2021-01-14T18:34:38.812Z,,,,,,,,,,,,,,,,,,,,,,,,,,,,,,,,,,,,,,,,,,,,,,,,,,,,,,,,,,,,,,,,,,,,,,,,,,,,,,,,,,,,,,,,,,,,,,,,,,,,,,,,,,,,,,,,,,,11592.922999996896,,form submission,,,,,,,,,,,,,,,,,,,,,,,,,,,,,,,,,,,,,,,,,,,,,,,,,,,,,,,,,,,,,,,,,,,,,,,,,,,,,,,0,,,,,,,,162029.58999999828,162029.2849999969,150419.849,150421.90500000288,150436.362,162041.605,,,,
Load,html.Page,2_4_1,2021-01-14T18:34:38.826Z,,,,,,,,,,,,,,,,,,,,,,,,,,,,,,,,,,,,,,,,,,,,,,,,,,,,,,,,,,,,,,,,,,,,,,,,,,,,,,,,,,,,,,,,,,,,,,,,,,,,,,,,,,,,,,,,,,,9990.050999999978,,timeout,,,,,,,,,,,,,,,,,,,,,,,,,,,,,,,,,,,,,,,,,,,,,,,,,,,,,,,,,,,,,,,,,,,,,,,,,,,,,,,,,,,,,,,162043.89500000252,162043.53999999876,162024.98,162029.77999999712,162041.605,172031.656,,,,
ratings_instructions,html.Screen,2_4_2_0,2021-01-14T18:35:10.821Z,,,,,,,,,,,,,,,,,,,,,,,,,,,,,,,,,,,,,,,,,,,,,,,,,,,,,,,,,,,,,,,,,,,,,,,,,,,,,,,,,,,,,,,,,,,,,,,,,,,,,,,,,,,,,,,,,,,21999.984000001074,,response,,,,,,,,,,,,,,,,,,,,,,,,,,,,,,,,,,,,,,,,,,,,,,,,,,,,,,,,,,,,,,,,,,,,,,,,,,,,continue,keypress(Space),false,,,,,,,,,194038.86000000057,194031.64000000106,162043.53999999876,172060.87999999727,172031.656,194043.359,0,0,,
fixCross,canvas.Screen,2_4_2_1_0_0,2021-01-14T18:35:11.310Z,,,,,,,,,,,,,,,,,,,,,,,,,,,,,,,,,,,,,,,,,,,,,,,,,,,,,,,,,,,,,,,,,,,,,,,,,,,,,,,,,,,,,,,,,,,,,,,,,,,,,,,,,,,,,,,,,,,499.4400000000023,,timeout,,,,unhealthy,,maltesers.png,,,,,,,,,,,,,,,malteser,,,,,,,,,,,,,,,,,,,,,,,,,,,,,,,,,,,,,,,,,,,,,,,,,,,,,,,,,false,,,,,,,,,194527.30999999767,194526.27,194026.651,194039.75999999966,194043.359,194542.799,,,,
Rating,html.Form,2_4_2_1_0_1,2021-01-14T18:35:21.081Z,,,,,,,,,,,,,,,,,,,,,,,,,,,,,,,,,,,,,,,,,,,,,,,,,,,,,,,,,,,,,,,,,,,,,,,,,,,,,,,,,,,,,,,,,,,,,,,,,,,,,,,,,,,,,,,,,,,9755.911000002758,,form submission,,,,unhealthy,,maltesers.png,,,,,,,,,,,,,,,malteser,,,,,,,,,,,,,,,,,,,,,,,,,,,,,,,,,,,,,,,,,,,,,,,,,,,,,,,,,false,,,,,,,,,204298.99999999907,204298.71000000276,194526.27,194527.519999996,194542.799,204299.813,,,,28
rating_sequence,flow.Sequence,2_4_2_1_0,2021-01-14T18:35:21.083Z,,,,,,,,,,,,,,,,,,,,,,,,,,,,,,,,,,,,,,,,,,,,,,,,,,,,,,,,,,,,,,,,,,,,,,,,,,,,,,,,,,,,,,,,,,,,,,,,,,,,,,,,,,,,,,,,,,,10255.35100000276,,completion,,,,unhealthy,,maltesers.png,,,,,,,,,,,,,,,malteser,,,,,,,,,,,,,,,,,,,,,,,,,,,,,,,,,,,,,,,,,,,,,,,,,,,,,,,,,false,,,,,,,,,204300.9499999971,204298.71000000276,194026.651,194039.6600000022,194043.359,204299.813,,,,
fixCross,canvas.Screen,2_4_2_1_1_0,2021-01-14T18:35:21.566Z,,,,,,,,,,,,,,,,,,,,,,,,,,,,,,,,,,,,,,,,,,,,,,,,,,,,,,,,,,,,,,,,,,,,,,,,,,,,,,,,,,,,,,,,,,,,,,,,,,,,,,,,,,,,,,,,,,,499.5089999999909,,timeout,,,,healthy,,grape.png,,,,,,,,,,,,,,,grape,,,,,,,,,,,,,,,,,,,,,,,,,,,,,,,,,,,,,,,,,,,,,,,,,,,,,,,,,false,,,,,,,,,204783.6049999969,204782.74,204283.221,204301.09500000253,204299.813,204799.322,,,,
Rating,html.Form,2_4_2_1_1_1,2021-01-14T18:35:27.036Z,,,,,,,,,,,,,,,,,,,,,,,,,,,,,,,,,,,,,,,,,,,,,,,,,,,,,,,,,,,,,,,,,,,,,,,,,,,,,,,,,,,,,,,,,,,,,,,,,,,,,,,,,,,,,,,,,,,5453.903000000399,,form submission,,,,healthy,,grape.png,,,,,,,,,,,,,,,grape,,,,,,,,,,,,,,,,,,,,,,,,,,,,,,,,,,,,,,,,,,,,,,,,,,,,,,,,,false,,,,,,,,,210253.60499999806,210253.22500000038,204782.74,204783.8100000008,204799.322,210260.638,,,,10
rating_sequence,flow.Sequence,2_4_2_1_1,2021-01-14T18:35:27.036Z,,,,,,,,,,,,,,,,,,,,,,,,,,,,,,,,,,,,,,,,,,,,,,,,,,,,,,,,,,,,,,,,,,,,,,,,,,,,,,,,,,,,,,,,,,,,,,,,,,,,,,,,,,,,,,,,,,,5953.4120000003895,,completion,,,,healthy,,grape.png,,,,,,,,,,,,,,,grape,,,,,,,,,,,,,,,,,,,,,,,,,,,,,,,,,,,,,,,,,,,,,,,,,,,,,,,,,false,,,,,,,,,210253.80500000028,210253.22500000038,204283.221,204301.06499999965,204299.813,210260.638,,,,
fixCross,canvas.Screen,2_4_2_1_2_0,2021-01-14T18:35:27.527Z,,,,,,,,,,,,,,,,,,,,,,,,,,,,,,,,,,,,,,,,,,,,,,,,,,,,,,,,,,,,,,,,,,,,,,,,,,,,,,,,,,,,,,,,,,,,,,,,,,,,,,,,,,,,,,,,,,,499.4890000000014,,timeout,,,,healthy,,orange.png,,,,,,,,,,,,,,,orange,,,,,,,,,,,,,,,,,,,,,,,,,,,,,,,,,,,,,,,,,,,,,,,,,,,,,,,,,false,,,,,,,,,210744.1800000015,210743.48,210244.027,210253.92499999725,210260.638,210760.127,,,,
Rating,html.Form,2_4_2_1_2_1,2021-01-14T18:35:32.926Z,,,,,,,,,,,,,,,,,,,,,,,,,,,,,,,,,,,,,,,,,,,,,,,,,,,,,,,,,,,,,,,,,,,,,,,,,,,,,,,,,,,,,,,,,,,,,,,,,,,,,,,,,,,,,,,,,,,5383.103000001487,,form submission,,,,healthy,,orange.png,,,,,,,,,,,,,,,orange,,,,,,,,,,,,,,,,,,,,,,,,,,,,,,,,,,,,,,,,,,,,,,,,,,,,,,,,,false,,,,,,,,,216143.4900000022,216143.2300000015,210743.48,210744.26500000118,210760.127,216154.772,,,,30
rating_sequence,flow.Sequence,2_4_2_1_2,2021-01-14T18:35:32.926Z,,,,,,,,,,,,,,,,,,,,,,,,,,,,,,,,,,,,,,,,,,,,,,,,,,,,,,,,,,,,,,,,,,,,,,,,,,,,,,,,,,,,,,,,,,,,,,,,,,,,,,,,,,,,,,,,,,,5882.5920000014885,,completion,,,,healthy,,orange.png,,,,,,,,,,,,,,,orange,,,,,,,,,,,,,,,,,,,,,,,,,,,,,,,,,,,,,,,,,,,,,,,,,,,,,,,,,false,,,,,,,,,216143.64499999647,216143.2300000015,210244.027,210253.88999999996,210260.638,216154.772,,,,
fixCross,canvas.Screen,2_4_2_1_3_0,2021-01-14T18:35:33.422Z,,,,,,,,,,,,,,,,,,,,,,,,,,,,,,,,,,,,,,,,,,,,,,,,,,,,,,,,,,,,,,,,,,,,,,,,,,,,,,,,,,,,,,,,,,,,,,,,,,,,,,,,,,,,,,,,,,,499.4979999999923,,timeout,,,,healthy,,coconut.png,,,,,,,,,,,,,,,coconut,,,,,,,,,,,,,,,,,,,,,,,,,,,,,,,,,,,,,,,,,,,,,,,,,,,,,,,,,false,,,,,,,,,216639.26999999967,216638.012,216138.252,216143.7500000029,216154.772,216654.27,,,,
Rating,html.Form,2_4_2_1_3_1,2021-01-14T18:35:37.834Z,,,,,,,,,,,,,,,,,,,,,,,,,,,,,,,,,,,,,,,,,,,,,,,,,,,,,,,,,,,,,,,,,,,,,,,,,,,,,,,,,,,,,,,,,,,,,,,,,,,,,,,,,,,,,,,,,,,4396.744999997289,,form submission,,,,healthy,,coconut.png,,,,,,,,,,,,,,,coconut,,,,,,,,,,,,,,,,,,,,,,,,,,,,,,,,,,,,,,,,,,,,,,,,,,,,,,,,,false,,,,,,,,,221051.33000000205,221051.01499999728,216638.012,216639.91499999975,216654.27,221066.658,,,,79
rating_sequence,flow.Sequence,2_4_2_1_3,2021-01-14T18:35:37.834Z,,,,,,,,,,,,,,,,,,,,,,,,,,,,,,,,,,,,,,,,,,,,,,,,,,,,,,,,,,,,,,,,,,,,,,,,,,,,,,,,,,,,,,,,,,,,,,,,,,,,,,,,,,,,,,,,,,,4896.242999997281,,completion,,,,healthy,,coconut.png,,,,,,,,,,,,,,,coconut,,,,,,,,,,,,,,,,,,,,,,,,,,,,,,,,,,,,,,,,,,,,,,,,,,,,,,,,,false,,,,,,,,,221051.5349999987,221051.01499999728,216138.252,216143.72500000172,216154.772,221066.658,,,,
fixCross,canvas.Screen,2_4_2_1_4_0,2021-01-14T18:35:38.333Z,,,,,,,,,,,,,,,,,,,,,,,,,,,,,,,,,,,,,,,,,,,,,,,,,,,,,,,,,,,,,,,,,,,,,,,,,,,,,,,,,,,,,,,,,,,,,,,,,,,,,,,,,,,,,,,,,,,499.4649999999965,,timeout,,,,unhealthy,,liqorice.png,,,,,,,,,,,,,,,liquorice,,,,,,,,,,,,,,,,,,,,,,,,,,,,,,,,,,,,,,,,,,,,,,,,,,,,,,,,,false,,,,,,,,,221550.17000000225,221549.481,221049.993,221051.65000000125,221066.658,221566.123,,,,
Rating,html.Form,2_4_2_1_4_1,2021-01-14T18:35:44.030Z,,,,,,,,,,,,,,,,,,,,,,,,,,,,,,,,,,,,,,,,,,,,,,,,,,,,,,,,,,,,,,,,,,,,,,,,,,,,,,,,,,,,,,,,,,,,,,,,,,,,,,,,,,,,,,,,,,,5681.687000000762,,form submission,,,,unhealthy,,liqorice.png,,,,,,,,,,,,,,,liquorice,,,,,,,,,,,,,,,,,,,,,,,,,,,,,,,,,,,,,,,,,,,,,,,,,,,,,,,,,false,,,,,,,,,227248.09000000096,227247.81000000075,221549.481,221550.26499999803,221566.123,227260.459,,,,17
rating_sequence,flow.Sequence,2_4_2_1_4,2021-01-14T18:35:44.031Z,,,,,,,,,,,,,,,,,,,,,,,,,,,,,,,,,,,,,,,,,,,,,,,,,,,,,,,,,,,,,,,,,,,,,,,,,,,,,,,,,,,,,,,,,,,,,,,,,,,,,,,,,,,,,,,,,,,6181.152000000759,,completion,,,,unhealthy,,liqorice.png,,,,,,,,,,,,,,,liquorice,,,,,,,,,,,,,,,,,,,,,,,,,,,,,,,,,,,,,,,,,,,,,,,,,,,,,,,,,false,,,,,,,,,227248.31000000268,227247.81000000075,221049.993,221051.61999999837,221066.658,227260.459,,,,
fixCross,canvas.Screen,2_4_2_1_5_0,2021-01-14T18:35:44.526Z,,,,,,,,,,,,,,,,,,,,,,,,,,,,,,,,,,,,,,,,,,,,,,,,,,,,,,,,,,,,,,,,,,,,,,,,,,,,,,,,,,,,,,,,,,,,,,,,,,,,,,,,,,,,,,,,,,,499.5879999999888,,timeout,,,,unhealthy,,praline.png,,,,,,,,,,,,,,,praline,,,,,,,,,,,,,,,,,,,,,,,,,,,,,,,,,,,,,,,,,,,,,,,,,,,,,,,,,false,,,,,,,,,227743.9549999981,227743.336,227243.807,227248.47500000033,227260.459,227760.047,,,,
Rating,html.Form,2_4_2_1_5_1,2021-01-14T18:35:48.067Z,,,,,,,,,,,,,,,,,,,,,,,,,,,,,,,,,,,,,,,,,,,,,,,,,,,,,,,,,,,,,,,,,,,,,,,,,,,,,,,,,,,,,,,,,,,,,,,,,,,,,,,,,,,,,,,,,,,3524.7730000007723,,form submission,,,,unhealthy,,praline.png,,,,,,,,,,,,,,,praline,,,,,,,,,,,,,,,,,,,,,,,,,,,,,,,,,,,,,,,,,,,,,,,,,,,,,,,,,false,,,,,,,,,231285.08999999758,231284.82000000076,227743.336,227744.12499999744,227760.047,231289.877,,,,100
rating_sequence,flow.Sequence,2_4_2_1_5,2021-01-14T18:35:48.068Z,,,,,,,,,,,,,,,,,,,,,,,,,,,,,,,,,,,,,,,,,,,,,,,,,,,,,,,,,,,,,,,,,,,,,,,,,,,,,,,,,,,,,,,,,,,,,,,,,,,,,,,,,,,,,,,,,,,4024.361000000761,,completion,,,,unhealthy,,praline.png,,,,,,,,,,,,,,,praline,,,,,,,,,,,,,,,,,,,,,,,,,,,,,,,,,,,,,,,,,,,,,,,,,,,,,,,,,false,,,,,,,,,231285.26499999862,231284.82000000076,227243.807,227248.43500000134,227260.459,231289.877,,,,
fixCross,canvas.Screen,2_4_2_1_6_0,2021-01-14T18:35:48.556Z,,,,,,,,,,,,,,,,,,,,,,,,,,,,,,,,,,,,,,,,,,,,,,,,,,,,,,,,,,,,,,,,,,,,,,,,,,,,,,,,,,,,,,,,,,,,,,,,,,,,,,,,,,,,,,,,,,,499.44999999998254,,timeout,,,,healthy,,cherry.png,,,,,,,,,,,,,,,cherry,,,,,,,,,,,,,,,,,,,,,,,,,,,,,,,,,,,,,,,,,,,,,,,,,,,,,,,,,false,,,,,,,,,231773.77500000148,231772.662,231273.149,231285.38000000117,231289.877,231789.327,,,,
Rating,html.Form,2_4_2_1_6_1,2021-01-14T18:35:53.637Z,,,,,,,,,,,,,,,,,,,,,,,,,,,,,,,,,,,,,,,,,,,,,,,,,,,,,,,,,,,,,,,,,,,,,,,,,,,,,,,,,,,,,,,,,,,,,,,,,,,,,,,,,,,,,,,,,,,5065.543000002857,,form submission,,,,healthy,,cherry.png,,,,,,,,,,,,,,,cherry,,,,,,,,,,,,,,,,,,,,,,,,,,,,,,,,,,,,,,,,,,,,,,,,,,,,,,,,,false,,,,,,,,,236855.12500000186,236854.87000000285,231772.662,231774.12999999797,231789.327,236884.336,,,,55
rating_sequence,flow.Sequence,2_4_2_1_6,2021-01-14T18:35:53.638Z,,,,,,,,,,,,,,,,,,,,,,,,,,,,,,,,,,,,,,,,,,,,,,,,,,,,,,,,,,,,,,,,,,,,,,,,,,,,,,,,,,,,,,,,,,,,,,,,,,,,,,,,,,,,,,,,,,,5564.99300000284,,completion,,,,healthy,,cherry.png,,,,,,,,,,,,,,,cherry,,,,,,,,,,,,,,,,,,,,,,,,,,,,,,,,,,,,,,,,,,,,,,,,,,,,,,,,,false,,,,,,,,,236855.27999999613,236854.87000000285,231273.149,231285.3449999966,231289.877,236884.336,,,,
fixCross,canvas.Screen,2_4_2_1_7_0,2021-01-14T18:35:54.151Z,,,,,,,,,,,,,,,,,,,,,,,,,,,,,,,,,,,,,,,,,,,,,,,,,,,,,,,,,,,,,,,,,,,,,,,,,,,,,,,,,,,,,,,,,,,,,,,,,,,,,,,,,,,,,,,,,,,499.54099999999744,,timeout,,,,unhealthy,,chocolate_truffle.png,,,,,,,,,,,,,,,chocolate truffle,,,,,,,,,,,,,,,,,,,,,,,,,,,,,,,,,,,,,,,,,,,,,,,,,,,,,,,,,false,,,,,,,,,237368.28499999683,237367.212,236867.749,236855.38000000088,236884.336,237383.877,,,,
Rating,html.Form,2_4_2_1_7_1,2021-01-14T18:35:58.967Z,,,,,,,,,,,,,,,,,,,,,,,,,,,,,,,,,,,,,,,,,,,,,,,,,,,,,,,,,,,,,,,,,,,,,,,,,,,,,,,,,,,,,,,,,,,,,,,,,,,,,,,,,,,,,,,,,,,4800.833000001352,,form submission,,,,unhealthy,,chocolate_truffle.png,,,,,,,,,,,,,,,chocolate truffle,,,,,,,,,,,,,,,,,,,,,,,,,,,,,,,,,,,,,,,,,,,,,,,,,,,,,,,,,false,,,,,,,,,242185.06499999785,242184.71000000136,237367.212,237368.41999999888,237383.877,242195.729,,,,91
rating_sequence,flow.Sequence,2_4_2_1_7,2021-01-14T18:35:58.968Z,,,,,,,,,,,,,,,,,,,,,,,,,,,,,,,,,,,,,,,,,,,,,,,,,,,,,,,,,,,,,,,,,,,,,,,,,,,,,,,,,,,,,,,,,,,,,,,,,,,,,,,,,,,,,,,,,,,5300.3740000013495,,completion,,,,unhealthy,,chocolate_truffle.png,,,,,,,,,,,,,,,chocolate truffle,,,,,,,,,,,,,,,,,,,,,,,,,,,,,,,,,,,,,,,,,,,,,,,,,,,,,,,,,false,,,,,,,,,242185.22500000108,242184.71000000136,236867.749,236855.3549999997,236884.336,242195.729,,,,
fixCross,canvas.Screen,2_4_2_1_8_0,2021-01-14T18:35:59.462Z,,,,,,,,,,,,,,,,,,,,,,,,,,,,,,,,,,,,,,,,,,,,,,,,,,,,,,,,,,,,,,,,,,,,,,,,,,,,,,,,,,,,,,,,,,,,,,,,,,,,,,,,,,,,,,,,,,,499.4980000000214,,timeout,,,,healthy,,apple.png,,,,,,,,,,,,,,,apple,,,,,,,,,,,,,,,,,,,,,,,,,,,,,,,,,,,,,,,,,,,,,,,,,,,,,,,,,false,,,,,,,,,242679.21499999647,242678.588,242179.058,242185.33000000025,242195.729,242695.227,,,,
Rating,html.Form,2_4_2_1_8_1,2021-01-14T18:36:03.301Z,,,,,,,,,,,,,,,,,,,,,,,,,,,,,,,,,,,,,,,,,,,,,,,,,,,,,,,,,,,,,,,,,,,,,,,,,,,,,,,,,,,,,,,,,,,,,,,,,,,,,,,,,,,,,,,,,,,3822.768000001961,,form submission,,,,healthy,,apple.png,,,,,,,,,,,,,,,apple,,,,,,,,,,,,,,,,,,,,,,,,,,,,,,,,,,,,,,,,,,,,,,,,,,,,,,,,,false,,,,,,,,,246518.21499999642,246517.99500000197,242678.588,242679.31500000122,242695.227,246524.759,,,,100
rating_sequence,flow.Sequence,2_4_2_1_8,2021-01-14T18:36:03.301Z,,,,,,,,,,,,,,,,,,,,,,,,,,,,,,,,,,,,,,,,,,,,,,,,,,,,,,,,,,,,,,,,,,,,,,,,,,,,,,,,,,,,,,,,,,,,,,,,,,,,,,,,,,,,,,,,,,,4322.266000001982,,completion,,,,healthy,,apple.png,,,,,,,,,,,,,,,apple,,,,,,,,,,,,,,,,,,,,,,,,,,,,,,,,,,,,,,,,,,,,,,,,,,,,,,,,,false,,,,,,,,,246518.34499999677,246517.99500000197,242179.058,242185.29499999568,242195.729,246524.759,,,,
fixCross,canvas.Screen,2_4_2_1_9_0,2021-01-14T18:36:03.793Z,,,,,,,,,,,,,,,,,,,,,,,,,,,,,,,,,,,,,,,,,,,,,,,,,,,,,,,,,,,,,,,,,,,,,,,,,,,,,,,,,,,,,,,,,,,,,,,,,,,,,,,,,,,,,,,,,,,499.5580000000191,,timeout,,,,healthy,,raspberry.png,,,,,,,,,,,,,,,raspberry,,,,,,,,,,,,,,,,,,,,,,,,,,,,,,,,,,,,,,,,,,,,,,,,,,,,,,,,,false,,,,,,,,,247010.4799999972,247007.619,246508.128,246518.43499999814,246524.759,247024.317,,,,
Rating,html.Form,2_4_2_1_9_1,2021-01-14T18:36:06.404Z,,,,,,,,,,,,,,,,,,,,,,,,,,,,,,,,,,,,,,,,,,,,,,,,,,,,,,,,,,,,,,,,,,,,,,,,,,,,,,,,,,,,,,,,,,,,,,,,,,,,,,,,,,,,,,,,,,,2596.8979999992007,,form submission,,,,healthy,,raspberry.png,,,,,,,,,,,,,,,raspberry,,,,,,,,,,,,,,,,,,,,,,,,,,,,,,,,,,,,,,,,,,,,,,,,,,,,,,,,,false,,,,,,,,,249621.50999999722,249621.2149999992,247007.619,247010.76499999908,247024.317,249638.875,,,,59
rating_sequence,flow.Sequence,2_4_2_1_9,2021-01-14T18:36:06.404Z,,,,,,,,,,,,,,,,,,,,,,,,,,,,,,,,,,,,,,,,,,,,,,,,,,,,,,,,,,,,,,,,,,,,,,,,,,,,,,,,,,,,,,,,,,,,,,,,,,,,,,,,,,,,,,,,,,,3096.45599999922,,completion,,,,healthy,,raspberry.png,,,,,,,,,,,,,,,raspberry,,,,,,,,,,,,,,,,,,,,,,,,,,,,,,,,,,,,,,,,,,,,,,,,,,,,,,,,,false,,,,,,,,,249621.8450000015,249621.2149999992,246508.128,246518.40999999695,246524.759,249638.875,,,,
fixCross,canvas.Screen,2_4_2_1_10_0,2021-01-14T18:36:06.904Z,,,,,,,,,,,,,,,,,,,,,,,,,,,,,,,,,,,,,,,,,,,,,,,,,,,,,,,,,,,,,,,,,,,,,,,,,,,,,,,,,,,,,,,,,,,,,,,,,,,,,,,,,,,,,,,,,,,499.0709999999963,,timeout,,,,healthy,,blueberry.png,,,,,,,,,,,,,,,blueberry,,,,,,,,,,,,,,,,,,,,,,,,,,,,,,,,,,,,,,,,,,,,,,,,,,,,,,,,,false,,,,,,,,,250121.8399999998,250121.305,249605.085,249622.0600000015,249638.875,250137.946,,,,
Rating,html.Form,2_4_2_1_10_1,2021-01-14T18:36:09.675Z,,,,,,,,,,,,,,,,,,,,,,,,,,,,,,,,,,,,,,,,,,,,,,,,,,,,,,,,,,,,,,,,,,,,,,,,,,,,,,,,,,,,,,,,,,,,,,,,,,,,,,,,,,,,,,,,,,,2755.1039999987697,,form submission,,,,healthy,,blueberry.png,,,,,,,,,,,,,,,blueberry,,,,,,,,,,,,,,,,,,,,,,,,,,,,,,,,,,,,,,,,,,,,,,,,,,,,,,,,,false,,,,,,,,,252893.30499999778,252893.04999999877,250121.305,250121.98499999795,250137.946,252901.845,,,,23
rating_sequence,flow.Sequence,2_4_2_1_10,2021-01-14T18:36:09.676Z,,,,,,,,,,,,,,,,,,,,,,,,,,,,,,,,,,,,,,,,,,,,,,,,,,,,,,,,,,,,,,,,,,,,,,,,,,,,,,,,,,,,,,,,,,,,,,,,,,,,,,,,,,,,,,,,,,,3254.174999998766,,completion,,,,healthy,,blueberry.png,,,,,,,,,,,,,,,blueberry,,,,,,,,,,,,,,,,,,,,,,,,,,,,,,,,,,,,,,,,,,,,,,,,,,,,,,,,,false,,,,,,,,,252893.4700000027,252893.04999999877,249605.085,249622.01500000083,249638.875,252901.845,,,,
fixCross,canvas.Screen,2_4_2_1_11_0,2021-01-14T18:36:10.168Z,,,,,,,,,,,,,,,,,,,,,,,,,,,,,,,,,,,,,,,,,,,,,,,,,,,,,,,,,,,,,,,,,,,,,,,,,,,,,,,,,,,,,,,,,,,,,,,,,,,,,,,,,,,,,,,,,,,499.45999999999185,,timeout,,,,unhealthy,,candy.png,,,,,,,,,,,,,,,candy,,,,,,,,,,,,,,,,,,,,,,,,,,,,,,,,,,,,,,,,,,,,,,,,,,,,,,,,,false,,,,,,,,,253385.56000000244,253384.664,252885.269,252893.5799999963,252901.845,253401.305,,,,
Rating,html.Form,2_4_2_1_11_1,2021-01-14T18:36:15.873Z,,,,,,,,,,,,,,,,,,,,,,,,,,,,,,,,,,,,,,,,,,,,,,,,,,,,,,,,,,,,,,,,,,,,,,,,,,,,,,,,,,,,,,,,,,,,,,,,,,,,,,,,,,,,,,,,,,,5689.024999999092,,form submission,,,,unhealthy,,candy.png,,,,,,,,,,,,,,,candy,,,,,,,,,,,,,,,,,,,,,,,,,,,,,,,,,,,,,,,,,,,,,,,,,,,,,,,,,false,,,,,,,,,259090.5999999959,259090.32999999908,253384.664,253385.80999999976,253401.305,259095.754,,,,56
rating_sequence,flow.Sequence,2_4_2_1_11,2021-01-14T18:36:15.873Z,,,,,,,,,,,,,,,,,,,,,,,,,,,,,,,,,,,,,,,,,,,,,,,,,,,,,,,,,,,,,,,,,,,,,,,,,,,,,,,,,,,,,,,,,,,,,,,,,,,,,,,,,,,,,,,,,,,6188.484999999084,,completion,,,,unhealthy,,candy.png,,,,,,,,,,,,,,,candy,,,,,,,,,,,,,,,,,,,,,,,,,,,,,,,,,,,,,,,,,,,,,,,,,,,,,,,,,false,,,,,,,,,259090.75499999744,259090.32999999908,252885.269,252893.5500000007,252901.845,259095.754,,,,
fixCross,canvas.Screen,2_4_2_1_12_0,2021-01-14T18:36:16.362Z,,,,,,,,,,,,,,,,,,,,,,,,,,,,,,,,,,,,,,,,,,,,,,,,,,,,,,,,,,,,,,,,,,,,,,,,,,,,,,,,,,,,,,,,,,,,,,,,,,,,,,,,,,,,,,,,,,,499.52900000000955,,timeout,,,,healthy,,pear.png,,,,,,,,,,,,,,,pear,,,,,,,,,,,,,,,,,,,,,,,,,,,,,,,,,,,,,,,,,,,,,,,,,,,,,,,,,false,,,,,,,,,259579.79499999783,259578.55,259079.056,259091.24000000156,259095.754,259595.283,,,,
Rating,html.Form,2_4_2_1_12_1,2021-01-14T18:36:20.046Z,,,,,,,,,,,,,,,,,,,,,,,,,,,,,,,,,,,,,,,,,,,,,,,,,,,,,,,,,,,,,,,,,,,,,,,,,,,,,,,,,,,,,,,,,,,,,,,,,,,,,,,,,,,,,,,,,,,3668.806999996945,,form submission,,,,healthy,,pear.png,,,,,,,,,,,,,,,pear,,,,,,,,,,,,,,,,,,,,,,,,,,,,,,,,,,,,,,,,,,,,,,,,,,,,,,,,,false,,,,,,,,,263264.38999999664,263264.08999999694,259578.55,259579.98000000225,259595.283,263274.908,,,,27
rating_sequence,flow.Sequence,2_4_2_1_12,2021-01-14T18:36:20.047Z,,,,,,,,,,,,,,,,,,,,,,,,,,,,,,,,,,,,,,,,,,,,,,,,,,,,,,,,,,,,,,,,,,,,,,,,,,,,,,,,,,,,,,,,,,,,,,,,,,,,,,,,,,,,,,,,,,,4168.335999996954,,completion,,,,healthy,,pear.png,,,,,,,,,,,,,,,pear,,,,,,,,,,,,,,,,,,,,,,,,,,,,,,,,,,,,,,,,,,,,,,,,,,,,,,,,,false,,,,,,,,,263264.62000000174,263264.08999999694,259079.056,259091.19500000088,259095.754,263274.908,,,,
fixCross,canvas.Screen,2_4_2_1_13_0,2021-01-14T18:36:20.542Z,,,,,,,,,,,,,,,,,,,,,,,,,,,,,,,,,,,,,,,,,,,,,,,,,,,,,,,,,,,,,,,,,,,,,,,,,,,,,,,,,,,,,,,,,,,,,,,,,,,,,,,,,,,,,,,,,,,499.5540000000037,,timeout,,,,unhealthy,,gummybear.png,,,,,,,,,,,,,,,gummybear,,,,,,,,,,,,,,,,,,,,,,,,,,,,,,,,,,,,,,,,,,,,,,,,,,,,,,,,,false,,,,,,,,,263760.3699999963,263757.953,263258.324,263264.83500000177,263274.908,263774.462,,,,
Rating,html.Form,2_4_2_1_13_1,2021-01-14T18:36:23.483Z,,,,,,,,,,,,,,,,,,,,,,,,,,,,,,,,,,,,,,,,,,,,,,,,,,,,,,,,,,,,,,,,,,,,,,,,,,,,,,,,,,,,,,,,,,,,,,,,,,,,,,,,,,,,,,,,,,,2926.278000000224,,form submission,,,,unhealthy,,gummybear.png,,,,,,,,,,,,,,,gummybear,,,,,,,,,,,,,,,,,,,,,,,,,,,,,,,,,,,,,,,,,,,,,,,,,,,,,,,,,false,,,,,,,,,266701.0850000006,266700.7400000002,263757.953,263761.0849999983,263774.462,266704.812,,,,37
rating_sequence,flow.Sequence,2_4_2_1_13,2021-01-14T18:36:23.483Z,,,,,,,,,,,,,,,,,,,,,,,,,,,,,,,,,,,,,,,,,,,,,,,,,,,,,,,,,,,,,,,,,,,,,,,,,,,,,,,,,,,,,,,,,,,,,,,,,,,,,,,,,,,,,,,,,,,3425.8320000002277,,completion,,,,unhealthy,,gummybear.png,,,,,,,,,,,,,,,gummybear,,,,,,,,,,,,,,,,,,,,,,,,,,,,,,,,,,,,,,,,,,,,,,,,,,,,,,,,,false,,,,,,,,,266701.24999999825,266700.7400000002,263258.324,263264.7900000011,263274.908,266704.812,,,,
fixCross,canvas.Screen,2_4_2_1_14_0,2021-01-14T18:36:23.971Z,,,,,,,,,,,,,,,,,,,,,,,,,,,,,,,,,,,,,,,,,,,,,,,,,,,,,,,,,,,,,,,,,,,,,,,,,,,,,,,,,,,,,,,,,,,,,,,,,,,,,,,,,,,,,,,,,,,499.64100000000326,,timeout,,,,unhealthy,,marshmallow.png,,,,,,,,,,,,,,,marshmallow,,,,,,,,,,,,,,,,,,,,,,,,,,,,,,,,,,,,,,,,,,,,,,,,,,,,,,,,,false,,,,,,,,,267188.7349999961,267187.715,266688.193,266701.3499999957,266704.812,267204.453,,,,
Rating,html.Form,2_4_2_1_14_1,2021-01-14T18:36:28.127Z,,,,,,,,,,,,,,,,,,,,,,,,,,,,,,,,,,,,,,,,,,,,,,,,,,,,,,,,,,,,,,,,,,,,,,,,,,,,,,,,,,,,,,,,,,,,,,,,,,,,,,,,,,,,,,,,,,,4140.391999999643,,form submission,,,,unhealthy,,marshmallow.png,,,,,,,,,,,,,,,marshmallow,,,,,,,,,,,,,,,,,,,,,,,,,,,,,,,,,,,,,,,,,,,,,,,,,,,,,,,,,false,,,,,,,,,271345.1550000027,271344.8449999996,267187.715,267188.9700000029,267204.453,271350.24,,,,78
rating_sequence,flow.Sequence,2_4_2_1_14,2021-01-14T18:36:28.127Z,,,,,,,,,,,,,,,,,,,,,,,,,,,,,,,,,,,,,,,,,,,,,,,,,,,,,,,,,,,,,,,,,,,,,,,,,,,,,,,,,,,,,,,,,,,,,,,,,,,,,,,,,,,,,,,,,,,4640.032999999647,,completion,,,,unhealthy,,marshmallow.png,,,,,,,,,,,,,,,marshmallow,,,,,,,,,,,,,,,,,,,,,,,,,,,,,,,,,,,,,,,,,,,,,,,,,,,,,,,,,false,,,,,,,,,271345.35999999935,271344.8449999996,266688.193,266701.3250000018,266704.812,271350.24,,,,
fixCross,canvas.Screen,2_4_2_1_15_0,2021-01-14T18:36:28.616Z,,,,,,,,,,,,,,,,,,,,,,,,,,,,,,,,,,,,,,,,,,,,,,,,,,,,,,,,,,,,,,,,,,,,,,,,,,,,,,,,,,,,,,,,,,,,,,,,,,,,,,,,,,,,,,,,,,,499.50900000002,,timeout,,,,unhealthy,,chocolate.png,,,,,,,,,,,,,,,chocolate,,,,,,,,,,,,,,,,,,,,,,,,,,,,,,,,,,,,,,,,,,,,,,,,,,,,,,,,,false,,,,,,,,,271834.2550000016,271833.123,271333.592,271345.564999996,271350.24,271849.749,,,,
Rating,html.Form,2_4_2_1_15_1,2021-01-14T18:36:31.145Z,,,,,,,,,,,,,,,,,,,,,,,,,,,,,,,,,,,,,,,,,,,,,,,,,,,,,,,,,,,,,,,,,,,,,,,,,,,,,,,,,,,,,,,,,,,,,,,,,,,,,,,,,,,,,,,,,,,2513.1209999971907,,form submission,,,,unhealthy,,chocolate.png,,,,,,,,,,,,,,,chocolate,,,,,,,,,,,,,,,,,,,,,,,,,,,,,,,,,,,,,,,,,,,,,,,,,,,,,,,,,false,,,,,,,,,274363.185000002,274362.8699999972,271833.123,271834.39999999973,271849.749,274363.959,,,,86
rating_sequence,flow.Sequence,2_4_2_1_15,2021-01-14T18:36:31.145Z,,,,,,,,,,,,,,,,,,,,,,,,,,,,,,,,,,,,,,,,,,,,,,,,,,,,,,,,,,,,,,,,,,,,,,,,,,,,,,,,,,,,,,,,,,,,,,,,,,,,,,,,,,,,,,,,,,,3012.6299999972107,,completion,,,,unhealthy,,chocolate.png,,,,,,,,,,,,,,,chocolate,,,,,,,,,,,,,,,,,,,,,,,,,,,,,,,,,,,,,,,,,,,,,,,,,,,,,,,,,false,,,,,,,,,274363.35999999574,274362.8699999972,271333.592,271345.4899999997,271350.24,274363.959,,,,
fixCross,canvas.Screen,2_4_2_1_16_0,2021-01-14T18:36:31.630Z,,,,,,,,,,,,,,,,,,,,,,,,,,,,,,,,,,,,,,,,,,,,,,,,,,,,,,,,,,,,,,,,,,,,,,,,,,,,,,,,,,,,,,,,,,,,,,,,,,,,,,,,,,,,,,,,,,,499.4870000000228,,timeout,,,,unhealthy,,m&m.png,,,,,,,,,,,,,,,m&m,,,,,,,,,,,,,,,,,,,,,,,,,,,,,,,,,,,,,,,,,,,,,,,,,,,,,,,,,false,,,,,,,,,274847.4649999989,274846.774,274347.286,274363.4699999966,274363.959,274863.446,,,,
Rating,html.Form,2_4_2_1_16_1,2021-01-14T18:36:35.315Z,,,,,,,,,,,,,,,,,,,,,,,,,,,,,,,,,,,,,,,,,,,,,,,,,,,,,,,,,,,,,,,,,,,,,,,,,,,,,,,,,,,,,,,,,,,,,,,,,,,,,,,,,,,,,,,,,,,3669.439000000537,,form submission,,,,unhealthy,,m&m.png,,,,,,,,,,,,,,,m&m,,,,,,,,,,,,,,,,,,,,,,,,,,,,,,,,,,,,,,,,,,,,,,,,,,,,,,,,,false,,,,,,,,,278533.13999999955,278532.88500000053,274846.774,274847.62000000046,274863.446,278543.225,,,,28
rating_sequence,flow.Sequence,2_4_2_1_16,2021-01-14T18:36:35.315Z,,,,,,,,,,,,,,,,,,,,,,,,,,,,,,,,,,,,,,,,,,,,,,,,,,,,,,,,,,,,,,,,,,,,,,,,,,,,,,,,,,,,,,,,,,,,,,,,,,,,,,,,,,,,,,,,,,,4168.92600000056,,completion,,,,unhealthy,,m&m.png,,,,,,,,,,,,,,,m&m,,,,,,,,,,,,,,,,,,,,,,,,,,,,,,,,,,,,,,,,,,,,,,,,,,,,,,,,,false,,,,,,,,,278533.2950000011,278532.88500000053,274347.286,274363.440000001,274363.959,278543.225,,,,
fixCross,canvas.Screen,2_4_2_1_17_0,2021-01-14T18:36:35.809Z,,,,,,,,,,,,,,,,,,,,,,,,,,,,,,,,,,,,,,,,,,,,,,,,,,,,,,,,,,,,,,,,,,,,,,,,,,,,,,,,,,,,,,,,,,,,,,,,,,,,,,,,,,,,,,,,,,,499.47100000001956,,timeout,,,,healthy,,strawberry.png,,,,,,,,,,,,,,,strawberry,,,,,,,,,,,,,,,,,,,,,,,,,,,,,,,,,,,,,,,,,,,,,,,,,,,,,,,,,false,,,,,,,,,279027.1700000012,279026.144,278526.596,278533.40500000195,278543.225,279042.696,,,,
Rating,html.Form,2_4_2_1_17_1,2021-01-14T18:36:38.745Z,,,,,,,,,,,,,,,,,,,,,,,,,,,,,,,,,,,,,,,,,,,,,,,,,,,,,,,,,,,,,,,,,,,,,,,,,,,,,,,,,,,,,,,,,,,,,,,,,,,,,,,,,,,,,,,,,,,2920.393999997468,,form submission,,,,healthy,,strawberry.png,,,,,,,,,,,,,,,strawberry,,,,,,,,,,,,,,,,,,,,,,,,,,,,,,,,,,,,,,,,,,,,,,,,,,,,,,,,,false,,,,,,,,,281963.38500000275,281963.08999999746,279026.144,279027.5550000006,279042.696,282023.073,,,,90
rating_sequence,flow.Sequence,2_4_2_1_17,2021-01-14T18:36:38.746Z,,,,,,,,,,,,,,,,,,,,,,,,,,,,,,,,,,,,,,,,,,,,,,,,,,,,,,,,,,,,,,,,,,,,,,,,,,,,,,,,,,,,,,,,,,,,,,,,,,,,,,,,,,,,,,,,,,,3419.8649999974878,,completion,,,,healthy,,strawberry.png,,,,,,,,,,,,,,,strawberry,,,,,,,,,,,,,,,,,,,,,,,,,,,,,,,,,,,,,,,,,,,,,,,,,,,,,,,,,false,,,,,,,,,281963.5500000004,281963.08999999746,278526.596,278533.3699999974,278543.225,282023.073,,,,
rating_loop,flow.Loop,2_4_2_1,2021-01-14T18:36:38.746Z,,,,,,,,,,,,,,,,,,,,,,,,,,,,,,,,,,,,,,,,,,,,,,,,,,,,,,,,,,,,,,,,,,,,,,,,,,,,,,,,,,,,,,,,,,,,,,,,,,,,,,,,,,,,,,,,,,,87919.73099999747,,completion,,,,,,,,,,,,,,,,,,,,,,,,,,,,,,,,,,,,,,,,,,,,,,,,,,,,,,,,,,,,,,,,,,,,,,,,,,,,,,false,,,,,,,,,281963.71999999974,281963.08999999746,194026.651,194039.51499999675,194043.359,282023.073,,,,
data_transmission,html.Screen,2_4_2_2,2021-01-14T18:36:38.752Z,,,,,,,,,,,,,,,,,,,,,,,,,,,,,,,,,,,,,,,,,,,,,,,,,,,,,,,,,,,,,,,,,,,,,,,,,,,,,,,,,,,,,,,,,,,,,,,,,,,,,,,,,,,,,,,,,,,NaN,,no compatible backend,,,,,,,,,,,,,,,Transferring data,,,,,,,,,,,,,,,,,,,,,,,,,,,,,,,,,,,,,,,,,,,,,,,,,,,,,,,,,,,,,,,false,,,Please wait a second…,,,,,,281970.1599999971,281969.98000000167,,281963.8100000011,,282023.073,,,,
instructions,html.Screen,2_4_2_3,2021-01-14T18:38:49.517Z,,,,,,,,,,,,,,,,,,,,,,,,,,,,,,,,,,,,,,,,,,,,,,,,,,,,,,,,,,,,,,,,,,,,,,,,,,,,,,,,,,,,,,,,,,,,,,,,,,,,,,,,,,,,,,,,,,,130710.24699999939,,done,,,,,,,,,,,,,,,,,,,,,,,,,,,,,,,,,,,,,,,,,,,,,,,,,,,,,,,,,,,,,,,,,,,,,,,,,,,,,,false,,,,,,,,,412733.93499999656,412733.31999999937,281956.473,281970.32999999647,282023.073,412744.06,,,,
Q1,html.Screen,2_4_2_4_0,2021-01-14T18:38:57.741Z,,,,,,,,,,,,,,,,,,,,,,,,,,,,,,,,,,,,,,,,,,,,,,,,,,,,,,,,,,,,,,,,,,,,,,,,,,,,,,,,,,,,,,,,,,,,,,,,,,,,,,,,,,,,,,,false,input_Q1==3,,,8211.73999999609,,response,,,,,,,,,,,,,,,,,,,,,,,,,Q1_i3,Q1_i1,Q1_i2,Q1_i4,3,1,2,4,correct,false,false,false,,,,,,,,,,,,,,,,,,,,,,,,,,,,,,,,,,,,,,,,,click #Q1_i3,false,,,,,,,,,420958.0999999962,420955.7999999961,412728.626,412734.4099999973,412744.06,420969.187,,,,
Q1_correct,html.Screen,2_4_2_4_1,2021-01-14T18:38:59.077Z,,,,,,,,,,,,,,,,,,,,,,,,,,,,,,,,,,,,,,,,,,,,,,,,,,,,,,,,,,,,,,,,,,,,,,,,,,,,,,,,,,,,,,,,,,,,,,,,,,,,,,,,,,,,,,,,,,,1323.2579999991576,,response,,,,,,,,,,,,,,,,,,,,,,,,,,,,,,,,,,,,,,,,,,,,,,,,,,,,,,,,,,,,,,,,,,,,,,,,,,,,,keypress,false,,,,,,,,,422294.5499999987,422292.44499999913,420952.501,420958.2599999994,420969.187,422301.279,,,,
Q2,html.Screen,2_4_2_4_2,2021-01-14T18:39:07.449Z,,,,,,,,,,,,,,,,,,,,,,,,,,,,,,,,,,,,,,,,,,,,,,,,,,,,,,,,,,,,,,,,,,,,,,,,,,,,,,,,,,,,,,,,,,,,,,,,,,,,,,,,,,,,,,,,,,,8363.891000000236,,response,,,,,,,,,,,,,,,,,,,,,,,,,,,,,,,,,,,,,Q2_i3,Q2_i2,Q2_i1,Same amount,Option 2,Option 1,same,opt2,correct,,,,,,,,,,,,,,,,,,,,,,,,,,,,,,,,click #Q2_i1,false,,,,,,,,,430665.97000000183,430665.1700000002,422284.652,422295.01000000164,422301.279,430676.287,,,,
Q2_correct,html.Screen,2_4_2_4_3,2021-01-14T18:39:08.736Z,,,,,,,,,,,,,,,,,,,,,,,,,,,,,,,,,,,,,,,,,,,,,,,,,,,,,,,,,,,,,,,,,,,,,,,,,,,,,,,,,,,,,,,,,,,,,,,,,,,,,,,,,,,,,,,,,,,1275.228000000643,,response,,,,,,,,,,,,,,,,,,,,,,,,,,,,,,,,,,,,,,,,,,,,,,,,,,,,,,,,,,,,,,,,,,,,,,,,,,,,,keypress,false,,,,,,,,,431953.24000000255,431951.51500000065,430659.805,430666.16500000237,430676.287,431975.065,,,,
Q4,html.Screen,2_4_2_4_4,2021-01-14T18:39:25.552Z,,,,,,,,,,,,,,,,,,,,,,,,,,,,,,,,,,,,,,,,,,,,,,,,,,,,,,,,,,,,,,,,,,,,,,,,,,,,,,,,,,,,,,,,,,,,,,,,,,,,,,,,,,,,,,,,,,,16793.174999997602,,response,,,,,,,,,,,,,,,,,,,,,,,,,,,,,,,,,,,,,,,,,,,,,,Q4_i3,Q4_i2,Q4_i1,Q4_i4,Press the arrow key that corresponds with the snack option with more food items,Indicate the number of food items in each snack option,Press the arrow key that corresponds with the snack option I prefer,Press the space key,morefood,indicate,correct,pressspace,,,,,,,,,,,,,,,,,,,,click #Q4_i1,false,,,,,,,,,448769.1449999984,448768.2399999976,431958.414,431953.54499999667,431975.065,448775.086,,,,
Q4_correct,html.Screen,2_4_2_4_5,2021-01-14T18:39:26.666Z,,,,,,,,,,,,,,,,,,,,,,,,,,,,,,,,,,,,,,,,,,,,,,,,,,,,,,,,,,,,,,,,,,,,,,,,,,,,,,,,,,,,,,,,,,,,,,,,,,,,,,,,,,,,,,,,,,,1106.4689999999246,,response,,,,,,,,,,,,,,,,,,,,,,,,,,,,,,,,,,,,,,,,,,,,,,,,,,,,,,,,,,,,,,,,,,,,,,,,,,,,,keypress,false,,,,,,,,,449883.25500000064,449881.55499999993,448758.499,448769.3399999989,448775.086,449890.705,,,,
Q5,html.Screen,2_4_2_4_6,2021-01-14T18:39:41.086Z,,,,,,,,,,,,,,,,,,,,,,,,,,,,,,,,,,,,,,,,,,,,,,,,,,,,,,,,,,,,,,,,,,,,,,,,,,,,,,,,,,,,,,,,,,,,,,,,,,,,,,,,,,,,,,,,,,,14412.10500000103,,response,,,,,,,,,,,,,,,,,,,,,,,,,,,,,,,,,,,,,,,,,,,,,,,,,,,,,,,,,,Q5_i3,Q5_i2,Q5_i1,Q5_i4,There are more slices of kiwi in snack Option 1,There are more pieces of chocolate in snack Option 2,Snack Option 2 has been chosen,Snack Option 1 has been chosen,morekiwi1,morechoc2,correct,chose1,,,,,,,,click #Q5_i1,false,,,,,,,,,464303.605000001,464302.81000000105,449874.064,449883.56499999645,449890.705,464309.821,,,,
Q5_correct,html.Screen,2_4_2_4_7,2021-01-14T18:39:42.130Z,,,,,,,,,,,,,,,,,,,,,,,,,,,,,,,,,,,,,,,,,,,,,,,,,,,,,,,,,,,,,,,,,,,,,,,,,,,,,,,,,,,,,,,,,,,,,,,,,,,,,,,,,,,,,,,,,,,1036.6190000011702,,response,,,,,,,,,,,,,,,,,,,,,,,,,,,,,,,,,,,,,,,,,,,,,,,,,,,,,,,,,,,,,,,,,,,,,,,,,,,,,keypress,false,,,,,,,,,465347.4900000001,465346.44000000117,464293.075,464303.899999999,464309.821,465358.725,,,,
practice_sequence,flow.Sequence,2_4_2_4,2021-01-14T18:39:42.130Z,,,,,,,,,,,,,,,,,,,,,,,,,,,,,,,,,,,,,,,,,,,,,,,,,,,,,,,,,,,,,,,,,,,,,,,,,,,,,,,,,,,,,,,,,,,,,,,,,,,,,,,,,,,,,,,,,,,52602.38000000117,,completion,,,,,,,,,,,,,,,,,,,,,,,,,,,,,,,,,,,,,,,,,,,,,,,,,,,,,,,,,,,,,,,,,,,,,,,,,,,,,,false,,,,,,,,,465347.7599999969,465346.44000000117,412728.626,412734.295000002,412744.06,465358.725,,,,
final_instru,html.Screen,2_4_2_5,2021-01-14T18:40:20.584Z,,,,,,,,,,,,,,,,,,,,,,,,,,,,,,,,,,,,,,,,,,,,,,,,,,,,,,,,,,,,,,,,,,,,,,,,,,,,,,,,,,,,,,,,,,,,,,,,,,,,,,,,,,,,,,,,,,,38443.234999997076,,done,,,,,,,,,,,,,,,,,,,,,,,,,,,,,,,,,,,,,,,,,,,,,,,,,,,,,,,,,,,,,,,,,,,,,,,,,,,,,,false,,,,,,,,,503802.1349999981,503801.95999999705,465342.138,465347.8899999973,465358.725,503804.079,,,,
blank_screen,canvas.Screen,2_4_2_6_0,2021-01-14T18:40:22.569Z,,,,,,,,,,,,,,,,,,,,,,,,,,,,,,,,,,,,,,,,,,,,,,,,,,,,,,,,,,,,,,,,,,,,,,,,,,,,,,,,,,,,,,,,,,,,,,,,,,,,,,,,,,,,,,,,,,,2047.9579999999842,,timeout,,,,,,,,,,,,,,,,,,,,,,,,,,,,,,,,,,,,,,,,,,,,,,,,,,,,,,,,,,,,,,,,,,,,,,,,,,,,,,false,,,,,,,,,505786.7399999959,505785.558,503789.31,503802.25500000233,503804.079,505852.037,,,,
fixCross,canvas.Screen,2_4_2_6_1_0_0_0_0_0_0,2021-01-14T18:40:23.219Z,,,blank.png,blank.png,blank.png,blank.png,blank.png,blank.png,blank.png,"[""praline.png""]",blank.png,blank.png,blank.png,blank.png,blank.png,,,,,,,,,,,,,,,,,,,,,,,,,,,,,"[""praline.png""]","[""apple.png""]",PB18.png,,,,,,,,,,,0,6,"[""apple.png""]","[""apple.png""]","[""apple.png""]","[""apple.png""]","[""apple.png""]","[""apple.png""]",blank.png,PB18.png,PB12.png,"[""apple.png""]","[""apple.png""]","[""apple.png""]","[""apple.png""]","[""apple.png""]","[""apple.png""]","[""apple.png""]","[""apple.png""]",blank.png,blank.png,blank.png,blank.png,1,"[""praline.png""]",blank.png,blank.png,blank.png,2,"[""apple.png""]","[""apple.png""]",blank.png,blank.png,blank.png,blank.png,PB12.png,,,,,,,,,,,1,,,,,,,,,,,,982.3260000000009,,timeout,,,,,,,,,,,,,4,,,,,,,,,,,,,,,,,,,,,,,,,,,,,,,,,,,,,,,,,,,,,,,,,,,,,,,,,"[""apple.png""]","[""praline.png""]",,,,5,,,false,,1,,,,,,,506436.609999997,506434.979,505785.558,505856.7550000007,505852.037,506834.363,1,,,
timeout,canvas.Screen,2_4_2_6_1_0_0_0_0_0_1,2021-01-14T18:40:24.101Z,,,blank.png,blank.png,blank.png,blank.png,blank.png,blank.png,blank.png,"[""praline.png""]",blank.png,blank.png,blank.png,blank.png,blank.png,,,,,,,,,,,,,,,,,,,,,,,,,,,,,"[""praline.png""]","[""apple.png""]",PB18.png,,,,,,,,,,,0,6,"[""apple.png""]","[""apple.png""]","[""apple.png""]","[""apple.png""]","[""apple.png""]","[""apple.png""]",blank.png,PB18.png,PB12.png,"[""apple.png""]","[""apple.png""]","[""apple.png""]","[""apple.png""]","[""apple.png""]","[""apple.png""]","[""apple.png""]","[""apple.png""]",blank.png,blank.png,blank.png,blank.png,1,"[""praline.png""]",blank.png,blank.png,blank.png,2,"[""apple.png""]","[""apple.png""]",blank.png,blank.png,blank.png,blank.png,PB12.png,,,,,,,,,,,1,,,,,,,,,,,,982.3609999999753,,timeout,,,,,,,,,,,,,4,,,,,,,,,,,,,,,,,,,,,,,,,,,,,,,,,,,,,,,,,,,,,,,,,,,,,,,,,"[""apple.png""]","[""praline.png""]",,,,5,,,false,,1,,,,,,,507318.8949999967,507317.358,506434.979,506940.7399999982,506834.363,507816.724,,,,
choice,canvas.Screen,2_4_2_6_1_0_0_0_0_0_2,2021-01-14T18:40:31.157Z,,,blank.png,blank.png,blank.png,blank.png,blank.png,blank.png,blank.png,"[""praline.png""]",blank.png,blank.png,blank.png,blank.png,blank.png,,,,,,,,,,,,,,,,,,,,,,,,,,,,,"[""praline.png""]","[""apple.png""]",PB18.png,,,,,,,,,,,0,6,"[""apple.png""]","[""apple.png""]","[""apple.png""]","[""apple.png""]","[""apple.png""]","[""apple.png""]",blank.png,PB18.png,PB12.png,"[""apple.png""]","[""apple.png""]","[""apple.png""]","[""apple.png""]","[""apple.png""]","[""apple.png""]","[""apple.png""]","[""apple.png""]",blank.png,blank.png,blank.png,blank.png,1,"[""praline.png""]",blank.png,blank.png,blank.png,2,"[""apple.png""]","[""apple.png""]",blank.png,blank.png,blank.png,blank.png,PB12.png,,,,,,,,,,,1,,,,,,,,,,,,6555.025999998441,,response,,,,,,,,,,,,,4,,,,,,,,,,,,,,,,,,,,,,,,,,,,,,,,,,,,,,,,,,,,,,,,,,,,,,,,,"[""apple.png""]","[""praline.png""]",,,,5,right,keydown(ArrowRight),false,,1,,,,,,,514374.4799999986,514371.7499999984,507317.358,507820.9849999985,507816.724,514876.427,,1,,
square,canvas.Screen,2_4_2_6_1_0_0_0_0_0_3,2021-01-14T18:40:32.643Z,,,blank.png,blank.png,blank.png,blank.png,blank.png,blank.png,blank.png,"[""praline.png""]",blank.png,blank.png,blank.png,blank.png,blank.png,,,,,,,,,,,,,,,,,,,,,,,,,,,,,"[""praline.png""]","[""apple.png""]",PB18.png,,,,,,,,,,,0,6,"[""apple.png""]","[""apple.png""]","[""apple.png""]","[""apple.png""]","[""apple.png""]","[""apple.png""]",blank.png,PB18.png,PB12.png,"[""apple.png""]","[""apple.png""]","[""apple.png""]","[""apple.png""]","[""apple.png""]","[""apple.png""]","[""apple.png""]","[""apple.png""]",blank.png,blank.png,blank.png,blank.png,1,"[""praline.png""]",blank.png,blank.png,blank.png,2,"[""apple.png""]","[""apple.png""]",blank.png,blank.png,blank.png,blank.png,PB12.png,,,,,,,,,,,1,,#808080,#33ff3f,,,,,,,,,999.1209999999846,,timeout,,,,,,,,,,,,,4,,,,,,,,,,,,,,,,,,,,,,,,,,,,,,,,,,,,,,,,,,,,,,,,,,,,,,,,,"[""apple.png""]","[""praline.png""]",,,,5,,,false,,1,,,,,white,black,515861.01999999664,515859.025,514827.286,514843.1550000023,514876.427,515875.548,,,,
ITI_late,canvas.Screen,2_4_2_6_1_0_0_0_0_0_4,2021-01-14T18:40:32.893Z,,,blank.png,blank.png,blank.png,blank.png,blank.png,blank.png,blank.png,"[""praline.png""]",blank.png,blank.png,blank.png,blank.png,blank.png,,,,,,,,,,,,,,,,,,,,,,,,,,,,,"[""praline.png""]","[""apple.png""]",PB18.png,,,,,,,,,,,0,6,"[""apple.png""]","[""apple.png""]","[""apple.png""]","[""apple.png""]","[""apple.png""]","[""apple.png""]",blank.png,PB18.png,PB12.png,"[""apple.png""]","[""apple.png""]","[""apple.png""]","[""apple.png""]","[""apple.png""]","[""apple.png""]","[""apple.png""]","[""apple.png""]",blank.png,blank.png,blank.png,blank.png,1,"[""praline.png""]",blank.png,blank.png,blank.png,2,"[""apple.png""]","[""apple.png""]",blank.png,blank.png,blank.png,blank.png,PB12.png,,,,,,,,,,,1,,,,,,,,,,,,249.7490000000107,,timeout,,,,,,,,,,,,black,4,,,,,,,,,,,,,,,,,,,,,,,,,,,,,,,,,,,,,,,,,,,,,,,,,,,,,,,,,"[""apple.png""]","[""praline.png""]",,,,5,,,false,,1,,,,,,,516110.67000000185,516108.752,515859.025,515867.4000000028,515875.548,516125.297,,,,
choice_sequence,flow.Sequence,2_4_2_6_1_0_0_0_0_0,2021-01-14T18:40:32.895Z,,,blank.png,blank.png,blank.png,blank.png,blank.png,blank.png,blank.png,"[""praline.png""]",blank.png,blank.png,blank.png,blank.png,blank.png,,,,,,,,,,,,,,,,,,,,,,,,,,,,,"[""praline.png""]","[""apple.png""]",PB18.png,,,,,,,,,,,0,6,"[""apple.png""]","[""apple.png""]","[""apple.png""]","[""apple.png""]","[""apple.png""]","[""apple.png""]",blank.png,PB18.png,PB12.png,"[""apple.png""]","[""apple.png""]","[""apple.png""]","[""apple.png""]","[""apple.png""]","[""apple.png""]","[""apple.png""]","[""apple.png""]",blank.png,blank.png,blank.png,blank.png,1,"[""praline.png""]",blank.png,blank.png,blank.png,2,"[""apple.png""]","[""apple.png""]",blank.png,blank.png,blank.png,blank.png,PB12.png,,,,,,,,,,,1,,,,,,,,,,,,10256.714999999967,,completion,,,,,,,,,,,,,4,,,,,,,,,,,,,,,,,,,,,,,,,,,,,,,,,,,,,,,,,,,,,,,,,,,,,,,,,"[""apple.png""]","[""praline.png""]",,,,5,,,false,,1,,,,,,,516112.41000000155,516108.752,505785.558,505855.73000000295,505852.037,516125.297,,,,
fixCross,canvas.Screen,2_4_2_6_1_0_0_0_0_1_0,2021-01-14T18:40:33.642Z,,,blank.png,"[""praline.png""]",blank.png,blank.png,blank.png,blank.png,blank.png,blank.png,blank.png,blank.png,blank.png,blank.png,blank.png,,,,,,,,,,,,,,,,,,,,,,,,,,,,,"[""praline.png""]","[""apple.png""]",PB17.png,,,,,,,,,,,0,6,"[""apple.png""]","[""apple.png""]","[""apple.png""]","[""apple.png""]","[""apple.png""]","[""apple.png""]",blank.png,PB18.png,PB18.png,"[""apple.png""]","[""apple.png""]","[""apple.png""]","[""apple.png""]","[""apple.png""]","[""apple.png""]","[""apple.png""]","[""apple.png""]","[""apple.png""]","[""apple.png""]","[""apple.png""]","[""apple.png""]",1,"[""praline.png""]",blank.png,blank.png,blank.png,6,"[""apple.png""]","[""apple.png""]","[""apple.png""]","[""apple.png""]","[""apple.png""]","[""apple.png""]",PB17.png,,,,,,,,,,,1,,,,,,,,,,,,1298.6909999999916,,timeout,,,,,,,,,,,,,3,,,,,,,,,,,,,,,,,,,,,,,,,,,,,,,,,,,,,,,,,,,,,,,,,,,,,,,,,"[""apple.png""]","[""praline.png""]",,,,5,,,false,,1,,,,,,,516859.57000000053,516857.98,516108.752,516129.0299999964,516125.297,517423.988,2,,,
timeout,canvas.Screen,2_4_2_6_1_0_0_0_0_1_1,2021-01-14T18:40:34.691Z,,,blank.png,"[""praline.png""]",blank.png,blank.png,blank.png,blank.png,blank.png,blank.png,blank.png,blank.png,blank.png,blank.png,blank.png,,,,,,,,,,,,,,,,,,,,,,,,,,,,,"[""praline.png""]","[""apple.png""]",PB17.png,,,,,,,,,,,0,6,"[""apple.png""]","[""apple.png""]","[""apple.png""]","[""apple.png""]","[""apple.png""]","[""apple.png""]",blank.png,PB18.png,PB18.png,"[""apple.png""]","[""apple.png""]","[""apple.png""]","[""apple.png""]","[""apple.png""]","[""apple.png""]","[""apple.png""]","[""apple.png""]","[""apple.png""]","[""apple.png""]","[""apple.png""]","[""apple.png""]",1,"[""praline.png""]",blank.png,blank.png,blank.png,6,"[""apple.png""]","[""apple.png""]","[""apple.png""]","[""apple.png""]","[""apple.png""]","[""apple.png""]",PB17.png,,,,,,,,,,,1,,,,,,,,,,,,1165.4639999999781,,timeout,,,,,,,,,,,,,3,,,,,,,,,,,,,,,,,,,,,,,,,,,,,,,,,,,,,,,,,,,,,,,,,,,,,,,,,"[""apple.png""]","[""praline.png""]",,,,5,,,false,,1,,,,,,,517908.3150000006,517906.889,516857.98,517427.1050000025,517423.988,518589.452,,,,
choice,canvas.Screen,2_4_2_6_1_0_0_0_0_1_2,2021-01-14T18:40:38.360Z,,,blank.png,"[""praline.png""]",blank.png,blank.png,blank.png,blank.png,blank.png,blank.png,blank.png,blank.png,blank.png,blank.png,blank.png,,,,,,,,,,,,,,,,,,,,,,,,,,,,,"[""praline.png""]","[""apple.png""]",PB17.png,,,,,,,,,,,0,6,"[""apple.png""]","[""apple.png""]","[""apple.png""]","[""apple.png""]","[""apple.png""]","[""apple.png""]",blank.png,PB18.png,PB18.png,"[""apple.png""]","[""apple.png""]","[""apple.png""]","[""apple.png""]","[""apple.png""]","[""apple.png""]","[""apple.png""]","[""apple.png""]","[""apple.png""]","[""apple.png""]","[""apple.png""]","[""apple.png""]",1,"[""praline.png""]",blank.png,blank.png,blank.png,6,"[""apple.png""]","[""apple.png""]","[""apple.png""]","[""apple.png""]","[""apple.png""]","[""apple.png""]",PB17.png,,,,,,,,,,,1,,,,,,,,,,,,2986.407999997202,,response,,,,,,,,,,,,,3,,,,,,,,,,,,,,,,,,,,,,,,,,,,,,,,,,,,,,,,,,,,,,,,,,,,,,,,,"[""apple.png""]","[""praline.png""]",,,,5,left,keydown(ArrowLeft),false,,1,,,,,,,521577.5700000013,521575.8599999972,517906.889,518556.22500000027,518589.452,522152.631,,2,,
square,canvas.Screen,2_4_2_6_1_0_0_0_0_1_3,2021-01-14T18:40:39.919Z,,,blank.png,"[""praline.png""]",blank.png,blank.png,blank.png,blank.png,blank.png,blank.png,blank.png,blank.png,blank.png,blank.png,blank.png,,,,,,,,,,,,,,,,,,,,,,,,,,,,,"[""praline.png""]","[""apple.png""]",PB17.png,,,,,,,,,,,0,6,"[""apple.png""]","[""apple.png""]","[""apple.png""]","[""apple.png""]","[""apple.png""]","[""apple.png""]",blank.png,PB18.png,PB18.png,"[""apple.png""]","[""apple.png""]","[""apple.png""]","[""apple.png""]","[""apple.png""]","[""apple.png""]","[""apple.png""]","[""apple.png""]","[""apple.png""]","[""apple.png""]","[""apple.png""]","[""apple.png""]",1,"[""praline.png""]",blank.png,blank.png,blank.png,6,"[""apple.png""]","[""apple.png""]","[""apple.png""]","[""apple.png""]","[""apple.png""]","[""apple.png""]",PB17.png,,,,,,,,,,,1,,#33ff3f,#808080,,,,,,,,,999.0300000000279,,timeout,,,,,,,,,,,,,3,,,,,,,,,,,,,,,,,,,,,,,,,,,,,,,,,,,,,,,,,,,,,,,,,,,,,,,,,"[""apple.png""]","[""praline.png""]",,,,5,,,false,,1,,,,,black,white,523136.8849999999,523135.147,522136.318,522138.5250000021,522152.631,523151.661,,,,
ITI_late,canvas.Screen,2_4_2_6_1_0_0_0_0_1_4,2021-01-14T18:40:40.669Z,,,blank.png,"[""praline.png""]",blank.png,blank.png,blank.png,blank.png,blank.png,blank.png,blank.png,blank.png,blank.png,blank.png,blank.png,,,,,,,,,,,,,,,,,,,,,,,,,,,,,"[""praline.png""]","[""apple.png""]",PB17.png,,,,,,,,,,,0,6,"[""apple.png""]","[""apple.png""]","[""apple.png""]","[""apple.png""]","[""apple.png""]","[""apple.png""]",blank.png,PB18.png,PB18.png,"[""apple.png""]","[""apple.png""]","[""apple.png""]","[""apple.png""]","[""apple.png""]","[""apple.png""]","[""apple.png""]","[""apple.png""]","[""apple.png""]","[""apple.png""]","[""apple.png""]","[""apple.png""]",1,"[""praline.png""]",blank.png,blank.png,blank.png,6,"[""apple.png""]","[""apple.png""]","[""apple.png""]","[""apple.png""]","[""apple.png""]","[""apple.png""]",PB17.png,,,,,,,,,,,1,,,,,,,,,,,,749.2759999999544,,timeout,,,,,,,,,,,,white,3,,,,,,,,,,,,,,,,,,,,,,,,,,,,,,,,,,,,,,,,,,,,,,,,,,,,,,,,,"[""apple.png""]","[""praline.png""]",,,,5,,,false,,1,,,,,,,523886.16000000184,523884.422,523135.147,523142.20999999816,523151.661,523900.937,,,,
choice_sequence,flow.Sequence,2_4_2_6_1_0_0_0_0_1,2021-01-14T18:40:40.670Z,,,blank.png,"[""praline.png""]",blank.png,blank.png,blank.png,blank.png,blank.png,blank.png,blank.png,blank.png,blank.png,blank.png,blank.png,,,,,,,,,,,,,,,,,,,,,,,,,,,,,"[""praline.png""]","[""apple.png""]",PB17.png,,,,,,,,,,,0,6,"[""apple.png""]","[""apple.png""]","[""apple.png""]","[""apple.png""]","[""apple.png""]","[""apple.png""]",blank.png,PB18.png,PB18.png,"[""apple.png""]","[""apple.png""]","[""apple.png""]","[""apple.png""]","[""apple.png""]","[""apple.png""]","[""apple.png""]","[""apple.png""]","[""apple.png""]","[""apple.png""]","[""apple.png""]","[""apple.png""]",1,"[""praline.png""]",blank.png,blank.png,blank.png,6,"[""apple.png""]","[""apple.png""]","[""apple.png""]","[""apple.png""]","[""apple.png""]","[""apple.png""]",PB17.png,,,,,,,,,,,1,,,,,,,,,,,,7759.125,,completion,,,,,,,,,,,,,3,,,,,,,,,,,,,,,,,,,,,,,,,,,,,,,,,,,,,,,,,,,,,,,,,,,,,,,,,"[""apple.png""]","[""praline.png""]",,,,5,,,false,,1,,,,,,,523887.705000001,523884.422,516108.752,516125.8949999974,516125.297,523900.937,,,,
fixCross,canvas.Screen,2_4_2_6_1_0_0_0_0_2_0,2021-01-14T18:40:41.018Z,,,blank.png,blank.png,blank.png,blank.png,blank.png,blank.png,blank.png,"[""praline.png""]",blank.png,blank.png,blank.png,blank.png,blank.png,,,,,,,,,,,,,,,,,,,,,,,,,,,,,"[""praline.png""]","[""apple.png""]",PB18.png,,,,,,,,,,,0,6,"[""apple.png""]","[""apple.png""]","[""apple.png""]","[""apple.png""]","[""apple.png""]","[""apple.png""]",blank.png,PB18.png,PB16.png,"[""apple.png""]","[""apple.png""]","[""apple.png""]","[""apple.png""]","[""apple.png""]","[""apple.png""]","[""apple.png""]","[""apple.png""]","[""apple.png""]","[""apple.png""]","[""apple.png""]",blank.png,1,"[""praline.png""]",blank.png,blank.png,blank.png,5,"[""apple.png""]","[""apple.png""]","[""apple.png""]","[""apple.png""]","[""apple.png""]",blank.png,PB16.png,,,,,,,,,,,1,,,,,,,,,,,,882.3709999999846,,timeout,,,,,,,,,,,,,4,,,,,,,,,,,,,,,,,,,,,,,,,,,,,,,,,,,,,,,,,,,,,,,,,,,,,,,,,"[""apple.png""]","[""praline.png""]",,,,5,,,false,,1,,,,,,,524235.41500000283,524234.047,523884.422,523903.9550000016,523900.937,524783.308,3,,,
timeout,canvas.Screen,2_4_2_6_1_0_0_0_0_2_1,2021-01-14T18:40:42.050Z,,,blank.png,blank.png,blank.png,blank.png,blank.png,blank.png,blank.png,"[""praline.png""]",blank.png,blank.png,blank.png,blank.png,blank.png,,,,,,,,,,,,,,,,,,,,,,,,,,,,,"[""praline.png""]","[""apple.png""]",PB18.png,,,,,,,,,,,0,6,"[""apple.png""]","[""apple.png""]","[""apple.png""]","[""apple.png""]","[""apple.png""]","[""apple.png""]",blank.png,PB18.png,PB16.png,"[""apple.png""]","[""apple.png""]","[""apple.png""]","[""apple.png""]","[""apple.png""]","[""apple.png""]","[""apple.png""]","[""apple.png""]","[""apple.png""]","[""apple.png""]","[""apple.png""]",blank.png,1,"[""praline.png""]",blank.png,blank.png,blank.png,5,"[""apple.png""]","[""apple.png""]","[""apple.png""]","[""apple.png""]","[""apple.png""]",blank.png,PB16.png,,,,,,,,,,,1,,,,,,,,,,,,1048.9650000000838,,timeout,,,,,,,,,,,,,4,,,,,,,,,,,,,,,,,,,,,,,,,,,,,,,,,,,,,,,,,,,,,,,,,,,,,,,,,"[""apple.png""]","[""praline.png""]",,,,5,,,false,,1,,,,,,,525267.6599999977,525266.28,524234.047,524786.3500000022,524783.308,525832.273,,,,
choice,canvas.Screen,2_4_2_6_1_0_0_0_0_2_2,2021-01-14T18:40:43.305Z,,,blank.png,blank.png,blank.png,blank.png,blank.png,blank.png,blank.png,"[""praline.png""]",blank.png,blank.png,blank.png,blank.png,blank.png,,,,,,,,,,,,,,,,,,,,,,,,,,,,,"[""praline.png""]","[""apple.png""]",PB18.png,,,,,,,,,,,0,6,"[""apple.png""]","[""apple.png""]","[""apple.png""]","[""apple.png""]","[""apple.png""]","[""apple.png""]",blank.png,PB18.png,PB16.png,"[""apple.png""]","[""apple.png""]","[""apple.png""]","[""apple.png""]","[""apple.png""]","[""apple.png""]","[""apple.png""]","[""apple.png""]","[""apple.png""]","[""apple.png""]","[""apple.png""]",blank.png,1,"[""praline.png""]",blank.png,blank.png,blank.png,5,"[""apple.png""]","[""apple.png""]","[""apple.png""]","[""apple.png""]","[""apple.png""]",blank.png,PB16.png,,,,,,,,,,,1,,,,,,,,,,,,688.1819999979343,,response,,,,,,,,,,,,,4,,,,,,,,,,,,,,,,,,,,,,,,,,,,,,,,,,,,,,,,,,,,,,,,,,,,,,,,,"[""apple.png""]","[""praline.png""]",,,,5,right,keydown(ArrowRight),false,,1,,,,,,,526522.3550000009,526520.454999998,525266.28,525817.7450000003,525832.273,527064.431,,3,,
square,canvas.Screen,2_4_2_6_1_0_0_0_0_2_3,2021-01-14T18:40:44.831Z,,,blank.png,blank.png,blank.png,blank.png,blank.png,blank.png,blank.png,"[""praline.png""]",blank.png,blank.png,blank.png,blank.png,blank.png,,,,,,,,,,,,,,,,,,,,,,,,,,,,,"[""praline.png""]","[""apple.png""]",PB18.png,,,,,,,,,,,0,6,"[""apple.png""]","[""apple.png""]","[""apple.png""]","[""apple.png""]","[""apple.png""]","[""apple.png""]",blank.png,PB18.png,PB16.png,"[""apple.png""]","[""apple.png""]","[""apple.png""]","[""apple.png""]","[""apple.png""]","[""apple.png""]","[""apple.png""]","[""apple.png""]","[""apple.png""]","[""apple.png""]","[""apple.png""]",blank.png,1,"[""praline.png""]",blank.png,blank.png,blank.png,5,"[""apple.png""]","[""apple.png""]","[""apple.png""]","[""apple.png""]","[""apple.png""]",blank.png,PB16.png,,,,,,,,,,,1,,#808080,#33ff3f,,,,,,,,,999.1190000000643,,timeout,,,,,,,,,,,,,4,,,,,,,,,,,,,,,,,,,,,,,,,,,,,,,,,,,,,,,,,,,,,,,,,,,,,,,,,"[""apple.png""]","[""praline.png""]",,,,5,,,false,,1,,,,,white,black,528048.2699999993,528046.843,527047.867,527056.3949999996,527064.431,528063.55,,,,
ITI_late,canvas.Screen,2_4_2_6_1_0_0_0_0_2_4,2021-01-14T18:40:45.330Z,,,blank.png,blank.png,blank.png,blank.png,blank.png,blank.png,blank.png,"[""praline.png""]",blank.png,blank.png,blank.png,blank.png,blank.png,,,,,,,,,,,,,,,,,,,,,,,,,,,,,"[""praline.png""]","[""apple.png""]",PB18.png,,,,,,,,,,,0,6,"[""apple.png""]","[""apple.png""]","[""apple.png""]","[""apple.png""]","[""apple.png""]","[""apple.png""]",blank.png,PB18.png,PB16.png,"[""apple.png""]","[""apple.png""]","[""apple.png""]","[""apple.png""]","[""apple.png""]","[""apple.png""]","[""apple.png""]","[""apple.png""]","[""apple.png""]","[""apple.png""]","[""apple.png""]",blank.png,1,"[""praline.png""]",blank.png,blank.png,blank.png,5,"[""apple.png""]","[""apple.png""]","[""apple.png""]","[""apple.png""]","[""apple.png""]",blank.png,PB16.png,,,,,,,,,,,1,,,,,,,,,,,,499.451999999932,,timeout,,,,,,,,,,,,white,4,,,,,,,,,,,,,,,,,,,,,,,,,,,,,,,,,,,,,,,,,,,,,,,,,,,,,,,,,"[""apple.png""]","[""praline.png""]",,,,5,,,false,,1,,,,,,,528547.9049999994,528546.413,528046.843,528053.8949999972,528063.55,528563.002,,,,
choice_sequence,flow.Sequence,2_4_2_6_1_0_0_0_0_2,2021-01-14T18:40:45.332Z,,,blank.png,blank.png,blank.png,blank.png,blank.png,blank.png,blank.png,"[""praline.png""]",blank.png,blank.png,blank.png,blank.png,blank.png,,,,,,,,,,,,,,,,,,,,,,,,,,,,,"[""praline.png""]","[""apple.png""]",PB18.png,,,,,,,,,,,0,6,"[""apple.png""]","[""apple.png""]","[""apple.png""]","[""apple.png""]","[""apple.png""]","[""apple.png""]",blank.png,PB18.png,PB16.png,"[""apple.png""]","[""apple.png""]","[""apple.png""]","[""apple.png""]","[""apple.png""]","[""apple.png""]","[""apple.png""]","[""apple.png""]","[""apple.png""]","[""apple.png""]","[""apple.png""]",blank.png,1,"[""praline.png""]",blank.png,blank.png,blank.png,5,"[""apple.png""]","[""apple.png""]","[""apple.png""]","[""apple.png""]","[""apple.png""]",blank.png,PB16.png,,,,,,,,,,,1,,,,,,,,,,,,4645.475999999966,,completion,,,,,,,,,,,,,4,,,,,,,,,,,,,,,,,,,,,,,,,,,,,,,,,,,,,,,,,,,,,,,,,,,,,,,,,"[""apple.png""]","[""praline.png""]",,,,5,,,false,,1,,,,,,,528549.5499999961,528546.413,523884.422,523900.4649999988,523900.937,528563.002,,,,
fixCross,canvas.Screen,2_4_2_6_1_0_0_0_0_3_0,2021-01-14T18:40:45.780Z,,,blank.png,"[""praline.png""]",blank.png,blank.png,blank.png,blank.png,blank.png,blank.png,blank.png,blank.png,blank.png,blank.png,blank.png,,,,,,,,,,,,,,,,,,,,,,,,,,,,,"[""praline.png""]","[""apple.png""]",PB14.png,,,,,,,,,,,0,6,"[""apple.png""]","[""apple.png""]","[""apple.png""]","[""apple.png""]","[""apple.png""]","[""apple.png""]",blank.png,PB18.png,PB18.png,"[""apple.png""]","[""apple.png""]","[""apple.png""]",blank.png,blank.png,blank.png,"[""apple.png""]","[""apple.png""]","[""apple.png""]","[""apple.png""]","[""apple.png""]","[""apple.png""]",1,"[""praline.png""]",blank.png,blank.png,blank.png,3,"[""apple.png""]","[""apple.png""]","[""apple.png""]",blank.png,blank.png,blank.png,PB14.png,,,,,,,,,,,1,,,,,,,,,,,,965.9960000000428,,timeout,,,,,,,,,,,,,3,,,,,,,,,,,,,,,,,,,,,,,,,,,,,,,,,,,,,,,,,,,,,,,,,,,,,,,,,"[""apple.png""]","[""praline.png""]",,,,5,,,false,,1,,,,,,,528997.4199999997,528996.016,528546.413,528565.9250000026,528563.002,529528.998,4,,,
timeout,canvas.Screen,2_4_2_6_1_0_0_0_0_3_1,2021-01-14T18:40:46.795Z,,,blank.png,"[""praline.png""]",blank.png,blank.png,blank.png,blank.png,blank.png,blank.png,blank.png,blank.png,blank.png,blank.png,blank.png,,,,,,,,,,,,,,,,,,,,,,,,,,,,,"[""praline.png""]","[""apple.png""]",PB14.png,,,,,,,,,,,0,6,"[""apple.png""]","[""apple.png""]","[""apple.png""]","[""apple.png""]","[""apple.png""]","[""apple.png""]",blank.png,PB18.png,PB18.png,"[""apple.png""]","[""apple.png""]","[""apple.png""]",blank.png,blank.png,blank.png,"[""apple.png""]","[""apple.png""]","[""apple.png""]","[""apple.png""]","[""apple.png""]","[""apple.png""]",1,"[""praline.png""]",blank.png,blank.png,blank.png,3,"[""apple.png""]","[""apple.png""]","[""apple.png""]",blank.png,blank.png,blank.png,PB14.png,,,,,,,,,,,1,,,,,,,,,,,,998.6469999999972,,timeout,,,,,,,,,,,,,3,,,,,,,,,,,,,,,,,,,,,,,,,,,,,,,,,,,,,,,,,,,,,,,,,,,,,,,,,"[""apple.png""]","[""praline.png""]",,,,5,,,false,,1,,,,,,,530013.1049999981,530011.649,528996.016,529539.850000001,529528.998,530527.645,,,,
choice,canvas.Screen,2_4_2_6_1_0_0_0_0_3_2,2021-01-14T18:40:48.507Z,,,blank.png,"[""praline.png""]",blank.png,blank.png,blank.png,blank.png,blank.png,blank.png,blank.png,blank.png,blank.png,blank.png,blank.png,,,,,,,,,,,,,,,,,,,,,,,,,,,,,"[""praline.png""]","[""apple.png""]",PB14.png,,,,,,,,,,,0,6,"[""apple.png""]","[""apple.png""]","[""apple.png""]","[""apple.png""]","[""apple.png""]","[""apple.png""]",blank.png,PB18.png,PB18.png,"[""apple.png""]","[""apple.png""]","[""apple.png""]",blank.png,blank.png,blank.png,"[""apple.png""]","[""apple.png""]","[""apple.png""]","[""apple.png""]","[""apple.png""]","[""apple.png""]",1,"[""praline.png""]",blank.png,blank.png,blank.png,3,"[""apple.png""]","[""apple.png""]","[""apple.png""]",blank.png,blank.png,blank.png,PB14.png,,,,,,,,,,,1,,,,,,,,,,,,1194.680000002496,,response,,,,,,,,,,,,,3,,,,,,,,,,,,,,,,,,,,,,,,,,,,,,,,,,,,,,,,,,,,,,,,,,,,,,,,,"[""apple.png""]","[""praline.png""]",,,,5,left,keydown(ArrowLeft),false,,1,,,,,,,531724.7599999973,531722.3250000025,530011.649,530510.2049999987,530527.645,532242.725,,4,,
square,canvas.Screen,2_4_2_6_1_0_0_0_0_3_3,2021-01-14T18:40:50.009Z,,,blank.png,"[""praline.png""]",blank.png,blank.png,blank.png,blank.png,blank.png,blank.png,blank.png,blank.png,blank.png,blank.png,blank.png,,,,,,,,,,,,,,,,,,,,,,,,,,,,,"[""praline.png""]","[""apple.png""]",PB14.png,,,,,,,,,,,0,6,"[""apple.png""]","[""apple.png""]","[""apple.png""]","[""apple.png""]","[""apple.png""]","[""apple.png""]",blank.png,PB18.png,PB18.png,"[""apple.png""]","[""apple.png""]","[""apple.png""]",blank.png,blank.png,blank.png,"[""apple.png""]","[""apple.png""]","[""apple.png""]","[""apple.png""]","[""apple.png""]","[""apple.png""]",1,"[""praline.png""]",blank.png,blank.png,blank.png,3,"[""apple.png""]","[""apple.png""]","[""apple.png""]",blank.png,blank.png,blank.png,PB14.png,,,,,,,,,,,1,,#33ff3f,#808080,,,,,,,,,998.9420000000391,,timeout,,,,,,,,,,,,,3,,,,,,,,,,,,,,,,,,,,,,,,,,,,,,,,,,,,,,,,,,,,,,,,,,,,,,,,,"[""apple.png""]","[""praline.png""]",,,,5,,,false,,1,,,,,black,white,533226.4149999974,533225.055,532226.25,532226.8949999998,532242.725,533241.667,,,,
ITI_late,canvas.Screen,2_4_2_6_1_0_0_0_0_3_4,2021-01-14T18:40:51.008Z,,,blank.png,"[""praline.png""]",blank.png,blank.png,blank.png,blank.png,blank.png,blank.png,blank.png,blank.png,blank.png,blank.png,blank.png,,,,,,,,,,,,,,,,,,,,,,,,,,,,,"[""praline.png""]","[""apple.png""]",PB14.png,,,,,,,,,,,0,6,"[""apple.png""]","[""apple.png""]","[""apple.png""]","[""apple.png""]","[""apple.png""]","[""apple.png""]",blank.png,PB18.png,PB18.png,"[""apple.png""]","[""apple.png""]","[""apple.png""]",blank.png,blank.png,blank.png,"[""apple.png""]","[""apple.png""]","[""apple.png""]","[""apple.png""]","[""apple.png""]","[""apple.png""]",1,"[""praline.png""]",blank.png,blank.png,blank.png,3,"[""apple.png""]","[""apple.png""]","[""apple.png""]",blank.png,blank.png,blank.png,PB14.png,,,,,,,,,,,1,,,,,,,,,,,,1032.3029999999562,,timeout,,,,,,,,,,,,white,3,,,,,,,,,,,,,,,,,,,,,,,,,,,,,,,,,,,,,,,,,,,,,,,,,,,,,,,,,"[""apple.png""]","[""praline.png""]",,,,5,,,false,,1,,,,,,,534225.4549999998,534224.093,533225.055,533233.2249999964,533241.667,534273.97,,,,
choice_sequence,flow.Sequence,2_4_2_6_1_0_0_0_0_3,2021-01-14T18:40:51.009Z,,,blank.png,"[""praline.png""]",blank.png,blank.png,blank.png,blank.png,blank.png,blank.png,blank.png,blank.png,blank.png,blank.png,blank.png,,,,,,,,,,,,,,,,,,,,,,,,,,,,,"[""praline.png""]","[""apple.png""]",PB14.png,,,,,,,,,,,0,6,"[""apple.png""]","[""apple.png""]","[""apple.png""]","[""apple.png""]","[""apple.png""]","[""apple.png""]",blank.png,PB18.png,PB18.png,"[""apple.png""]","[""apple.png""]","[""apple.png""]",blank.png,blank.png,blank.png,"[""apple.png""]","[""apple.png""]","[""apple.png""]","[""apple.png""]","[""apple.png""]","[""apple.png""]",1,"[""praline.png""]",blank.png,blank.png,blank.png,3,"[""apple.png""]","[""apple.png""]","[""apple.png""]",blank.png,blank.png,blank.png,PB14.png,,,,,,,,,,,1,,,,,,,,,,,,5661.091000000015,,completion,,,,,,,,,,,,,3,,,,,,,,,,,,,,,,,,,,,,,,,,,,,,,,,,,,,,,,,,,,,,,,,,,,,,,,,"[""apple.png""]","[""praline.png""]",,,,5,,,false,,1,,,,,,,534226.96,534224.093,528546.413,528562.6800000027,528563.002,534273.97,,,,
fixCross,canvas.Screen,2_4_2_6_1_0_0_0_0_4_0,2021-01-14T18:40:51.591Z,,,blank.png,blank.png,blank.png,blank.png,blank.png,blank.png,blank.png,"[""praline.png""]",blank.png,blank.png,blank.png,blank.png,blank.png,,,,,,,,,,,,,,,,,,,,,,,,,,,,,"[""praline.png""]","[""apple.png""]",PB18.png,,,,,,,,,,,0,6,"[""apple.png""]","[""apple.png""]","[""apple.png""]","[""apple.png""]","[""apple.png""]","[""apple.png""]",blank.png,PB18.png,PB07.png,"[""apple.png""]","[""apple.png""]","[""apple.png""]","[""apple.png""]","[""apple.png""]","[""apple.png""]","[""apple.png""]",blank.png,blank.png,blank.png,blank.png,blank.png,1,"[""praline.png""]",blank.png,blank.png,blank.png,1,"[""apple.png""]",blank.png,blank.png,blank.png,blank.png,blank.png,PB07.png,,,,,,,,,,,1,,,,,,,,,,,,982.4100000000326,,timeout,,,,,,,,,,,,,4,,,,,,,,,,,,,,,,,,,,,,,,,,,,,,,,,,,,,,,,,,,,,,,,,,,,,,,,,"[""apple.png""]","[""praline.png""]",,,,5,,,false,,1,,,,,,,534808.6699999985,534806.967,534224.093,534241.8949999992,534273.97,535256.38,5,,,
timeout,canvas.Screen,2_4_2_6_1_0_0_0_0_4_1,2021-01-14T18:40:52.522Z,,,blank.png,blank.png,blank.png,blank.png,blank.png,blank.png,blank.png,"[""praline.png""]",blank.png,blank.png,blank.png,blank.png,blank.png,,,,,,,,,,,,,,,,,,,,,,,,,,,,,"[""praline.png""]","[""apple.png""]",PB18.png,,,,,,,,,,,0,6,"[""apple.png""]","[""apple.png""]","[""apple.png""]","[""apple.png""]","[""apple.png""]","[""apple.png""]",blank.png,PB18.png,PB07.png,"[""apple.png""]","[""apple.png""]","[""apple.png""]","[""apple.png""]","[""apple.png""]","[""apple.png""]","[""apple.png""]",blank.png,blank.png,blank.png,blank.png,blank.png,1,"[""praline.png""]",blank.png,blank.png,blank.png,1,"[""apple.png""]",blank.png,blank.png,blank.png,blank.png,blank.png,PB07.png,,,,,,,,,,,1,,,,,,,,,,,,982.3079999999609,,timeout,,,,,,,,,,,,,4,,,,,,,,,,,,,,,,,,,,,,,,,,,,,,,,,,,,,,,,,,,,,,,,,,,,,,,,,"[""apple.png""]","[""praline.png""]",,,,5,,,false,,1,,,,,,,535739.7300000011,535739.141,534806.967,535259.5749999965,535256.38,536238.688,,,,
choice,canvas.Screen,2_4_2_6_1_0_0_0_0_4_2,2021-01-14T18:40:54.306Z,,,blank.png,blank.png,blank.png,blank.png,blank.png,blank.png,blank.png,"[""praline.png""]",blank.png,blank.png,blank.png,blank.png,blank.png,,,,,,,,,,,,,,,,,,,,,,,,,,,,,"[""praline.png""]","[""apple.png""]",PB18.png,,,,,,,,,,,0,6,"[""apple.png""]","[""apple.png""]","[""apple.png""]","[""apple.png""]","[""apple.png""]","[""apple.png""]",blank.png,PB18.png,PB07.png,"[""apple.png""]","[""apple.png""]","[""apple.png""]","[""apple.png""]","[""apple.png""]","[""apple.png""]","[""apple.png""]",blank.png,blank.png,blank.png,blank.png,blank.png,1,"[""praline.png""]",blank.png,blank.png,blank.png,1,"[""apple.png""]",blank.png,blank.png,blank.png,blank.png,blank.png,PB07.png,,,,,,,,,,,1,,,,,,,,,,,,1280.5619999975897,,response,,,,,,,,,,,,,4,,,,,,,,,,,,,,,,,,,,,,,,,,,,,,,,,,,,,,,,,,,,,,,,,,,,,,,,,"[""apple.png""]","[""praline.png""]",,,,5,left,keydown(ArrowLeft),false,,1,,,,,,,537523.4350000028,537519.2499999976,535739.141,536229.7949999992,536238.688,537986.927,,5,,
square,canvas.Screen,2_4_2_6_1_0_0_0_0_4_3,2021-01-14T18:40:55.753Z,,,blank.png,blank.png,blank.png,blank.png,blank.png,blank.png,blank.png,"[""praline.png""]",blank.png,blank.png,blank.png,blank.png,blank.png,,,,,,,,,,,,,,,,,,,,,,,,,,,,,"[""praline.png""]","[""apple.png""]",PB18.png,,,,,,,,,,,0,6,"[""apple.png""]","[""apple.png""]","[""apple.png""]","[""apple.png""]","[""apple.png""]","[""apple.png""]",blank.png,PB18.png,PB07.png,"[""apple.png""]","[""apple.png""]","[""apple.png""]","[""apple.png""]","[""apple.png""]","[""apple.png""]","[""apple.png""]",blank.png,blank.png,blank.png,blank.png,blank.png,1,"[""praline.png""]",blank.png,blank.png,blank.png,1,"[""apple.png""]",blank.png,blank.png,blank.png,blank.png,blank.png,PB07.png,,,,,,,,,,,1,,#33ff3f,#808080,,,,,,,,,999.1010000000242,,timeout,,,,,,,,,,,,,4,,,,,,,,,,,,,,,,,,,,,,,,,,,,,,,,,,,,,,,,,,,,,,,,,,,,,,,,,"[""apple.png""]","[""praline.png""]",,,,5,,,false,,1,,,,,black,white,538970.914999998,538969.501,537970.548,537971.845,537986.927,538986.028,,,,
ITI_late,canvas.Screen,2_4_2_6_1_0_0_0_0_4_4,2021-01-14T18:40:56.003Z,,,blank.png,blank.png,blank.png,blank.png,blank.png,blank.png,blank.png,"[""praline.png""]",blank.png,blank.png,blank.png,blank.png,blank.png,,,,,,,,,,,,,,,,,,,,,,,,,,,,,"[""praline.png""]","[""apple.png""]",PB18.png,,,,,,,,,,,0,6,"[""apple.png""]","[""apple.png""]","[""apple.png""]","[""apple.png""]","[""apple.png""]","[""apple.png""]",blank.png,PB18.png,PB07.png,"[""apple.png""]","[""apple.png""]","[""apple.png""]","[""apple.png""]","[""apple.png""]","[""apple.png""]","[""apple.png""]",blank.png,blank.png,blank.png,blank.png,blank.png,1,"[""praline.png""]",blank.png,blank.png,blank.png,1,"[""apple.png""]",blank.png,blank.png,blank.png,blank.png,blank.png,PB07.png,,,,,,,,,,,1,,,,,,,,,,,,249.79999999993015,,timeout,,,,,,,,,,,,white,4,,,,,,,,,,,,,,,,,,,,,,,,,,,,,,,,,,,,,,,,,,,,,,,,,,,,,,,,,"[""apple.png""]","[""praline.png""]",,,,5,,,false,,1,,,,,,,539220.3349999981,539219.176,538969.501,538976.0150000001,538986.028,539235.828,,,,
choice_sequence,flow.Sequence,2_4_2_6_1_0_0_0_0_4,2021-01-14T18:40:56.004Z,,,blank.png,blank.png,blank.png,blank.png,blank.png,blank.png,blank.png,"[""praline.png""]",blank.png,blank.png,blank.png,blank.png,blank.png,,,,,,,,,,,,,,,,,,,,,,,,,,,,,"[""praline.png""]","[""apple.png""]",PB18.png,,,,,,,,,,,0,6,"[""apple.png""]","[""apple.png""]","[""apple.png""]","[""apple.png""]","[""apple.png""]","[""apple.png""]",blank.png,PB18.png,PB07.png,"[""apple.png""]","[""apple.png""]","[""apple.png""]","[""apple.png""]","[""apple.png""]","[""apple.png""]","[""apple.png""]",blank.png,blank.png,blank.png,blank.png,blank.png,1,"[""praline.png""]",blank.png,blank.png,blank.png,1,"[""apple.png""]",blank.png,blank.png,blank.png,blank.png,blank.png,PB07.png,,,,,,,,,,,1,,,,,,,,,,,,4945.206000000006,,completion,,,,,,,,,,,,,4,,,,,,,,,,,,,,,,,,,,,,,,,,,,,,,,,,,,,,,,,,,,,,,,,,,,,,,,,"[""apple.png""]","[""praline.png""]",,,,5,,,false,,1,,,,,,,539221.1850000022,539219.176,534224.093,534238.4299999976,534273.97,539235.828,,,,
fixCross,canvas.Screen,2_4_2_6_1_0_0_0_0_5_0,2021-01-14T18:40:56.702Z,,,blank.png,"[""praline.png""]",blank.png,blank.png,blank.png,blank.png,blank.png,blank.png,blank.png,blank.png,blank.png,blank.png,blank.png,,,,,,,,,,,,,,,,,,,,,,,,,,,,,"[""praline.png""]","[""apple.png""]",PB01.png,,,,,,,,,,,0,6,"[""apple.png""]","[""apple.png""]","[""apple.png""]","[""apple.png""]","[""apple.png""]","[""apple.png""]",blank.png,PB18.png,PB18.png,blank.png,blank.png,blank.png,blank.png,blank.png,blank.png,"[""apple.png""]","[""apple.png""]","[""apple.png""]","[""apple.png""]","[""apple.png""]","[""apple.png""]",1,"[""praline.png""]",blank.png,blank.png,blank.png,0,blank.png,blank.png,blank.png,blank.png,blank.png,blank.png,PB01.png,,,,,,,,,,,1,,,,,,,,,,,,1132.1199999999953,,timeout,,,,,,,,,,,,,3,,,,,,,,,,,,,,,,,,,,,,,,,,,,,,,,,,,,,,,,,,,,,,,,,,,,,,,,,"[""apple.png""]","[""praline.png""]",,,,5,,,false,,1,,,,,,,539920.044999999,539918.497,539219.176,539229.1899999982,539235.828,540367.948,6,,,
timeout,canvas.Screen,2_4_2_6_1_0_0_0_0_5_1,2021-01-14T18:40:57.635Z,,,blank.png,"[""praline.png""]",blank.png,blank.png,blank.png,blank.png,blank.png,blank.png,blank.png,blank.png,blank.png,blank.png,blank.png,,,,,,,,,,,,,,,,,,,,,,,,,,,,,"[""praline.png""]","[""apple.png""]",PB01.png,,,,,,,,,,,0,6,"[""apple.png""]","[""apple.png""]","[""apple.png""]","[""apple.png""]","[""apple.png""]","[""apple.png""]",blank.png,PB18.png,PB18.png,blank.png,blank.png,blank.png,blank.png,blank.png,blank.png,"[""apple.png""]","[""apple.png""]","[""apple.png""]","[""apple.png""]","[""apple.png""]","[""apple.png""]",1,"[""praline.png""]",blank.png,blank.png,blank.png,0,blank.png,blank.png,blank.png,blank.png,blank.png,blank.png,PB01.png,,,,,,,,,,,1,,,,,,,,,,,,949.064000000013,,timeout,,,,,,,,,,,,,3,,,,,,,,,,,,,,,,,,,,,,,,,,,,,,,,,,,,,,,,,,,,,,,,,,,,,,,,,"[""apple.png""]","[""praline.png""]",,,,5,,,false,,1,,,,,,,540852.39,540850.973,539918.497,540371.0999999966,540367.948,541317.012,,,,
choice,canvas.Screen,2_4_2_6_1_0_0_0_0_5_2,2021-01-14T18:41:05.305Z,,,blank.png,"[""praline.png""]",blank.png,blank.png,blank.png,blank.png,blank.png,blank.png,blank.png,blank.png,blank.png,blank.png,blank.png,,,,,,,,,,,,,,,,,,,,,,,,,,,,,"[""praline.png""]","[""apple.png""]",PB01.png,,,,,,,,,,,0,6,"[""apple.png""]","[""apple.png""]","[""apple.png""]","[""apple.png""]","[""apple.png""]","[""apple.png""]",blank.png,PB18.png,PB18.png,blank.png,blank.png,blank.png,blank.png,blank.png,blank.png,"[""apple.png""]","[""apple.png""]","[""apple.png""]","[""apple.png""]","[""apple.png""]","[""apple.png""]",1,"[""praline.png""]",blank.png,blank.png,blank.png,0,blank.png,blank.png,blank.png,blank.png,blank.png,blank.png,PB01.png,,,,,,,,,,,1,,,,,,,,,,,,7199.178000002052,,response,,,,,,,,,,,,,3,,,,,,,,,,,,,,,,,,,,,,,,,,,,,,,,,,,,,,,,,,,,,,,,,,,,,,,,,"[""apple.png""]","[""praline.png""]",,,,5,right,keydown(ArrowRight),false,,1,,,,,,,548523.0999999985,548516.190000002,540850.973,541288.7550000014,541317.012,548942.785,,6,,
square,canvas.Screen,2_4_2_6_1_0_0_0_0_5_3,2021-01-14T18:41:06.709Z,,,blank.png,"[""praline.png""]",blank.png,blank.png,blank.png,blank.png,blank.png,blank.png,blank.png,blank.png,blank.png,blank.png,blank.png,,,,,,,,,,,,,,,,,,,,,,,,,,,,,"[""praline.png""]","[""apple.png""]",PB01.png,,,,,,,,,,,0,6,"[""apple.png""]","[""apple.png""]","[""apple.png""]","[""apple.png""]","[""apple.png""]","[""apple.png""]",blank.png,PB18.png,PB18.png,blank.png,blank.png,blank.png,blank.png,blank.png,blank.png,"[""apple.png""]","[""apple.png""]","[""apple.png""]","[""apple.png""]","[""apple.png""]","[""apple.png""]",1,"[""praline.png""]",blank.png,blank.png,blank.png,0,blank.png,blank.png,blank.png,blank.png,blank.png,blank.png,PB01.png,,,,,,,,,,,1,,#808080,#33ff3f,,,,,,,,,999.2389999999432,,timeout,,,,,,,,,,,,,3,,,,,,,,,,,,,,,,,,,,,,,,,,,,,,,,,,,,,,,,,,,,,,,,,,,,,,,,,"[""apple.png""]","[""praline.png""]",,,,5,,,false,,1,,,,,white,black,549926.7199999958,549925.285,548927.059,548933.7650000015,548942.785,549942.024,,,,
ITI_late,canvas.Screen,2_4_2_6_1_0_0_0_0_5_4,2021-01-14T18:41:07.957Z,,,blank.png,"[""praline.png""]",blank.png,blank.png,blank.png,blank.png,blank.png,blank.png,blank.png,blank.png,blank.png,blank.png,blank.png,,,,,,,,,,,,,,,,,,,,,,,,,,,,,"[""praline.png""]","[""apple.png""]",PB01.png,,,,,,,,,,,0,6,"[""apple.png""]","[""apple.png""]","[""apple.png""]","[""apple.png""]","[""apple.png""]","[""apple.png""]",blank.png,PB18.png,PB18.png,blank.png,blank.png,blank.png,blank.png,blank.png,blank.png,"[""apple.png""]","[""apple.png""]","[""apple.png""]","[""apple.png""]","[""apple.png""]","[""apple.png""]",1,"[""praline.png""]",blank.png,blank.png,blank.png,0,blank.png,blank.png,blank.png,blank.png,blank.png,blank.png,PB01.png,,,,,,,,,,,1,,,,,,,,,,,,1248.5509999999776,,timeout,,,,,,,,,,,,black,3,,,,,,,,,,,,,,,,,,,,,,,,,,,,,,,,,,,,,,,,,,,,,,,,,,,,,,,,,"[""apple.png""]","[""praline.png""]",,,,5,,,false,,1,,,,,,,551174.5349999983,551173.909,549925.285,549931.7700000028,549942.024,551190.575,,,,
choice_sequence,flow.Sequence,2_4_2_6_1_0_0_0_0_5,2021-01-14T18:41:07.958Z,,,blank.png,"[""praline.png""]",blank.png,blank.png,blank.png,blank.png,blank.png,blank.png,blank.png,blank.png,blank.png,blank.png,blank.png,,,,,,,,,,,,,,,,,,,,,,,,,,,,,"[""praline.png""]","[""apple.png""]",PB01.png,,,,,,,,,,,0,6,"[""apple.png""]","[""apple.png""]","[""apple.png""]","[""apple.png""]","[""apple.png""]","[""apple.png""]",blank.png,PB18.png,PB18.png,blank.png,blank.png,blank.png,blank.png,blank.png,blank.png,"[""apple.png""]","[""apple.png""]","[""apple.png""]","[""apple.png""]","[""apple.png""]","[""apple.png""]",1,"[""praline.png""]",blank.png,blank.png,blank.png,0,blank.png,blank.png,blank.png,blank.png,blank.png,blank.png,PB01.png,,,,,,,,,,,1,,,,,,,,,,,,11938.081000000006,,completion,,,,,,,,,,,,,3,,,,,,,,,,,,,,,,,,,,,,,,,,,,,,,,,,,,,,,,,,,,,,,,,,,,,,,,,"[""apple.png""]","[""praline.png""]",,,,5,,,false,,1,,,,,,,551175.4450000008,551173.909,539219.176,539227.7049999975,539235.828,551190.575,,,,
fixCross,canvas.Screen,2_4_2_6_1_0_0_0_0_6_0,2021-01-14T18:41:08.607Z,,,blank.png,"[""praline.png""]",blank.png,blank.png,blank.png,blank.png,blank.png,blank.png,blank.png,blank.png,blank.png,blank.png,blank.png,,,,,,,,,,,,,,,,,,,,,,,,,,,,,"[""praline.png""]","[""apple.png""]",PB15.png,,,,,,,,,,,0,6,"[""apple.png""]","[""apple.png""]","[""apple.png""]","[""apple.png""]","[""apple.png""]","[""apple.png""]",blank.png,PB18.png,PB18.png,"[""apple.png""]","[""apple.png""]","[""apple.png""]","[""apple.png""]",blank.png,blank.png,"[""apple.png""]","[""apple.png""]","[""apple.png""]","[""apple.png""]","[""apple.png""]","[""apple.png""]",1,"[""praline.png""]",blank.png,blank.png,blank.png,4,"[""apple.png""]","[""apple.png""]","[""apple.png""]","[""apple.png""]",blank.png,blank.png,PB15.png,,,,,,,,,,,1,,,,,,,,,,,,1182.2020000000484,,timeout,,,,,,,,,,,,,3,,,,,,,,,,,,,,,,,,,,,,,,,,,,,,,,,,,,,,,,,,,,,,,,,,,,,,,,,"[""apple.png""]","[""praline.png""]",,,,5,,,false,,1,,,,,,,551825.1249999958,551823.498,551173.909,551183.8349999962,551190.575,552372.777,7,,,
timeout,canvas.Screen,2_4_2_6_1_0_0_0_0_6_1,2021-01-14T18:41:09.640Z,,,blank.png,"[""praline.png""]",blank.png,blank.png,blank.png,blank.png,blank.png,blank.png,blank.png,blank.png,blank.png,blank.png,blank.png,,,,,,,,,,,,,,,,,,,,,,,,,,,,,"[""praline.png""]","[""apple.png""]",PB15.png,,,,,,,,,,,0,6,"[""apple.png""]","[""apple.png""]","[""apple.png""]","[""apple.png""]","[""apple.png""]","[""apple.png""]",blank.png,PB18.png,PB18.png,"[""apple.png""]","[""apple.png""]","[""apple.png""]","[""apple.png""]",blank.png,blank.png,"[""apple.png""]","[""apple.png""]","[""apple.png""]","[""apple.png""]","[""apple.png""]","[""apple.png""]",1,"[""praline.png""]",blank.png,blank.png,blank.png,4,"[""apple.png""]","[""apple.png""]","[""apple.png""]","[""apple.png""]",blank.png,blank.png,PB15.png,,,,,,,,,,,1,,,,,,,,,,,,1032.2630000000354,,timeout,,,,,,,,,,,,,3,,,,,,,,,,,,,,,,,,,,,,,,,,,,,,,,,,,,,,,,,,,,,,,,,,,,,,,,,"[""apple.png""]","[""praline.png""]",,,,5,,,false,,1,,,,,,,552857.2399999975,552855.78,551823.498,552376.0499999989,552372.777,553405.04,,,,
choice,canvas.Screen,2_4_2_6_1_0_0_0_0_6_2,2021-01-14T18:41:10.314Z,,,blank.png,"[""praline.png""]",blank.png,blank.png,blank.png,blank.png,blank.png,blank.png,blank.png,blank.png,blank.png,blank.png,blank.png,,,,,,,,,,,,,,,,,,,,,,,,,,,,,"[""praline.png""]","[""apple.png""]",PB15.png,,,,,,,,,,,0,6,"[""apple.png""]","[""apple.png""]","[""apple.png""]","[""apple.png""]","[""apple.png""]","[""apple.png""]",blank.png,PB18.png,PB18.png,"[""apple.png""]","[""apple.png""]","[""apple.png""]","[""apple.png""]",blank.png,blank.png,"[""apple.png""]","[""apple.png""]","[""apple.png""]","[""apple.png""]","[""apple.png""]","[""apple.png""]",1,"[""praline.png""]",blank.png,blank.png,blank.png,4,"[""apple.png""]","[""apple.png""]","[""apple.png""]","[""apple.png""]",blank.png,blank.png,PB15.png,,,,,,,,,,,1,,,,,,,,,,,,124.05499999807216,,response,,,,,,,,,,,,,3,,,,,,,,,,,,,,,,,,,,,,,,,,,,,,,,,,,,,,,,,,,,,,,,,,,,,,,,,"[""apple.png""]","[""praline.png""]",,,,5,right,keydown(ArrowRight),false,,1,,,,,,,553531.799999997,553529.0949999981,552855.78,553364.9450000012,553405.04,554054.423,,7,,
square,canvas.Screen,2_4_2_6_1_0_0_0_0_6_3,2021-01-14T18:41:11.822Z,,,blank.png,"[""praline.png""]",blank.png,blank.png,blank.png,blank.png,blank.png,blank.png,blank.png,blank.png,blank.png,blank.png,blank.png,,,,,,,,,,,,,,,,,,,,,,,,,,,,,"[""praline.png""]","[""apple.png""]",PB15.png,,,,,,,,,,,0,6,"[""apple.png""]","[""apple.png""]","[""apple.png""]","[""apple.png""]","[""apple.png""]","[""apple.png""]",blank.png,PB18.png,PB18.png,"[""apple.png""]","[""apple.png""]","[""apple.png""]","[""apple.png""]",blank.png,blank.png,"[""apple.png""]","[""apple.png""]","[""apple.png""]","[""apple.png""]","[""apple.png""]","[""apple.png""]",1,"[""praline.png""]",blank.png,blank.png,blank.png,4,"[""apple.png""]","[""apple.png""]","[""apple.png""]","[""apple.png""]",blank.png,blank.png,PB15.png,,,,,,,,,,,1,,#808080,#33ff3f,,,,,,,,,999.0550000000512,,timeout,,,,,,,,,,,,,3,,,,,,,,,,,,,,,,,,,,,,,,,,,,,,,,,,,,,,,,,,,,,,,,,,,,,,,,,"[""apple.png""]","[""praline.png""]",,,,5,,,false,,1,,,,,white,black,555039.1899999959,555036.956,554021.233,554034.4150000019,554054.423,555053.478,,,,
ITI_late,canvas.Screen,2_4_2_6_1_0_0_0_0_6_4,2021-01-14T18:41:12.820Z,,,blank.png,"[""praline.png""]",blank.png,blank.png,blank.png,blank.png,blank.png,blank.png,blank.png,blank.png,blank.png,blank.png,blank.png,,,,,,,,,,,,,,,,,,,,,,,,,,,,,"[""praline.png""]","[""apple.png""]",PB15.png,,,,,,,,,,,0,6,"[""apple.png""]","[""apple.png""]","[""apple.png""]","[""apple.png""]","[""apple.png""]","[""apple.png""]",blank.png,PB18.png,PB18.png,"[""apple.png""]","[""apple.png""]","[""apple.png""]","[""apple.png""]",blank.png,blank.png,"[""apple.png""]","[""apple.png""]","[""apple.png""]","[""apple.png""]","[""apple.png""]","[""apple.png""]",1,"[""praline.png""]",blank.png,blank.png,blank.png,4,"[""apple.png""]","[""apple.png""]","[""apple.png""]","[""apple.png""]",blank.png,blank.png,PB15.png,,,,,,,,,,,1,,,,,,,,,,,,1032.378000000026,,timeout,,,,,,,,,,,,white,3,,,,,,,,,,,,,,,,,,,,,,,,,,,,,,,,,,,,,,,,,,,,,,,,,,,,,,,,,"[""apple.png""]","[""praline.png""]",,,,5,,,false,,1,,,,,,,556037.4599999995,556036.015,555036.956,555045.2349999978,555053.478,556085.856,,,,
choice_sequence,flow.Sequence,2_4_2_6_1_0_0_0_0_6,2021-01-14T18:41:12.821Z,,,blank.png,"[""praline.png""]",blank.png,blank.png,blank.png,blank.png,blank.png,blank.png,blank.png,blank.png,blank.png,blank.png,blank.png,,,,,,,,,,,,,,,,,,,,,,,,,,,,,"[""praline.png""]","[""apple.png""]",PB15.png,,,,,,,,,,,0,6,"[""apple.png""]","[""apple.png""]","[""apple.png""]","[""apple.png""]","[""apple.png""]","[""apple.png""]",blank.png,PB18.png,PB18.png,"[""apple.png""]","[""apple.png""]","[""apple.png""]","[""apple.png""]",blank.png,blank.png,"[""apple.png""]","[""apple.png""]","[""apple.png""]","[""apple.png""]","[""apple.png""]","[""apple.png""]",1,"[""praline.png""]",blank.png,blank.png,blank.png,4,"[""apple.png""]","[""apple.png""]","[""apple.png""]","[""apple.png""]",blank.png,blank.png,PB15.png,,,,,,,,,,,1,,,,,,,,,,,,4845.4400000000605,,completion,,,,,,,,,,,,,3,,,,,,,,,,,,,,,,,,,,,,,,,,,,,,,,,,,,,,,,,,,,,,,,,,,,,,,,,"[""apple.png""]","[""praline.png""]",,,,5,,,false,,1,,,,,,,556038.9349999968,556036.015,551173.909,551182.1449999989,551190.575,556085.856,,,,
choice_loop,flow.Loop,2_4_2_6_1_0_0_0_0,2021-01-14T18:41:12.822Z,,,,,,,,,,,,,,,,,,,,,,,,,,,,,,,,,,,,,,,,,,,,"[""praline.png""]","[""apple.png""]",,,,,,,,,,,,,,,,,,,,,,,,,,,,,,,,,,,,,,,,,,,,,,,,,,,,,,,,,,,,,,,,,,,,,,50183.978,,completion,,,,,,,,,,,,,,,,,,,,,,,,,,,,,,,,,,,,,,,,,,,,,,,,,,,,,,,,,,,,,,,,,,,,,,"[""apple.png""]","[""praline.png""]",,,,5,,,false,,,,,,,,,556040.1149999961,556036.015,505785.558,505852.7499999982,505852.037,556085.856,,,,
choice_frame,html.Frame,2_4_2_6_1_0_0_0,2021-01-14T18:41:12.824Z,,,,,,,,,,,,,,,,,,,,,,,,,,,,,,,,,,,,,,,,,,,,,,,,,,,,,,,,,,,,,,,,,,,,,,,,,,,,,,,,,,,,,,,,,,,,,,,,,,,,,,,,,,,,,,,,,,,50188.65300000156,,,,,,,,,,,,,,,,,,,,,,,,,,,,,,,,,,,,,,,,,,,,,,,,,,,,,,,,,,,,,,,,,,,,,,,,,,,,,5,,,false,,,,,,,,,556041.1800000002,556040.6900000016,505785.558,505787.6099999994,505852.037,556102.372,,,,
sublock_1,flow.Sequence,2_4_2_6_1_0_0,2021-01-14T18:41:12.824Z,,,,,,,,,,,,,,,,,,,,,,,,,,,,,,,,,,,,,,,,,,,,,,,,,,,,,,,,,,,,,,,,,,,,,,,,,,,,,,,,,,,,,,,,,,,,,,,,,,,,,,,,,,,,,,,,,,,50188.65300000156,,completion,,,,,,,,,,,,,,,,,,,,,,,,,,,,,,,,,,,,,,,,,,,,,,,,,,,,,,,,,,,,,,,,,,,,,,,,,,,5,,,false,,,,,,,,,556041.5950000024,556040.6900000016,505785.558,505787.46500000125,505852.037,556102.372,,,,
fixCross,canvas.Screen,2_4_2_6_1_0_1_0_0_0_0,2021-01-14T18:41:13.170Z,,,blank.png,blank.png,blank.png,blank.png,blank.png,blank.png,blank.png,"[""praline.png""]",blank.png,blank.png,blank.png,blank.png,blank.png,,,,,,,,,,,,,,,,,,,,,,,,,,,,,"[""praline.png""]","[""apple.png""]",PB18.png,,,,,,,,,,,0,6,"[""apple.png""]","[""apple.png""]","[""apple.png""]","[""apple.png""]","[""apple.png""]","[""apple.png""]",blank.png,PB18.png,PB16.png,"[""apple.png""]","[""apple.png""]","[""apple.png""]","[""apple.png""]","[""apple.png""]","[""apple.png""]","[""apple.png""]","[""apple.png""]","[""apple.png""]","[""apple.png""]","[""apple.png""]",blank.png,1,"[""praline.png""]",blank.png,blank.png,blank.png,5,"[""apple.png""]","[""apple.png""]","[""apple.png""]","[""apple.png""]","[""apple.png""]",blank.png,PB16.png,,,,,,,,,,,1,,,,,,,,,,,,815.8669999999693,,timeout,,,,,,,,,,,,,4,,,,,,,,,,,,,,,,,,,,,,,,,,,,,,,,,,,,,,,,,,,,,,,,,,,,,,,,,"[""apple.png""]","[""praline.png""]",,,,3,,,false,,1,,,,,,,556387.324999996,556385.66,556085.856,556097.2899999979,556102.372,556918.239,8,,,
timeout,canvas.Screen,2_4_2_6_1_0_1_0_0_0_1,2021-01-14T18:41:14.185Z,,,blank.png,blank.png,blank.png,blank.png,blank.png,blank.png,blank.png,"[""praline.png""]",blank.png,blank.png,blank.png,blank.png,blank.png,,,,,,,,,,,,,,,,,,,,,,,,,,,,,"[""praline.png""]","[""apple.png""]",PB18.png,,,,,,,,,,,0,6,"[""apple.png""]","[""apple.png""]","[""apple.png""]","[""apple.png""]","[""apple.png""]","[""apple.png""]",blank.png,PB18.png,PB16.png,"[""apple.png""]","[""apple.png""]","[""apple.png""]","[""apple.png""]","[""apple.png""]","[""apple.png""]","[""apple.png""]","[""apple.png""]","[""apple.png""]","[""apple.png""]","[""apple.png""]",blank.png,1,"[""praline.png""]",blank.png,blank.png,blank.png,5,"[""apple.png""]","[""apple.png""]","[""apple.png""]","[""apple.png""]","[""apple.png""]",blank.png,PB16.png,,,,,,,,,,,1,,,,,,,,,,,,1115.5890000000363,,timeout,,,,,,,,,,,,,4,,,,,,,,,,,,,,,,,,,,,,,,,,,,,,,,,,,,,,,,,,,,,,,,,,,,,,,,,"[""apple.png""]","[""praline.png""]",,,,3,,,false,,1,,,,,,,557402.5400000028,557401.221,556385.66,556914.7450000019,556918.239,558033.828,,,,
choice,canvas.Screen,2_4_2_6_1_0_1_0_0_0_2,2021-01-14T18:41:14.819Z,,,blank.png,blank.png,blank.png,blank.png,blank.png,blank.png,blank.png,"[""praline.png""]",blank.png,blank.png,blank.png,blank.png,blank.png,,,,,,,,,,,,,,,,,,,,,,,,,,,,,"[""praline.png""]","[""apple.png""]",PB18.png,,,,,,,,,,,0,6,"[""apple.png""]","[""apple.png""]","[""apple.png""]","[""apple.png""]","[""apple.png""]","[""apple.png""]",blank.png,PB18.png,PB16.png,"[""apple.png""]","[""apple.png""]","[""apple.png""]","[""apple.png""]","[""apple.png""]","[""apple.png""]","[""apple.png""]","[""apple.png""]","[""apple.png""]","[""apple.png""]","[""apple.png""]",blank.png,1,"[""praline.png""]",blank.png,blank.png,blank.png,5,"[""apple.png""]","[""apple.png""]","[""apple.png""]","[""apple.png""]","[""apple.png""]",blank.png,PB16.png,,,,,,,,,,,1,,,,,,,,,,,,497.0790000007255,,response,,,,,,,,,,,,,4,,,,,,,,,,,,,,,,,,,,,,,,,,,,,,,,,,,,,,,,,,,,,,,,,,,,,,,,,"[""apple.png""]","[""praline.png""]",,,,3,right,keydown(ArrowRight),false,,1,,,,,,,558036.334999997,557898.3000000007,557401.221,558022.9350000009,,558549.964,,8,,
square,canvas.Screen,2_4_2_6_1_0_1_0_0_0_3,2021-01-14T18:41:16.316Z,,,blank.png,blank.png,blank.png,blank.png,blank.png,blank.png,blank.png,"[""praline.png""]",blank.png,blank.png,blank.png,blank.png,blank.png,,,,,,,,,,,,,,,,,,,,,,,,,,,,,"[""praline.png""]","[""apple.png""]",PB18.png,,,,,,,,,,,0,6,"[""apple.png""]","[""apple.png""]","[""apple.png""]","[""apple.png""]","[""apple.png""]","[""apple.png""]",blank.png,PB18.png,PB16.png,"[""apple.png""]","[""apple.png""]","[""apple.png""]","[""apple.png""]","[""apple.png""]","[""apple.png""]","[""apple.png""]","[""apple.png""]","[""apple.png""]","[""apple.png""]","[""apple.png""]",blank.png,1,"[""praline.png""]",blank.png,blank.png,blank.png,5,"[""apple.png""]","[""apple.png""]","[""apple.png""]","[""apple.png""]","[""apple.png""]",blank.png,PB16.png,,,,,,,,,,,1,,#808080,#33ff3f,,,,,,,,,999.1739999999991,,timeout,,,,,,,,,,,,,4,,,,,,,,,,,,,,,,,,,,,,,,,,,,,,,,,,,,,,,,,,,,,,,,,,,,,,,,,"[""apple.png""]","[""praline.png""]",,,,3,,,false,,1,,,,,white,black,559533.9049999965,559532.537,558033.828,558537.4599999995,558549.964,559549.138,,,,
ITI_late,canvas.Screen,2_4_2_6_1_0_1_0_0_0_4,2021-01-14T18:41:17.567Z,,,blank.png,blank.png,blank.png,blank.png,blank.png,blank.png,blank.png,"[""praline.png""]",blank.png,blank.png,blank.png,blank.png,blank.png,,,,,,,,,,,,,,,,,,,,,,,,,,,,,"[""praline.png""]","[""apple.png""]",PB18.png,,,,,,,,,,,0,6,"[""apple.png""]","[""apple.png""]","[""apple.png""]","[""apple.png""]","[""apple.png""]","[""apple.png""]",blank.png,PB18.png,PB16.png,"[""apple.png""]","[""apple.png""]","[""apple.png""]","[""apple.png""]","[""apple.png""]","[""apple.png""]","[""apple.png""]","[""apple.png""]","[""apple.png""]","[""apple.png""]","[""apple.png""]",blank.png,1,"[""praline.png""]",blank.png,blank.png,blank.png,5,"[""apple.png""]","[""apple.png""]","[""apple.png""]","[""apple.png""]","[""apple.png""]",blank.png,PB16.png,,,,,,,,,,,1,,,,,,,,,,,,1248.701999999932,,timeout,,,,,,,,,,,,white,4,,,,,,,,,,,,,,,,,,,,,,,,,,,,,,,,,,,,,,,,,,,,,,,,,,,,,,,,,"[""apple.png""]","[""praline.png""]",,,,3,,,false,,1,,,,,,,560784.6349999963,560781.234,559532.537,559538.6399999988,559549.138,560797.84,,,,
choice_sequence,flow.Sequence,2_4_2_6_1_0_1_0_0_0,2021-01-14T18:41:17.569Z,,,blank.png,blank.png,blank.png,blank.png,blank.png,blank.png,blank.png,"[""praline.png""]",blank.png,blank.png,blank.png,blank.png,blank.png,,,,,,,,,,,,,,,,,,,,,,,,,,,,,"[""praline.png""]","[""apple.png""]",PB18.png,,,,,,,,,,,0,6,"[""apple.png""]","[""apple.png""]","[""apple.png""]","[""apple.png""]","[""apple.png""]","[""apple.png""]",blank.png,PB18.png,PB16.png,"[""apple.png""]","[""apple.png""]","[""apple.png""]","[""apple.png""]","[""apple.png""]","[""apple.png""]","[""apple.png""]","[""apple.png""]","[""apple.png""]","[""apple.png""]","[""apple.png""]",blank.png,1,"[""praline.png""]",blank.png,blank.png,blank.png,5,"[""apple.png""]","[""apple.png""]","[""apple.png""]","[""apple.png""]","[""apple.png""]",blank.png,PB16.png,,,,,,,,,,,1,,,,,,,,,,,,4678.862000000081,,completion,,,,,,,,,,,,,4,,,,,,,,,,,,,,,,,,,,,,,,,,,,,,,,,,,,,,,,,,,,,,,,,,,,,,,,,"[""apple.png""]","[""praline.png""]",,,,3,,,false,,1,,,,,,,560786.2150000001,560781.234,556085.856,556096.4400000011,556102.372,560797.84,,,,
fixCross,canvas.Screen,2_4_2_6_1_0_1_0_0_1_0,2021-01-14T18:41:17.965Z,,,blank.png,blank.png,blank.png,blank.png,blank.png,blank.png,blank.png,"[""praline.png""]",blank.png,blank.png,blank.png,blank.png,blank.png,,,,,,,,,,,,,,,,,,,,,,,,,,,,,"[""praline.png""]","[""apple.png""]",PB18.png,,,,,,,,,,,0,6,"[""apple.png""]","[""apple.png""]","[""apple.png""]","[""apple.png""]","[""apple.png""]","[""apple.png""]",blank.png,PB18.png,PB17.png,"[""apple.png""]","[""apple.png""]","[""apple.png""]","[""apple.png""]","[""apple.png""]","[""apple.png""]","[""apple.png""]","[""apple.png""]","[""apple.png""]","[""apple.png""]","[""apple.png""]","[""apple.png""]",1,"[""praline.png""]",blank.png,blank.png,blank.png,6,"[""apple.png""]","[""apple.png""]","[""apple.png""]","[""apple.png""]","[""apple.png""]","[""apple.png""]",PB17.png,,,,,,,,,,,1,,,,,,,,,,,,948.9740000000456,,timeout,,,,,,,,,,,,,4,,,,,,,,,,,,,,,,,,,,,,,,,,,,,,,,,,,,,,,,,,,,,,,,,,,,,,,,,"[""apple.png""]","[""praline.png""]",,,,3,,,false,,1,,,,,,,561182.209999999,561180.845,560781.234,560807.305000002,560797.84,561746.814,9,,,
timeout,canvas.Screen,2_4_2_6_1_0_1_0_0_1_1,2021-01-14T18:41:19.014Z,,,blank.png,blank.png,blank.png,blank.png,blank.png,blank.png,blank.png,"[""praline.png""]",blank.png,blank.png,blank.png,blank.png,blank.png,,,,,,,,,,,,,,,,,,,,,,,,,,,,,"[""praline.png""]","[""apple.png""]",PB18.png,,,,,,,,,,,0,6,"[""apple.png""]","[""apple.png""]","[""apple.png""]","[""apple.png""]","[""apple.png""]","[""apple.png""]",blank.png,PB18.png,PB17.png,"[""apple.png""]","[""apple.png""]","[""apple.png""]","[""apple.png""]","[""apple.png""]","[""apple.png""]","[""apple.png""]","[""apple.png""]","[""apple.png""]","[""apple.png""]","[""apple.png""]","[""apple.png""]",1,"[""praline.png""]",blank.png,blank.png,blank.png,6,"[""apple.png""]","[""apple.png""]","[""apple.png""]","[""apple.png""]","[""apple.png""]","[""apple.png""]",PB17.png,,,,,,,,,,,1,,,,,,,,,,,,1065.6060000000289,,timeout,,,,,,,,,,,,,4,,,,,,,,,,,,,,,,,,,,,,,,,,,,,,,,,,,,,,,,,,,,,,,,,,,,,,,,,"[""apple.png""]","[""praline.png""]",,,,3,,,false,,1,,,,,,,562231.3799999974,562229.763,561180.845,561745.9149999996,561746.814,562812.42,,,,
choice,canvas.Screen,2_4_2_6_1_0_1_0_0_1_2,2021-01-14T18:41:19.603Z,,,blank.png,blank.png,blank.png,blank.png,blank.png,blank.png,blank.png,"[""praline.png""]",blank.png,blank.png,blank.png,blank.png,blank.png,,,,,,,,,,,,,,,,,,,,,,,,,,,,,"[""praline.png""]","[""apple.png""]",PB18.png,,,,,,,,,,,0,6,"[""apple.png""]","[""apple.png""]","[""apple.png""]","[""apple.png""]","[""apple.png""]","[""apple.png""]",blank.png,PB18.png,PB17.png,"[""apple.png""]","[""apple.png""]","[""apple.png""]","[""apple.png""]","[""apple.png""]","[""apple.png""]","[""apple.png""]","[""apple.png""]","[""apple.png""]","[""apple.png""]","[""apple.png""]","[""apple.png""]",1,"[""praline.png""]",blank.png,blank.png,blank.png,6,"[""apple.png""]","[""apple.png""]","[""apple.png""]","[""apple.png""]","[""apple.png""]","[""apple.png""]",PB17.png,,,,,,,,,,,1,,,,,,,,,,,,357.07699999632314,,response,,,,,,,,,,,,,4,,,,,,,,,,,,,,,,,,,,,,,,,,,,,,,,,,,,,,,,,,,,,,,,,,,,,,,,,"[""apple.png""]","[""praline.png""]",,,,3,right,keydown(ArrowRight),false,,1,,,,,,,562820.7150000017,562586.8399999964,562229.763,562807.4750000015,,563361.872,,9,,
square,canvas.Screen,2_4_2_6_1_0_1_0_0_1_3,2021-01-14T18:41:21.128Z,,,blank.png,blank.png,blank.png,blank.png,blank.png,blank.png,blank.png,"[""praline.png""]",blank.png,blank.png,blank.png,blank.png,blank.png,,,,,,,,,,,,,,,,,,,,,,,,,,,,,"[""praline.png""]","[""apple.png""]",PB18.png,,,,,,,,,,,0,6,"[""apple.png""]","[""apple.png""]","[""apple.png""]","[""apple.png""]","[""apple.png""]","[""apple.png""]",blank.png,PB18.png,PB17.png,"[""apple.png""]","[""apple.png""]","[""apple.png""]","[""apple.png""]","[""apple.png""]","[""apple.png""]","[""apple.png""]","[""apple.png""]","[""apple.png""]","[""apple.png""]","[""apple.png""]","[""apple.png""]",1,"[""praline.png""]",blank.png,blank.png,blank.png,6,"[""apple.png""]","[""apple.png""]","[""apple.png""]","[""apple.png""]","[""apple.png""]","[""apple.png""]",PB17.png,,,,,,,,,,,1,,#808080,#33ff3f,,,,,,,,,999.1670000000158,,timeout,,,,,,,,,,,,,4,,,,,,,,,,,,,,,,,,,,,,,,,,,,,,,,,,,,,,,,,,,,,,,,,,,,,,,,,"[""apple.png""]","[""praline.png""]",,,,3,,,false,,1,,,,,white,black,564345.8549999995,564344.439,562812.42,563333.9950000008,563361.872,564361.039,,,,
ITI_late,canvas.Screen,2_4_2_6_1_0_1_0_0_1_4,2021-01-14T18:41:21.628Z,,,blank.png,blank.png,blank.png,blank.png,blank.png,blank.png,blank.png,"[""praline.png""]",blank.png,blank.png,blank.png,blank.png,blank.png,,,,,,,,,,,,,,,,,,,,,,,,,,,,,"[""praline.png""]","[""apple.png""]",PB18.png,,,,,,,,,,,0,6,"[""apple.png""]","[""apple.png""]","[""apple.png""]","[""apple.png""]","[""apple.png""]","[""apple.png""]",blank.png,PB18.png,PB17.png,"[""apple.png""]","[""apple.png""]","[""apple.png""]","[""apple.png""]","[""apple.png""]","[""apple.png""]","[""apple.png""]","[""apple.png""]","[""apple.png""]","[""apple.png""]","[""apple.png""]","[""apple.png""]",1,"[""praline.png""]",blank.png,blank.png,blank.png,6,"[""apple.png""]","[""apple.png""]","[""apple.png""]","[""apple.png""]","[""apple.png""]","[""apple.png""]",PB17.png,,,,,,,,,,,1,,,,,,,,,,,,499.4450000000652,,timeout,,,,,,,,,,,,white,4,,,,,,,,,,,,,,,,,,,,,,,,,,,,,,,,,,,,,,,,,,,,,,,,,,,,,,,,,"[""apple.png""]","[""praline.png""]",,,,3,,,false,,1,,,,,,,564845.3149999987,564843.943,564344.439,564350.9649999978,564361.039,564860.484,,,,
choice_sequence,flow.Sequence,2_4_2_6_1_0_1_0_0_1,2021-01-14T18:41:21.629Z,,,blank.png,blank.png,blank.png,blank.png,blank.png,blank.png,blank.png,"[""praline.png""]",blank.png,blank.png,blank.png,blank.png,blank.png,,,,,,,,,,,,,,,,,,,,,,,,,,,,,"[""praline.png""]","[""apple.png""]",PB18.png,,,,,,,,,,,0,6,"[""apple.png""]","[""apple.png""]","[""apple.png""]","[""apple.png""]","[""apple.png""]","[""apple.png""]",blank.png,PB18.png,PB17.png,"[""apple.png""]","[""apple.png""]","[""apple.png""]","[""apple.png""]","[""apple.png""]","[""apple.png""]","[""apple.png""]","[""apple.png""]","[""apple.png""]","[""apple.png""]","[""apple.png""]","[""apple.png""]",1,"[""praline.png""]",blank.png,blank.png,blank.png,6,"[""apple.png""]","[""apple.png""]","[""apple.png""]","[""apple.png""]","[""apple.png""]","[""apple.png""]",PB17.png,,,,,,,,,,,1,,,,,,,,,,,,4046.103000000003,,completion,,,,,,,,,,,,,4,,,,,,,,,,,,,,,,,,,,,,,,,,,,,,,,,,,,,,,,,,,,,,,,,,,,,,,,,"[""apple.png""]","[""praline.png""]",,,,3,,,false,,1,,,,,,,564846.7299999974,564843.943,560781.234,560804.369999998,560797.84,564860.484,,,,
fixCross,canvas.Screen,2_4_2_6_1_0_1_0_0_2_0,2021-01-14T18:41:21.927Z,,,blank.png,"[""praline.png""]",blank.png,blank.png,blank.png,blank.png,blank.png,blank.png,blank.png,blank.png,blank.png,blank.png,blank.png,,,,,,,,,,,,,,,,,,,,,,,,,,,,,"[""praline.png""]","[""apple.png""]",PB12.png,,,,,,,,,,,0,6,"[""apple.png""]","[""apple.png""]","[""apple.png""]","[""apple.png""]","[""apple.png""]","[""apple.png""]",blank.png,PB18.png,PB18.png,"[""apple.png""]","[""apple.png""]",blank.png,blank.png,blank.png,blank.png,"[""apple.png""]","[""apple.png""]","[""apple.png""]","[""apple.png""]","[""apple.png""]","[""apple.png""]",1,"[""praline.png""]",blank.png,blank.png,blank.png,2,"[""apple.png""]","[""apple.png""]",blank.png,blank.png,blank.png,blank.png,PB12.png,,,,,,,,,,,1,,,,,,,,,,,,765.8819999999832,,timeout,,,,,,,,,,,,,3,,,,,,,,,,,,,,,,,,,,,,,,,,,,,,,,,,,,,,,,,,,,,,,,,,,,,,,,,"[""apple.png""]","[""praline.png""]",,,,3,,,false,,1,,,,,,,565145.0299999997,565143.593,564843.943,564863.4650000022,564860.484,565626.366,10,,,
timeout,canvas.Screen,2_4_2_6_1_0_1_0_0_2_1,2021-01-14T18:41:22.893Z,,,blank.png,"[""praline.png""]",blank.png,blank.png,blank.png,blank.png,blank.png,blank.png,blank.png,blank.png,blank.png,blank.png,blank.png,,,,,,,,,,,,,,,,,,,,,,,,,,,,,"[""praline.png""]","[""apple.png""]",PB12.png,,,,,,,,,,,0,6,"[""apple.png""]","[""apple.png""]","[""apple.png""]","[""apple.png""]","[""apple.png""]","[""apple.png""]",blank.png,PB18.png,PB18.png,"[""apple.png""]","[""apple.png""]",blank.png,blank.png,blank.png,blank.png,"[""apple.png""]","[""apple.png""]","[""apple.png""]","[""apple.png""]","[""apple.png""]","[""apple.png""]",1,"[""praline.png""]",blank.png,blank.png,blank.png,2,"[""apple.png""]","[""apple.png""]",blank.png,blank.png,blank.png,blank.png,PB12.png,,,,,,,,,,,1,,,,,,,,,,,,965.6659999999683,,timeout,,,,,,,,,,,,,3,,,,,,,,,,,,,,,,,,,,,,,,,,,,,,,,,,,,,,,,,,,,,,,,,,,,,,,,,"[""apple.png""]","[""praline.png""]",,,,3,,,false,,1,,,,,,,566110.9700000016,566109.321,565143.593,565622.0449999964,565626.366,566592.032,,,,
choice,canvas.Screen,2_4_2_6_1_0_1_0_0_2_2,2021-01-14T18:41:23.437Z,,,blank.png,"[""praline.png""]",blank.png,blank.png,blank.png,blank.png,blank.png,blank.png,blank.png,blank.png,blank.png,blank.png,blank.png,,,,,,,,,,,,,,,,,,,,,,,,,,,,,"[""praline.png""]","[""apple.png""]",PB12.png,,,,,,,,,,,0,6,"[""apple.png""]","[""apple.png""]","[""apple.png""]","[""apple.png""]","[""apple.png""]","[""apple.png""]",blank.png,PB18.png,PB18.png,"[""apple.png""]","[""apple.png""]",blank.png,blank.png,blank.png,blank.png,"[""apple.png""]","[""apple.png""]","[""apple.png""]","[""apple.png""]","[""apple.png""]","[""apple.png""]",1,"[""praline.png""]",blank.png,blank.png,blank.png,2,"[""apple.png""]","[""apple.png""]",blank.png,blank.png,blank.png,blank.png,PB12.png,,,,,,,,,,,1,,,,,,,,,,,,61.833000000217,,response,,,,,,,,,,,,,3,,,,,,,,,,,,,,,,,,,,,,,,,,,,,,,,,,,,,,,,,,,,,,,,,,,,,,,,,"[""apple.png""]","[""praline.png""]",,,,3,right,keydown(ArrowRight),false,,1,,,,,,,566654.7199999986,566653.8650000002,566109.321,566594.124999996,566592.032,567091.554,,10,,
square,canvas.Screen,2_4_2_6_1_0_1_0_0_2_3,2021-01-14T18:41:24.858Z,,,blank.png,"[""praline.png""]",blank.png,blank.png,blank.png,blank.png,blank.png,blank.png,blank.png,blank.png,blank.png,blank.png,blank.png,,,,,,,,,,,,,,,,,,,,,,,,,,,,,"[""praline.png""]","[""apple.png""]",PB12.png,,,,,,,,,,,0,6,"[""apple.png""]","[""apple.png""]","[""apple.png""]","[""apple.png""]","[""apple.png""]","[""apple.png""]",blank.png,PB18.png,PB18.png,"[""apple.png""]","[""apple.png""]",blank.png,blank.png,blank.png,blank.png,"[""apple.png""]","[""apple.png""]","[""apple.png""]","[""apple.png""]","[""apple.png""]","[""apple.png""]",1,"[""praline.png""]",blank.png,blank.png,blank.png,2,"[""apple.png""]","[""apple.png""]",blank.png,blank.png,blank.png,blank.png,PB12.png,,,,,,,,,,,1,,#808080,#33ff3f,,,,,,,,,999.0910000000149,,timeout,,,,,,,,,,,,,3,,,,,,,,,,,,,,,,,,,,,,,,,,,,,,,,,,,,,,,,,,,,,,,,,,,,,,,,,"[""apple.png""]","[""praline.png""]",,,,3,,,false,,1,,,,,white,black,568075.46,568074.053,567074.951,567086.7349999971,567091.554,568090.645,,,,
ITI_late,canvas.Screen,2_4_2_6_1_0_1_0_0_2_4,2021-01-14T18:41:25.607Z,,,blank.png,"[""praline.png""]",blank.png,blank.png,blank.png,blank.png,blank.png,blank.png,blank.png,blank.png,blank.png,blank.png,blank.png,,,,,,,,,,,,,,,,,,,,,,,,,,,,,"[""praline.png""]","[""apple.png""]",PB12.png,,,,,,,,,,,0,6,"[""apple.png""]","[""apple.png""]","[""apple.png""]","[""apple.png""]","[""apple.png""]","[""apple.png""]",blank.png,PB18.png,PB18.png,"[""apple.png""]","[""apple.png""]",blank.png,blank.png,blank.png,blank.png,"[""apple.png""]","[""apple.png""]","[""apple.png""]","[""apple.png""]","[""apple.png""]","[""apple.png""]",1,"[""praline.png""]",blank.png,blank.png,blank.png,2,"[""apple.png""]","[""apple.png""]",blank.png,blank.png,blank.png,blank.png,PB12.png,,,,,,,,,,,1,,,,,,,,,,,,749.2519999999786,,timeout,,,,,,,,,,,,white,3,,,,,,,,,,,,,,,,,,,,,,,,,,,,,,,,,,,,,,,,,,,,,,,,,,,,,,,,,"[""apple.png""]","[""praline.png""]",,,,3,,,false,,1,,,,,,,568824.6450000006,568823.297,568074.053,568080.7849999983,568090.645,568839.897,,,,
