sender,sender_type,sender_id,timestamp,meta,,Blank,DownLeft1,DownLeft2,DownLeft3,DownLeft4,DownLeft5,DownLeft6,DownRight1,DownRight2,DownRight3,DownRight4,DownRight5,DownRight6,FoodHabits_Fru_item1,FoodHabits_Fru_item2,FoodHabits_Fru_item3,FoodHabits_Fru_item4,FoodHabits_Fru_item5,FoodHabits_Fru_item6,FoodHabits_Fru_item7,FoodHabits_Meat_item1,FoodHabits_Meat_item2,FoodHabits_Meat_item3,FoodHabits_Meat_item4,FoodHabits_Meat_item5,FoodHabits_Meat_item6,FoodHabits_Meat_item7,FoodHabits_Swe_item1,FoodHabits_Swe_item2,FoodHabits_Swe_item3,FoodHabits_Swe_item4,FoodHabits_Swe_item5,FoodHabits_Swe_item6,FoodHabits_Swe_item7,FoodHabits_Veg_item1,FoodHabits_Veg_item2,FoodHabits_Veg_item3,FoodHabits_Veg_item4,FoodHabits_Veg_item5,FoodHabits_Veg_item6,FoodHabits_Veg_item7,ImgA,ImgB,LeftBar,PSS_item01,PSS_item02,PSS_item03,PSS_item04,PSS_item05,PSS_item06,PSS_item07,PSS_item08,PSS_item09,PSS_item10,RefA,RefB,RefB1,RefB2,RefB3,RefB4,RefB5,RefB6,RefB7,Ref_PB,RightBar,UpLeft1,UpLeft2,UpLeft3,UpLeft4,UpLeft5,UpLeft6,UpRight1,UpRight2,UpRight3,UpRight4,UpRight5,UpRight6,VarA,VarA1,VarA2,VarA3,VarA4,VarB,VarB1,VarB2,VarB3,VarB4,VarB5,VarB6,Var_PB,attCheck_fileA,attCheck_fileB,attCheck_fileC,attCheck_fileD,attCheck_options,attCheck_valueA,attCheck_valueB,attCheck_valueC,attCheck_valueD,attention_check,block,browser_name,choseL,choseR,consent_form1,consent_form2,consentconfirmation_form1,consentconfirmation_form2,correct,correctResponse,diet,disorder,duration,edu,ended_on,enjoy,full_version,gender,group,hunger,img,imgTask,input_age,input_meal,input_occ,input_remark,lateRespFeed,list,major_version,message,mixQ_item1,mixQ_item2,mixQ_item3,mixQ_item4,mixQ_item5,name,navigator_appName,navigator_userAgent,os,pracQ1_IDa,pracQ1_IDb,pracQ1_IDc,pracQ1_IDd,pracQ1_optionA,pracQ1_optionB,pracQ1_optionC,pracQ1_optionD,pracQ1_valueA,pracQ1_valueB,pracQ1_valueC,pracQ1_valueD,pracQ2_IDa,pracQ2_IDb,pracQ2_IDc,pracQ2_optionA,pracQ2_optionB,pracQ2_optionC,pracQ2_valueA,pracQ2_valueB,pracQ2_valueC,pracQ4_IDa,pracQ4_IDb,pracQ4_IDc,pracQ4_IDd,pracQ4_optionA,pracQ4_optionB,pracQ4_optionC,pracQ4_optionD,pracQ4_valueA,pracQ4_valueB,pracQ4_valueC,pracQ4_valueD,pracQ5_IDa,pracQ5_IDb,pracQ5_IDc,pracQ5_IDd,pracQ5_optionA,pracQ5_optionB,pracQ5_optionC,pracQ5_optionD,pracQ5_valueA,pracQ5_valueB,pracQ5_valueC,pracQ5_valueD,prefHealty,prefUnhealthy,prolific_ID,psessionID,pstudyID,rep,response,response_action,skip,snack,sublock,subtitle,task_difficulty,task_engagement,task_focus,textL,textR,time_commit,time_end,time_render,time_run,time_show,time_switch,trial_count,trial_countO,url,valence
Title,html.Page,0,2021-01-14T18:48:04.955Z,"{""labjs_version"":""20.1.1"",""labjs_build"":{""flavor"":""production"",""commit"":""c48ac4ada3769e8d34489594ab03097d5f256ac7""},""location"":""https://run.pavlovia.org/E3lab/rebund/html/?PROLIFIC_PID={{%PROLIFIC_PID%}}&STUDY_ID={{%STUDY_ID%}}&SESSION_ID={{%SESSION_ID%}}"",""userAgent"":""Mozilla/5.0 (Windows NT 10.0; Win64; x64) AppleWebKit/537.36 (KHTML, like Gecko) Chrome/87.0.4280.141 Safari/537.36"",""platform"":""Win32"",""language"":""pt-BR"",""locale"":""pt-BR"",""timeZone"":""Europe/Lisbon"",""timezoneOffset"":0,""screen_width"":1440,""screen_height"":900,""scroll_width"":1440,""scroll_height"":748,""window_innerWidth"":1440,""window_innerHeight"":796,""devicePixelRatio"":1}",,,,,,,,,,,,,,,,,,,,,,,,,,,,,,,,,,,,,,,,,,,,,,,,,,,,,,,,,,,,,,,,,,,,,,,,,,,,,,,,,,,,,,,,,,,,,,,,,,,,,,,,,,,,,,,,,,2233.670999642521,,form submission,,,,,,,,,,,,,,,,,,,,,,,,,,,,,,,,,,,,,,,,,,,,,,,,,,,,,,,,,,,,,,,,,,,,,,,,,,,,,,,,,,,,,,,3564.9199998006225,3564.409999642521,1314.072,1301.4649995602667,1330.739,3569.378,,,"{""PROLIFIC_PID"":""{{%PROLIFIC_PID%}}"",""STUDY_ID"":""{{%STUDY_ID%}}"",""SESSION_ID"":""{{%SESSION_ID%}}""}",
get_systemInfo,canvas.Screen,1,2021-01-14T18:48:04.970Z,,,,,,,,,,,,,,,,,,,,,,,,,,,,,,,,,,,,,,,,,,,,,,,,,,,,,,,,,,,,,,,,,,,,,,,,,,,,,,,,,,,,,,,,,,,,,,,,,,,,,,,,Chrome,,,,,,,,,,,2419.213,,timeout,,87.0.4280.141,,,,,,,,,,,,87,,,,,,,,Netscape,"Mozilla/5.0 (Windows NT 10.0; Win64; x64) AppleWebKit/537.36 (KHTML, like Gecko) Chrome/87.0.4280.141 Safari/537.36",Windows,,,,,,,,,,,,,,,,,,,,,,,,,,,,,,,,,,,,,,,,,,,,,,,,{{%PROLIFIC_PID%}},,{{%STUDY_ID%}},,,,,,,,,,,,,3579.7599996440113,3579.259999562055,3552.711,3566.194999963045,3569.378,5988.591,,,,
ConsentForm,html.Form,2_0,2021-01-14T18:48:19.509Z,,,,,,,,,,,,,,,,,,,,,,,,,,,,,,,,,,,,,,,,,,,,,,,,,,,,,,,,,,,,,,,,,,,,,,,,,,,,,,,,,,,,,,,,,,,,,,,,,,,,,,,,,,,true,true,,,,,,,12129.778999807328,,form submission,,,,,,,,,,,,,,,,,,,,,,,,,,,,,,,,,,,,,,,,,,,,,,,,,,,,,,,,,,,,,,,,,,,,,,,,,,,,,,,,,,,,,,,18118.709999602288,18118.369999807328,3579.259999562055,6016.5399997495115,5988.591,18120.913,,,,
PepTalk,html.Page,2_1,2021-01-14T18:48:23.446Z,,,,,,,,,,,,,,,,,,,,,,,,,,,,,,,,,,,,,,,,,,,,,,,,,,,,,,,,,,,,,,,,,,,,,,,,,,,,,,,,,,,,,,,,,,,,,,,,,,,,,,,,,,,,,,,,,,,3934.471999606758,,form submission,,,,,,,,,,,,,,,,,,,,,,,,,,,,,,,,,,,,,,,,,,,,,,,,,,,,,,,,,,,,,,,,,,,,,,,,,,,,,,,,,,,,,,,22055.904999841005,22055.38499960676,18104.246,18118.934999685735,18120.913,22063.699,,,,
Demographics,html.Form,2_2,2021-01-14T18:48:32.441Z,,,,,,,,,,,,,,,,,,,,,,,,,,,,,,,,,,,,,,,,,,,,,,,,,,,,,,,,,,,,,,,,,,,,,,,,,,,,,,,,,,,,,,,,,,,,,,,,,,,,,,,,,,,,,,,,,,,8986.810999971836,3,form submission,,,2,,,,,20,,Student,,,,,,,,,,,,,,,,,,,,,,,,,,,,,,,,,,,,,,,,,,,,,,,,,,,,,,,,,,,,,,,,,,,,,,,,,,,,,31050.799999851733,31050.509999971837,22047.032,22056.249999906868,22063.699,31051.086,,,,
InclusionCrit,html.Form,2_3,2021-01-14T18:48:38.511Z,,,,,,,,,,,,,,,,,,,,,,,,,,,,,,,,,,,,,,,,,,,,,,,,,,,,,,,,,,,,,,,,,,,,,,,,,,,,,,,,,,,,,,,,,,,,,,,,,,,,,,,,,,,,,,,,,1,1,6069.523999634326,,form submission,1,,,,,,,,,,,,,,,,,,,,,,,,,,,,,,,,,,,,,,,,,,,,,,,,,,,,,,,,,,,,,,,,,,,,,,,,,,,,,,,,,,,,,,37120.87500002235,37120.609999634326,31034.419,31051.039999816567,31051.086,37133.25,,,,
Selection,html.Page,2_4_0,2021-01-14T18:48:41.736Z,,,,,,,,,,,,,,,,,,,,,,,,,,,,,,,,,,,,,,,,,,,,,,,,,,,,,,,,,,,,,,,,,,,,,,,,,,,,,,,,,,,,,,,,,,,,,,,,,,,,,,,,,,,,,,,,,,,3211.6049997992814,,form submission,,,,,,,,,,,,,,,,,,,,,,,,,,,,,,,,,,,,,,,,,,,,,,,,,,,,,,,,,,,,,,,,,,,,,,,,,,,,,,,1,,,,,,,,40345.09999956936,40344.85499979928,37116.583,37121.11999979243,37133.25,40357.669,,,,
Load,html.Page,2_4_1,2021-01-14T18:48:41.749Z,,,,,,,,,,,,,,,,,,,,,,,,,,,,,,,,,,,,,,,,,,,,,,,,,,,,,,,,,,,,,,,,,,,,,,,,,,,,,,,,,,,,,,,,,,,,,,,,,,,,,,,,,,,,,,,,,,,4861.563000000002,,timeout,,,,,,,,,,,,,,,,,,,,,,,,,,,,,,,,,,,,,,,,,,,,,,,,,,,,,,,,,,,,,,,,,,,,,,,,,,,,,,,,,,,,,,,40358.7899999693,40358.414999675006,40341.002,40345.304999966174,40357.669,45219.232,,,,
SequenceSweet,flow.Sequence,2_4_2,2021-01-14T18:48:44.340Z,,,,,,,,,,,,,,,,,,,,,,,,,,,,,,,,,,,,,,,,,,,,,,,,,,,,,,,,,,,,,,,,,,,,,,,,,,,,,,,,,,,,,,,,,,,,,,,,,,,,,,,,,,,,,,,,,,,NaN,,skipped,,,,,,,,,,,,,,,,,,,,,,,,,,,,,,,,,,,,,,,,,,,,,,,,,,,,,,,,,,,,,,,,,,,,,,,,,,,,,,true,,,,,,,,,42949.769999831915,40358.414999675006,,42949.41999996081,,45219.232,0,0,,
ratings_instructions,html.Screen,2_4_3_0,2021-01-14T18:48:53.880Z,,,,,,,,,,,,,,,,,,,,,,,,,,,,,,,,,,,,,,,,,,,,,,,,,,,,,,,,,,,,,,,,,,,,,,,,,,,,,,,,,,,,,,,,,,,,,,,,,,,,,,,,,,,,,,,,,,,7267.773000002679,,response,,,,,,,,,,,,,,,,,,,,,,,,,,,,,,,,,,,,,,,,,,,,,,,,,,,,,,,,,,,,,,,,,,,,,,,,,,,,continue,keypress(Space),false,,,,,,,,,52489.37999969348,52487.00500000268,40358.414999675006,45285.25499999523,45219.232,52503.091,0,0,,
fixCross,canvas.Screen,2_4_3_1_0_0,2021-01-14T18:48:54.378Z,,,,,,,,,,,,,,,,,,,,,,,,,,,,,,,,,,,,,,,,,,,,,,,,,,,,,,,,,,,,,,,,,,,,,,,,,,,,,,,,,,,,,,,,,,,,,,,,,,,,,,,,,,,,,,,,,,,498.9760000000024,,timeout,,,,unhealthy,,bretzel.png,,,,,,,,,,,,,,,bretzel,,,,,,,,,,,,,,,,,,,,,,,,,,,,,,,,,,,,,,,,,,,,,,,,,,,,,,,,,false,,,,,,,,,52987.77999961749,52985.4,52486.424,52489.68999972567,52503.091,53002.067,,,,
Rating,html.Form,2_4_3_1_0_1,2021-01-14T18:48:57.730Z,,,,,,,,,,,,,,,,,,,,,,,,,,,,,,,,,,,,,,,,,,,,,,,,,,,,,,,,,,,,,,,,,,,,,,,,,,,,,,,,,,,,,,,,,,,,,,,,,,,,,,,,,,,,,,,,,,,3337.0529996694895,,form submission,,,,unhealthy,,bretzel.png,,,,,,,,,,,,,,,bretzel,,,,,,,,,,,,,,,,,,,,,,,,,,,,,,,,,,,,,,,,,,,,,,,,,,,,,,,,,false,,,,,,,,,56339.42499989644,56339.11999966949,52985.4,52987.93499963358,53002.067,56345.952,,,,100
rating_sequence,flow.Sequence,2_4_3_1_0,2021-01-14T18:48:57.730Z,,,,,,,,,,,,,,,,,,,,,,,,,,,,,,,,,,,,,,,,,,,,,,,,,,,,,,,,,,,,,,,,,,,,,,,,,,,,,,,,,,,,,,,,,,,,,,,,,,,,,,,,,,,,,,,,,,,3836.028999669492,,completion,,,,unhealthy,,bretzel.png,,,,,,,,,,,,,,,bretzel,,,,,,,,,,,,,,,,,,,,,,,,,,,,,,,,,,,,,,,,,,,,,,,,,,,,,,,,,false,,,,,,,,,56339.66499986127,56339.11999966949,52486.424,52489.639999810606,52503.091,56345.952,,,,
fixCross,canvas.Screen,2_4_3_1_1_0,2021-01-14T18:48:58.221Z,,,,,,,,,,,,,,,,,,,,,,,,,,,,,,,,,,,,,,,,,,,,,,,,,,,,,,,,,,,,,,,,,,,,,,,,,,,,,,,,,,,,,,,,,,,,,,,,,,,,,,,,,,,,,,,,,,,500.22699999999895,,timeout,,,,healthy,,walnut.png,,,,,,,,,,,,,,,walnut,,,,,,,,,,,,,,,,,,,,,,,,,,,,,,,,,,,,,,,,,,,,,,,,,,,,,,,,,false,,,,,,,,,56830.20500000566,56829.512,56329.285,56339.80499999598,56345.952,56846.179,,,,
Rating,html.Form,2_4_3_1_1_1,2021-01-14T18:48:59.946Z,,,,,,,,,,,,,,,,,,,,,,,,,,,,,,,,,,,,,,,,,,,,,,,,,,,,,,,,,,,,,,,,,,,,,,,,,,,,,,,,,,,,,,,,,,,,,,,,,,,,,,,,,,,,,,,,,,,1708.8109996258354,,form submission,,,,healthy,,walnut.png,,,,,,,,,,,,,,,walnut,,,,,,,,,,,,,,,,,,,,,,,,,,,,,,,,,,,,,,,,,,,,,,,,,,,,,,,,,false,,,,,,,,,58555.23499986157,58554.98999962583,56829.512,56830.319999717176,56846.179,58567.919,,,,81
rating_sequence,flow.Sequence,2_4_3_1_1,2021-01-14T18:48:59.946Z,,,,,,,,,,,,,,,,,,,,,,,,,,,,,,,,,,,,,,,,,,,,,,,,,,,,,,,,,,,,,,,,,,,,,,,,,,,,,,,,,,,,,,,,,,,,,,,,,,,,,,,,,,,,,,,,,,,2209.0379996258343,,completion,,,,healthy,,walnut.png,,,,,,,,,,,,,,,walnut,,,,,,,,,,,,,,,,,,,,,,,,,,,,,,,,,,,,,,,,,,,,,,,,,,,,,,,,,false,,,,,,,,,58555.40499975905,58554.98999962583,56329.285,56339.759999886155,56345.952,58567.919,,,,
fixCross,canvas.Screen,2_4_3_1_2_0,2021-01-14T18:49:00.443Z,,,,,,,,,,,,,,,,,,,,,,,,,,,,,,,,,,,,,,,,,,,,,,,,,,,,,,,,,,,,,,,,,,,,,,,,,,,,,,,,,,,,,,,,,,,,,,,,,,,,,,,,,,,,,,,,,,,500.16799999999785,,timeout,,,,unhealthy,,chips.png,,,,,,,,,,,,,,,potato chip,,,,,,,,,,,,,,,,,,,,,,,,,,,,,,,,,,,,,,,,,,,,,,,,,,,,,,,,,false,,,,,,,,,59052.944999653846,59051.42,58551.252,58555.53499981761,58567.919,59068.087,,,,
Rating,html.Form,2_4_3_1_2_1,2021-01-14T18:49:02.411Z,,,,,,,,,,,,,,,,,,,,,,,,,,,,,,,,,,,,,,,,,,,,,,,,,,,,,,,,,,,,,,,,,,,,,,,,,,,,,,,,,,,,,,,,,,,,,,,,,,,,,,,,,,,,,,,,,,,1952.4529999395018,,form submission,,,,unhealthy,,chips.png,,,,,,,,,,,,,,,potato chip,,,,,,,,,,,,,,,,,,,,,,,,,,,,,,,,,,,,,,,,,,,,,,,,,,,,,,,,,false,,,,,,,,,61020.885000005364,61020.5399999395,59051.42,59053.05999983102,59068.087,61023.831,,,,68
rating_sequence,flow.Sequence,2_4_3_1_2,2021-01-14T18:49:02.411Z,,,,,,,,,,,,,,,,,,,,,,,,,,,,,,,,,,,,,,,,,,,,,,,,,,,,,,,,,,,,,,,,,,,,,,,,,,,,,,,,,,,,,,,,,,,,,,,,,,,,,,,,,,,,,,,,,,,2452.6209999394996,,completion,,,,unhealthy,,chips.png,,,,,,,,,,,,,,,potato chip,,,,,,,,,,,,,,,,,,,,,,,,,,,,,,,,,,,,,,,,,,,,,,,,,,,,,,,,,false,,,,,,,,,61021.18999976665,61020.5399999395,58551.252,58555.48999970779,58567.919,61023.831,,,,
fixCross,canvas.Screen,2_4_3_1_3_0,2021-01-14T18:49:02.899Z,,,,,,,,,,,,,,,,,,,,,,,,,,,,,,,,,,,,,,,,,,,,,,,,,,,,,,,,,,,,,,,,,,,,,,,,,,,,,,,,,,,,,,,,,,,,,,,,,,,,,,,,,,,,,,,,,,,500.2560000000012,,timeout,,,,unhealthy,,ham.png,,,,,,,,,,,,,,,ham,,,,,,,,,,,,,,,,,,,,,,,,,,,,,,,,,,,,,,,,,,,,,,,,,,,,,,,,,false,,,,,,,,,61508.859999943525,61507.42,61007.164,61021.479999646544,61023.831,61524.087,,,,
Rating,html.Form,2_4_3_1_3_1,2021-01-14T18:49:04.898Z,,,,,,,,,,,,,,,,,,,,,,,,,,,,,,,,,,,,,,,,,,,,,,,,,,,,,,,,,,,,,,,,,,,,,,,,,,,,,,,,,,,,,,,,,,,,,,,,,,,,,,,,,,,,,,,,,,,1983.5479996961658,,form submission,,,,unhealthy,,ham.png,,,,,,,,,,,,,,,ham,,,,,,,,,,,,,,,,,,,,,,,,,,,,,,,,,,,,,,,,,,,,,,,,,,,,,,,,,false,,,,,,,,,63507.92499957606,63507.634999696165,61507.42,61508.97999992594,61524.087,63513.153,,,,35
rating_sequence,flow.Sequence,2_4_3_1_3,2021-01-14T18:49:04.898Z,,,,,,,,,,,,,,,,,,,,,,,,,,,,,,,,,,,,,,,,,,,,,,,,,,,,,,,,,,,,,,,,,,,,,,,,,,,,,,,,,,,,,,,,,,,,,,,,,,,,,,,,,,,,,,,,,,,2483.803999696167,,completion,,,,unhealthy,,ham.png,,,,,,,,,,,,,,,ham,,,,,,,,,,,,,,,,,,,,,,,,,,,,,,,,,,,,,,,,,,,,,,,,,,,,,,,,,false,,,,,,,,,63508.17999988794,63507.634999696165,61007.164,61021.38499962166,61023.831,63513.153,,,,
fixCross,canvas.Screen,2_4_3_1_4_0,2021-01-14T18:49:05.389Z,,,,,,,,,,,,,,,,,,,,,,,,,,,,,,,,,,,,,,,,,,,,,,,,,,,,,,,,,,,,,,,,,,,,,,,,,,,,,,,,,,,,,,,,,,,,,,,,,,,,,,,,,,,,,,,,,,,500.1529999999984,,timeout,,,,unhealthy,,ritz.png,,,,,,,,,,,,,,,cracker,,,,,,,,,,,,,,,,,,,,,,,,,,,,,,,,,,,,,,,,,,,,,,,,,,,,,,,,,false,,,,,,,,,63999.33000002056,63996.639,63496.486,63508.33499990404,63513.153,64013.306,,,,
Rating,html.Form,2_4_3_1_4_1,2021-01-14T18:49:07.346Z,,,,,,,,,,,,,,,,,,,,,,,,,,,,,,,,,,,,,,,,,,,,,,,,,,,,,,,,,,,,,,,,,,,,,,,,,,,,,,,,,,,,,,,,,,,,,,,,,,,,,,,,,,,,,,,,,,,1942.6239997054072,,form submission,,,,unhealthy,,ritz.png,,,,,,,,,,,,,,,cracker,,,,,,,,,,,,,,,,,,,,,,,,,,,,,,,,,,,,,,,,,,,,,,,,,,,,,,,,,false,,,,,,,,,65956.16999967024,65955.9299997054,63996.639,63999.46999968961,64013.306,65968.988,,,,100
rating_sequence,flow.Sequence,2_4_3_1_4,2021-01-14T18:49:07.346Z,,,,,,,,,,,,,,,,,,,,,,,,,,,,,,,,,,,,,,,,,,,,,,,,,,,,,,,,,,,,,,,,,,,,,,,,,,,,,,,,,,,,,,,,,,,,,,,,,,,,,,,,,,,,,,,,,,,2442.7769997054056,,completion,,,,unhealthy,,ritz.png,,,,,,,,,,,,,,,cracker,,,,,,,,,,,,,,,,,,,,,,,,,,,,,,,,,,,,,,,,,,,,,,,,,,,,,,,,,false,,,,,,,,,65956.34999964386,65955.9299997054,63496.486,63508.289999794215,63513.153,65968.988,,,,
fixCross,canvas.Screen,2_4_3_1_5_0,2021-01-14T18:49:07.843Z,,,,,,,,,,,,,,,,,,,,,,,,,,,,,,,,,,,,,,,,,,,,,,,,,,,,,,,,,,,,,,,,,,,,,,,,,,,,,,,,,,,,,,,,,,,,,,,,,,,,,,,,,,,,,,,,,,,500.18099999999686,,timeout,,,,unhealthy,,dried_meat.png,,,,,,,,,,,,,,,dried meat,,,,,,,,,,,,,,,,,,,,,,,,,,,,,,,,,,,,,,,,,,,,,,,,,,,,,,,,,false,,,,,,,,,66453.31999985501,66452.502,65952.321,65956.48999977857,65968.988,66469.169,,,,
Rating,html.Form,2_4_3_1_5_1,2021-01-14T18:49:09.819Z,,,,,,,,,,,,,,,,,,,,,,,,,,,,,,,,,,,,,,,,,,,,,,,,,,,,,,,,,,,,,,,,,,,,,,,,,,,,,,,,,,,,,,,,,,,,,,,,,,,,,,,,,,,,,,,,,,,1959.1009995674249,,form submission,,,,unhealthy,,dried_meat.png,,,,,,,,,,,,,,,dried meat,,,,,,,,,,,,,,,,,,,,,,,,,,,,,,,,,,,,,,,,,,,,,,,,,,,,,,,,,false,,,,,,,,,68428.47999976948,68428.26999956742,66452.502,66453.44499964267,66469.169,68441.594,,,,89
rating_sequence,flow.Sequence,2_4_3_1_5,2021-01-14T18:49:09.819Z,,,,,,,,,,,,,,,,,,,,,,,,,,,,,,,,,,,,,,,,,,,,,,,,,,,,,,,,,,,,,,,,,,,,,,,,,,,,,,,,,,,,,,,,,,,,,,,,,,,,,,,,,,,,,,,,,,,2459.2819995674217,,completion,,,,unhealthy,,dried_meat.png,,,,,,,,,,,,,,,dried meat,,,,,,,,,,,,,,,,,,,,,,,,,,,,,,,,,,,,,,,,,,,,,,,,,,,,,,,,,false,,,,,,,,,68428.64499986172,68428.26999956742,65952.321,65956.44999993965,65968.988,68441.594,,,,
fixCross,canvas.Screen,2_4_3_1_6_0,2021-01-14T18:49:10.317Z,,,,,,,,,,,,,,,,,,,,,,,,,,,,,,,,,,,,,,,,,,,,,,,,,,,,,,,,,,,,,,,,,,,,,,,,,,,,,,,,,,,,,,,,,,,,,,,,,,,,,,,,,,,,,,,,,,,500.17699999999604,,timeout,,,,healthy,,celery.png,,,,,,,,,,,,,,,celery,,,,,,,,,,,,,,,,,,,,,,,,,,,,,,,,,,,,,,,,,,,,,,,,,,,,,,,,,false,,,,,,,,,68926.69499991462,68925.104,68424.927,68428.77499992028,68441.594,68941.771,,,,
Rating,html.Form,2_4_3_1_6_1,2021-01-14T18:49:12.371Z,,,,,,,,,,,,,,,,,,,,,,,,,,,,,,,,,,,,,,,,,,,,,,,,,,,,,,,,,,,,,,,,,,,,,,,,,,,,,,,,,,,,,,,,,,,,,,,,,,,,,,,,,,,,,,,,,,,2038.8289998934633,,form submission,,,,healthy,,celery.png,,,,,,,,,,,,,,,celery,,,,,,,,,,,,,,,,,,,,,,,,,,,,,,,,,,,,,,,,,,,,,,,,,,,,,,,,,false,,,,,,,,,70980.80999962986,70980.59999989346,68925.104,68926.81999970227,68941.771,70997.694,,,,0
rating_sequence,flow.Sequence,2_4_3_1_6,2021-01-14T18:49:12.371Z,,,,,,,,,,,,,,,,,,,,,,,,,,,,,,,,,,,,,,,,,,,,,,,,,,,,,,,,,,,,,,,,,,,,,,,,,,,,,,,,,,,,,,,,,,,,,,,,,,,,,,,,,,,,,,,,,,,2539.0059998934594,,completion,,,,healthy,,celery.png,,,,,,,,,,,,,,,celery,,,,,,,,,,,,,,,,,,,,,,,,,,,,,,,,,,,,,,,,,,,,,,,,,,,,,,,,,false,,,,,,,,,70980.9749997221,70980.59999989346,68424.927,68428.72999981046,68441.594,70997.694,,,,
fixCross,canvas.Screen,2_4_3_1_7_0,2021-01-14T18:49:12.874Z,,,,,,,,,,,,,,,,,,,,,,,,,,,,,,,,,,,,,,,,,,,,,,,,,,,,,,,,,,,,,,,,,,,,,,,,,,,,,,,,,,,,,,,,,,,,,,,,,,,,,,,,,,,,,,,,,,,500.22699999999895,,timeout,,,,healthy,,edamame.png,,,,,,,,,,,,,,,edamame,,,,,,,,,,,,,,,,,,,,,,,,,,,,,,,,,,,,,,,,,,,,,,,,,,,,,,,,,false,,,,,,,,,71483.82999980822,71481.254,70981.027,70981.10499978065,70997.694,71497.921,,,,
Rating,html.Form,2_4_3_1_7_1,2021-01-14T18:49:14.203Z,,,,,,,,,,,,,,,,,,,,,,,,,,,,,,,,,,,,,,,,,,,,,,,,,,,,,,,,,,,,,,,,,,,,,,,,,,,,,,,,,,,,,,,,,,,,,,,,,,,,,,,,,,,,,,,,,,,1314.8589998037496,,form submission,,,,healthy,,edamame.png,,,,,,,,,,,,,,,edamame,,,,,,,,,,,,,,,,,,,,,,,,,,,,,,,,,,,,,,,,,,,,,,,,,,,,,,,,,false,,,,,,,,,72813.03999992087,72812.77999980375,71481.254,71484.00999978185,71497.921,72818.794,,,,0
rating_sequence,flow.Sequence,2_4_3_1_7,2021-01-14T18:49:14.203Z,,,,,,,,,,,,,,,,,,,,,,,,,,,,,,,,,,,,,,,,,,,,,,,,,,,,,,,,,,,,,,,,,,,,,,,,,,,,,,,,,,,,,,,,,,,,,,,,,,,,,,,,,,,,,,,,,,,1815.0859998037486,,completion,,,,healthy,,edamame.png,,,,,,,,,,,,,,,edamame,,,,,,,,,,,,,,,,,,,,,,,,,,,,,,,,,,,,,,,,,,,,,,,,,,,,,,,,,false,,,,,,,,,72813.23999958113,72812.77999980375,70981.027,70981.06499994174,70997.694,72818.794,,,,
fixCross,canvas.Screen,2_4_3_1_8_0,2021-01-14T18:49:14.694Z,,,,,,,,,,,,,,,,,,,,,,,,,,,,,,,,,,,,,,,,,,,,,,,,,,,,,,,,,,,,,,,,,,,,,,,,,,,,,,,,,,,,,,,,,,,,,,,,,,,,,,,,,,,,,,,,,,,500.1600000000035,,timeout,,,,unhealthy,,peanut_cracker.png,,,,,,,,,,,,,,,peanut chip,,,,,,,,,,,,,,,,,,,,,,,,,,,,,,,,,,,,,,,,,,,,,,,,,,,,,,,,,false,,,,,,,,,73304.13999967277,73302.287,72802.127,72813.39499959722,72818.794,73318.954,,,,
Rating,html.Form,2_4_3_1_8_1,2021-01-14T18:49:16.179Z,,,,,,,,,,,,,,,,,,,,,,,,,,,,,,,,,,,,,,,,,,,,,,,,,,,,,,,,,,,,,,,,,,,,,,,,,,,,,,,,,,,,,,,,,,,,,,,,,,,,,,,,,,,,,,,,,,,1470.0409996024391,,form submission,,,,unhealthy,,peanut_cracker.png,,,,,,,,,,,,,,,peanut chip,,,,,,,,,,,,,,,,,,,,,,,,,,,,,,,,,,,,,,,,,,,,,,,,,,,,,,,,,false,,,,,,,,,74789.21499988064,74788.99499960244,73302.287,73304.26999973133,73318.954,74789.955,,,,70
rating_sequence,flow.Sequence,2_4_3_1_8,2021-01-14T18:49:16.180Z,,,,,,,,,,,,,,,,,,,,,,,,,,,,,,,,,,,,,,,,,,,,,,,,,,,,,,,,,,,,,,,,,,,,,,,,,,,,,,,,,,,,,,,,,,,,,,,,,,,,,,,,,,,,,,,,,,,1970.2009996024426,,completion,,,,unhealthy,,peanut_cracker.png,,,,,,,,,,,,,,,peanut chip,,,,,,,,,,,,,,,,,,,,,,,,,,,,,,,,,,,,,,,,,,,,,,,,,,,,,,,,,false,,,,,,,,,74789.38999958336,74788.99499960244,72802.127,72813.33999987692,72818.794,74789.955,,,,
fixCross,canvas.Screen,2_4_3_1_9_0,2021-01-14T18:49:16.665Z,,,,,,,,,,,,,,,,,,,,,,,,,,,,,,,,,,,,,,,,,,,,,,,,,,,,,,,,,,,,,,,,,,,,,,,,,,,,,,,,,,,,,,,,,,,,,,,,,,,,,,,,,,,,,,,,,,,500.38799999999173,,timeout,,,,healthy,,carrot.png,,,,,,,,,,,,,,,carrot,,,,,,,,,,,,,,,,,,,,,,,,,,,,,,,,,,,,,,,,,,,,,,,,,,,,,,,,,false,,,,,,,,,75275.06499970332,75273.676,74773.288,74789.53999979421,74789.955,75290.343,,,,
Rating,html.Form,2_4_3_1_9_1,2021-01-14T18:49:18.260Z,,,,,,,,,,,,,,,,,,,,,,,,,,,,,,,,,,,,,,,,,,,,,,,,,,,,,,,,,,,,,,,,,,,,,,,,,,,,,,,,,,,,,,,,,,,,,,,,,,,,,,,,,,,,,,,,,,,1578.8769997603958,,form submission,,,,healthy,,carrot.png,,,,,,,,,,,,,,,carrot,,,,,,,,,,,,,,,,,,,,,,,,,,,,,,,,,,,,,,,,,,,,,,,,,,,,,,,,,false,,,,,,,,,76869.43499976769,76869.21999976039,75273.676,75275.27499990538,75290.343,76895.131,,,,65
rating_sequence,flow.Sequence,2_4_3_1_9,2021-01-14T18:49:18.260Z,,,,,,,,,,,,,,,,,,,,,,,,,,,,,,,,,,,,,,,,,,,,,,,,,,,,,,,,,,,,,,,,,,,,,,,,,,,,,,,,,,,,,,,,,,,,,,,,,,,,,,,,,,,,,,,,,,,2079.2649997603876,,completion,,,,healthy,,carrot.png,,,,,,,,,,,,,,,carrot,,,,,,,,,,,,,,,,,,,,,,,,,,,,,,,,,,,,,,,,,,,,,,,,,,,,,,,,,false,,,,,,,,,76869.62000001222,76869.21999976039,74773.288,74789.48499960825,74789.955,76895.131,,,,
fixCross,canvas.Screen,2_4_3_1_10_0,2021-01-14T18:49:18.770Z,,,,,,,,,,,,,,,,,,,,,,,,,,,,,,,,,,,,,,,,,,,,,,,,,,,,,,,,,,,,,,,,,,,,,,,,,,,,,,,,,,,,,,,,,,,,,,,,,,,,,,,,,,,,,,,,,,,500.19800000000396,,timeout,,,,healthy,,cucumber.png,,,,,,,,,,,,,,,cucumber,,,,,,,,,,,,,,,,,,,,,,,,,,,,,,,,,,,,,,,,,,,,,,,,,,,,,,,,,false,,,,,,,,,77379.52499976382,77378.662,76878.464,76869.75499987602,76895.131,77395.329,,,,
Rating,html.Form,2_4_3_1_10_1,2021-01-14T18:49:20.532Z,,,,,,,,,,,,,,,,,,,,,,,,,,,,,,,,,,,,,,,,,,,,,,,,,,,,,,,,,,,,,,,,,,,,,,,,,,,,,,,,,,,,,,,,,,,,,,,,,,,,,,,,,,,,,,,,,,,1746.2059999442718,,form submission,,,,healthy,,cucumber.png,,,,,,,,,,,,,,,cucumber,,,,,,,,,,,,,,,,,,,,,,,,,,,,,,,,,,,,,,,,,,,,,,,,,,,,,,,,,false,,,,,,,,,79141.74499968067,79141.53499994427,77378.662,77379.71499981359,77395.329,79167.3,,,,0
rating_sequence,flow.Sequence,2_4_3_1_10,2021-01-14T18:49:20.532Z,,,,,,,,,,,,,,,,,,,,,,,,,,,,,,,,,,,,,,,,,,,,,,,,,,,,,,,,,,,,,,,,,,,,,,,,,,,,,,,,,,,,,,,,,,,,,,,,,,,,,,,,,,,,,,,,,,,2246.4039999442757,,completion,,,,healthy,,cucumber.png,,,,,,,,,,,,,,,cucumber,,,,,,,,,,,,,,,,,,,,,,,,,,,,,,,,,,,,,,,,,,,,,,,,,,,,,,,,,false,,,,,,,,,79141.90499996766,79141.53499994427,76878.464,76869.71499957144,76895.131,79167.3,,,,
fixCross,canvas.Screen,2_4_3_1_11_0,2021-01-14T18:49:21.042Z,,,,,,,,,,,,,,,,,,,,,,,,,,,,,,,,,,,,,,,,,,,,,,,,,,,,,,,,,,,,,,,,,,,,,,,,,,,,,,,,,,,,,,,,,,,,,,,,,,,,,,,,,,,,,,,,,,,500.19400000000314,,timeout,,,,healthy,,radish.png,,,,,,,,,,,,,,,radish,,,,,,,,,,,,,,,,,,,,,,,,,,,,,,,,,,,,,,,,,,,,,,,,,,,,,,,,,false,,,,,,,,,79651.97999961674,79650.827,79150.633,79142.04999990761,79167.3,79667.494,,,,
Rating,html.Form,2_4_3_1_11_1,2021-01-14T18:49:22.628Z,,,,,,,,,,,,,,,,,,,,,,,,,,,,,,,,,,,,,,,,,,,,,,,,,,,,,,,,,,,,,,,,,,,,,,,,,,,,,,,,,,,,,,,,,,,,,,,,,,,,,,,,,,,,,,,,,,,1570.1659996350645,,form submission,,,,healthy,,radish.png,,,,,,,,,,,,,,,radish,,,,,,,,,,,,,,,,,,,,,,,,,,,,,,,,,,,,,,,,,,,,,,,,,,,,,,,,,false,,,,,,,,,81237.9049998708,81237.65999963507,79650.827,79652.35999971628,79667.494,81238.935,,,,0
rating_sequence,flow.Sequence,2_4_3_1_11,2021-01-14T18:49:22.628Z,,,,,,,,,,,,,,,,,,,,,,,,,,,,,,,,,,,,,,,,,,,,,,,,,,,,,,,,,,,,,,,,,,,,,,,,,,,,,,,,,,,,,,,,,,,,,,,,,,,,,,,,,,,,,,,,,,,2070.3599996350677,,completion,,,,healthy,,radish.png,,,,,,,,,,,,,,,radish,,,,,,,,,,,,,,,,,,,,,,,,,,,,,,,,,,,,,,,,,,,,,,,,,,,,,,,,,false,,,,,,,,,81238.1149996072,81237.65999963507,79150.633,79142.00499979779,79167.3,81238.935,,,,
fixCross,canvas.Screen,2_4_3_1_12_0,2021-01-14T18:49:23.114Z,,,,,,,,,,,,,,,,,,,,,,,,,,,,,,,,,,,,,,,,,,,,,,,,,,,,,,,,,,,,,,,,,,,,,,,,,,,,,,,,,,,,,,,,,,,,,,,,,,,,,,,,,,,,,,,,,,,500.26900000000023,,timeout,,,,healthy,,pickle.png,,,,,,,,,,,,,,,pickle,,,,,,,,,,,,,,,,,,,,,,,,,,,,,,,,,,,,,,,,,,,,,,,,,,,,,,,,,false,,,,,,,,,81723.82499976084,81722.537,81222.268,81238.2749998942,81238.935,81739.204,,,,
Rating,html.Form,2_4_3_1_12_1,2021-01-14T18:49:24.980Z,,,,,,,,,,,,,,,,,,,,,,,,,,,,,,,,,,,,,,,,,,,,,,,,,,,,,,,,,,,,,,,,,,,,,,,,,,,,,,,,,,,,,,,,,,,,,,,,,,,,,,,,,,,,,,,,,,,1850.8959996811172,,form submission,,,,healthy,,pickle.png,,,,,,,,,,,,,,,pickle,,,,,,,,,,,,,,,,,,,,,,,,,,,,,,,,,,,,,,,,,,,,,,,,,,,,,,,,,false,,,,,,,,,83590.29999980703,83590.09999968112,81722.537,81724.029999692,81739.204,83594.66,,,,12
rating_sequence,flow.Sequence,2_4_3_1_12,2021-01-14T18:49:24.981Z,,,,,,,,,,,,,,,,,,,,,,,,,,,,,,,,,,,,,,,,,,,,,,,,,,,,,,,,,,,,,,,,,,,,,,,,,,,,,,,,,,,,,,,,,,,,,,,,,,,,,,,,,,,,,,,,,,,2351.1649996811175,,completion,,,,healthy,,pickle.png,,,,,,,,,,,,,,,pickle,,,,,,,,,,,,,,,,,,,,,,,,,,,,,,,,,,,,,,,,,,,,,,,,,,,,,,,,,false,,,,,,,,,83590.47999978065,83590.09999968112,81222.268,81238.22999978438,81238.935,83594.66,,,,
fixCross,canvas.Screen,2_4_3_1_13_0,2021-01-14T18:49:25.470Z,,,,,,,,,,,,,,,,,,,,,,,,,,,,,,,,,,,,,,,,,,,,,,,,,,,,,,,,,,,,,,,,,,,,,,,,,,,,,,,,,,,,,,,,,,,,,,,,,,,,,,,,,,,,,,,,,,,500.06999999999243,,timeout,,,,unhealthy,,sausage.png,,,,,,,,,,,,,,,salami,,,,,,,,,,,,,,,,,,,,,,,,,,,,,,,,,,,,,,,,,,,,,,,,,,,,,,,,,false,,,,,,,,,84080.03999991342,84078.063,83577.993,83590.61999991536,83594.66,84094.73,,,,
Rating,html.Form,2_4_3_1_13_1,2021-01-14T18:49:27.357Z,,,,,,,,,,,,,,,,,,,,,,,,,,,,,,,,,,,,,,,,,,,,,,,,,,,,,,,,,,,,,,,,,,,,,,,,,,,,,,,,,,,,,,,,,,,,,,,,,,,,,,,,,,,,,,,,,,,1871.6799998772185,,form submission,,,,unhealthy,,sausage.png,,,,,,,,,,,,,,,salami,,,,,,,,,,,,,,,,,,,,,,,,,,,,,,,,,,,,,,,,,,,,,,,,,,,,,,,,,false,,,,,,,,,85966.66499972343,85966.40999987721,84078.063,84080.16999997199,84094.73,85966.924,,,,74
rating_sequence,flow.Sequence,2_4_3_1_13,2021-01-14T18:49:27.357Z,,,,,,,,,,,,,,,,,,,,,,,,,,,,,,,,,,,,,,,,,,,,,,,,,,,,,,,,,,,,,,,,,,,,,,,,,,,,,,,,,,,,,,,,,,,,,,,,,,,,,,,,,,,,,,,,,,,2371.749999877211,,completion,,,,unhealthy,,sausage.png,,,,,,,,,,,,,,,salami,,,,,,,,,,,,,,,,,,,,,,,,,,,,,,,,,,,,,,,,,,,,,,,,,,,,,,,,,false,,,,,,,,,85966.88500000164,85966.40999987721,83577.993,83590.57499980554,83594.66,85966.924,,,,
fixCross,canvas.Screen,2_4_3_1_14_0,2021-01-14T18:49:27.842Z,,,,,,,,,,,,,,,,,,,,,,,,,,,,,,,,,,,,,,,,,,,,,,,,,,,,,,,,,,,,,,,,,,,,,,,,,,,,,,,,,,,,,,,,,,,,,,,,,,,,,,,,,,,,,,,,,,,500.2810000000027,,timeout,,,,healthy,,cashew.png,,,,,,,,,,,,,,,cashew,,,,,,,,,,,,,,,,,,,,,,,,,,,,,,,,,,,,,,,,,,,,,,,,,,,,,,,,,false,,,,,,,,,86451.83999976143,86450.538,85950.257,85967.0099997893,85966.924,86467.205,,,,
Rating,html.Form,2_4_3_1_14_1,2021-01-14T18:49:30.333Z,,,,,,,,,,,,,,,,,,,,,,,,,,,,,,,,,,,,,,,,,,,,,,,,,,,,,,,,,,,,,,,,,,,,,,,,,,,,,,,,,,,,,,,,,,,,,,,,,,,,,,,,,,,,,,,,,,,2475.4799996671063,,form submission,,,,healthy,,cashew.png,,,,,,,,,,,,,,,cashew,,,,,,,,,,,,,,,,,,,,,,,,,,,,,,,,,,,,,,,,,,,,,,,,,,,,,,,,,false,,,,,,,,,88942.96999974176,88942.68499966711,86450.538,86452.03499961644,86467.205,88957.48,,,,24
rating_sequence,flow.Sequence,2_4_3_1_14,2021-01-14T18:49:30.333Z,,,,,,,,,,,,,,,,,,,,,,,,,,,,,,,,,,,,,,,,,,,,,,,,,,,,,,,,,,,,,,,,,,,,,,,,,,,,,,,,,,,,,,,,,,,,,,,,,,,,,,,,,,,,,,,,,,,2975.760999667109,,completion,,,,healthy,,cashew.png,,,,,,,,,,,,,,,cashew,,,,,,,,,,,,,,,,,,,,,,,,,,,,,,,,,,,,,,,,,,,,,,,,,,,,,,,,,false,,,,,,,,,88943.14999971539,88942.68499966711,85950.257,85966.96999995038,85966.924,88957.48,,,,
fixCross,canvas.Screen,2_4_3_1_15_0,2021-01-14T18:49:30.834Z,,,,,,,,,,,,,,,,,,,,,,,,,,,,,,,,,,,,,,,,,,,,,,,,,,,,,,,,,,,,,,,,,,,,,,,,,,,,,,,,,,,,,,,,,,,,,,,,,,,,,,,,,,,,,,,,,,,500.10599999999977,,timeout,,,,unhealthy,,frie.png,,,,,,,,,,,,,,,frie,,,,,,,,,,,,,,,,,,,,,,,,,,,,,,,,,,,,,,,,,,,,,,,,,,,,,,,,,false,,,,,,,,,89443.47999989986,89440.919,88940.813,88943.36499972269,88957.48,89457.586,,,,
Rating,html.Form,2_4_3_1_15_1,2021-01-14T18:49:32.446Z,,,,,,,,,,,,,,,,,,,,,,,,,,,,,,,,,,,,,,,,,,,,,,,,,,,,,,,,,,,,,,,,,,,,,,,,,,,,,,,,,,,,,,,,,,,,,,,,,,,,,,,,,,,,,,,,,,,1597.603999751751,,form submission,,,,unhealthy,,frie.png,,,,,,,,,,,,,,,frie,,,,,,,,,,,,,,,,,,,,,,,,,,,,,,,,,,,,,,,,,,,,,,,,,,,,,,,,,false,,,,,,,,,91055.43999979272,91055.18999975175,89440.919,89443.7199998647,89457.586,91062.478,,,,74
rating_sequence,flow.Sequence,2_4_3_1_15,2021-01-14T18:49:32.446Z,,,,,,,,,,,,,,,,,,,,,,,,,,,,,,,,,,,,,,,,,,,,,,,,,,,,,,,,,,,,,,,,,,,,,,,,,,,,,,,,,,,,,,,,,,,,,,,,,,,,,,,,,,,,,,,,,,,2097.7099997517507,,completion,,,,unhealthy,,frie.png,,,,,,,,,,,,,,,frie,,,,,,,,,,,,,,,,,,,,,,,,,,,,,,,,,,,,,,,,,,,,,,,,,,,,,,,,,false,,,,,,,,,91055.64999999478,91055.18999975175,88940.813,88943.2899998501,88957.48,91062.478,,,,
fixCross,canvas.Screen,2_4_3_1_16_0,2021-01-14T18:49:32.939Z,,,,,,,,,,,,,,,,,,,,,,,,,,,,,,,,,,,,,,,,,,,,,,,,,,,,,,,,,,,,,,,,,,,,,,,,,,,,,,,,,,,,,,,,,,,,,,,,,,,,,,,,,,,,,,,,,,,500.19800000000396,,timeout,,,,unhealthy,,nacho.png,,,,,,,,,,,,,,,nacho,,,,,,,,,,,,,,,,,,,,,,,,,,,,,,,,,,,,,,,,,,,,,,,,,,,,,,,,,false,,,,,,,,,91549.15499966592,91546.009,91045.811,91055.80500001088,91062.478,91562.676,,,,
Rating,html.Form,2_4_3_1_16_1,2021-01-14T18:49:35.046Z,,,,,,,,,,,,,,,,,,,,,,,,,,,,,,,,,,,,,,,,,,,,,,,,,,,,,,,,,,,,,,,,,,,,,,,,,,,,,,,,,,,,,,,,,,,,,,,,,,,,,,,,,,,,,,,,,,,2092.7739999619953,,form submission,,,,unhealthy,,nacho.png,,,,,,,,,,,,,,,nacho,,,,,,,,,,,,,,,,,,,,,,,,,,,,,,,,,,,,,,,,,,,,,,,,,,,,,,,,,false,,,,,,,,,93655.6599996984,93655.449999962,91546.009,91549.28499972448,91562.676,93668.759,,,,100
rating_sequence,flow.Sequence,2_4_3_1_16,2021-01-14T18:49:35.046Z,,,,,,,,,,,,,,,,,,,,,,,,,,,,,,,,,,,,,,,,,,,,,,,,,,,,,,,,,,,,,,,,,,,,,,,,,,,,,,,,,,,,,,,,,,,,,,,,,,,,,,,,,,,,,,,,,,,2592.9719999619992,,completion,,,,unhealthy,,nacho.png,,,,,,,,,,,,,,,nacho,,,,,,,,,,,,,,,,,,,,,,,,,,,,,,,,,,,,,,,,,,,,,,,,,,,,,,,,,false,,,,,,,,,93655.82999959588,93655.449999962,91045.811,91055.75999990106,91062.478,93668.759,,,,
fixCross,canvas.Screen,2_4_3_1_17_0,2021-01-14T18:49:35.544Z,,,,,,,,,,,,,,,,,,,,,,,,,,,,,,,,,,,,,,,,,,,,,,,,,,,,,,,,,,,,,,,,,,,,,,,,,,,,,,,,,,,,,,,,,,,,,,,,,,,,,,,,,,,,,,,,,,,500.15299999999115,,timeout,,,,healthy,,tomato.png,,,,,,,,,,,,,,,cherry tomato,,,,,,,,,,,,,,,,,,,,,,,,,,,,,,,,,,,,,,,,,,,,,,,,,,,,,,,,,false,,,,,,,,,94153.38999964297,94152.245,93652.092,93655.95999965444,93668.759,94168.912,,,,
Rating,html.Form,2_4_3_1_17_1,2021-01-14T18:49:37.054Z,,,,,,,,,,,,,,,,,,,,,,,,,,,,,,,,,,,,,,,,,,,,,,,,,,,,,,,,,,,,,,,,,,,,,,,,,,,,,,,,,,,,,,,,,,,,,,,,,,,,,,,,,,,,,,,,,,,1494.7079997738037,,form submission,,,,healthy,,tomato.png,,,,,,,,,,,,,,,cherry tomato,,,,,,,,,,,,,,,,,,,,,,,,,,,,,,,,,,,,,,,,,,,,,,,,,,,,,,,,,false,,,,,,,,,95663.83999958634,95663.6199997738,94152.245,94153.53499958292,94168.912,95673.464,,,,79
rating_sequence,flow.Sequence,2_4_3_1_17,2021-01-14T18:49:37.054Z,,,,,,,,,,,,,,,,,,,,,,,,,,,,,,,,,,,,,,,,,,,,,,,,,,,,,,,,,,,,,,,,,,,,,,,,,,,,,,,,,,,,,,,,,,,,,,,,,,,,,,,,,,,,,,,,,,,1994.860999773795,,completion,,,,healthy,,tomato.png,,,,,,,,,,,,,,,cherry tomato,,,,,,,,,,,,,,,,,,,,,,,,,,,,,,,,,,,,,,,,,,,,,,,,,,,,,,,,,false,,,,,,,,,95664.03999971226,95663.6199997738,93652.092,93655.91999981552,93668.759,95673.464,,,,
rating_loop,flow.Loop,2_4_3_1,2021-01-14T18:49:37.054Z,,,,,,,,,,,,,,,,,,,,,,,,,,,,,,,,,,,,,,,,,,,,,,,,,,,,,,,,,,,,,,,,,,,,,,,,,,,,,,,,,,,,,,,,,,,,,,,,,,,,,,,,,,,,,,,,,,,43160.5289997738,,completion,,,,,,,,,,,,,,,,,,,,,,,,,,,,,,,,,,,,,,,,,,,,,,,,,,,,,,,,,,,,,,,,,,,,,,,,,,,,,,false,,,,,,,,,95664.24999991432,95663.6199997738,52486.424,52489.5799998194,52503.091,95673.464,,,,
data_transmission,html.Screen,2_4_3_2,2021-01-14T18:49:37.061Z,,,,,,,,,,,,,,,,,,,,,,,,,,,,,,,,,,,,,,,,,,,,,,,,,,,,,,,,,,,,,,,,,,,,,,,,,,,,,,,,,,,,,,,,,,,,,,,,,,,,,,,,,,,,,,,,,,,NaN,,no compatible backend,,,,,,,,,,,,,,,Transferring data,,,,,,,,,,,,,,,,,,,,,,,,,,,,,,,,,,,,,,,,,,,,,,,,,,,,,,,,,,,,,,,false,,,Please wait a second…,,,,,,95671.359999571,95671.1299996823,,95664.36999989673,,95673.464,,,,
instructions,html.Screen,2_4_3_3,2021-01-14T18:50:14.406Z,,,,,,,,,,,,,,,,,,,,,,,,,,,,,,,,,,,,,,,,,,,,,,,,,,,,,,,,,,,,,,,,,,,,,,,,,,,,,,,,,,,,,,,,,,,,,,,,,,,,,,,,,,,,,,,,,,,37341.66599972328,,done,,,,,,,,,,,,,,,,,,,,,,,,,,,,,,,,,,,,,,,,,,,,,,,,,,,,,,,,,,,,,,,,,,,,,,,,,,,,,,false,,,,,,,,,133015.33499965444,133015.12999972329,95656.797,95671.54999962077,95673.464,133017.671,,,,
Q1,html.Screen,2_4_3_4_0,2021-01-14T18:50:18.790Z,,,,,,,,,,,,,,,,,,,,,,,,,,,,,,,,,,,,,,,,,,,,,,,,,,,,,,,,,,,,,,,,,,,,,,,,,,,,,,,,,,,,,,,,,,,,,,,,,,,,,,,,,,,,,,,false,input_Q1==3,,,4378.188999582169,,response,,,,,,,,,,,,,,,,,,,,,,,,,Q1_i3,Q1_i4,Q1_i1,Q1_i2,3,4,1,2,correct,false,false,false,,,,,,,,,,,,,,,,,,,,,,,,,,,,,,,,,,,,,,,,,click #Q1_i3,false,,,,,,,,,137399.95499979705,137395.85999958217,133001.004,133015.50999982283,133017.671,137406.884,,,,
Q1_correct,html.Screen,2_4_3_4_1,2021-01-14T18:50:19.996Z,,,,,,,,,,,,,,,,,,,,,,,,,,,,,,,,,,,,,,,,,,,,,,,,,,,,,,,,,,,,,,,,,,,,,,,,,,,,,,,,,,,,,,,,,,,,,,,,,,,,,,,,,,,,,,,,,,,1198.260999921331,,response,,,,,,,,,,,,,,,,,,,,,,,,,,,,,,,,,,,,,,,,,,,,,,,,,,,,,,,,,,,,,,,,,,,,,,,,,,,,,keypress,false,,,,,,,,,138605.88999977335,138605.14499992132,137390.217,137400.40999976918,137406.884,138607.149,,,,
Q2,html.Screen,2_4_3_4_2,2021-01-14T18:50:24.348Z,,,,,,,,,,,,,,,,,,,,,,,,,,,,,,,,,,,,,,,,,,,,,,,,,,,,,,,,,,,,,,,,,,,,,,,,,,,,,,,,,,,,,,,,,,,,,,,,,,,,,,,,,,,,,,,,,,,4349.360999930854,,response,,,,,,,,,,,,,,,,,,,,,,,,,,,,,,,,,,,,,Q2_i2,Q2_i3,Q2_i1,Option 2,Same amount,Option 1,opt2,same,correct,,,,,,,,,,,,,,,,,,,,,,,,,,,,,,,,click #Q2_i1,false,,,,,,,,,142957.39999972284,142956.50999993086,138590.482,138606.0349997133,138607.149,142967.953,,,,
Q2_correct,html.Screen,2_4_3_4_3,2021-01-14T18:50:25.257Z,,,,,,,,,,,,,,,,,,,,,,,,,,,,,,,,,,,,,,,,,,,,,,,,,,,,,,,,,,,,,,,,,,,,,,,,,,,,,,,,,,,,,,,,,,,,,,,,,,,,,,,,,,,,,,,,,,,897.696999584994,,response,,,,,,,,,,,,,,,,,,,,,,,,,,,,,,,,,,,,,,,,,,,,,,,,,,,,,,,,,,,,,,,,,,,,,,,,,,,,,keypress,false,,,,,,,,,143866.38499982655,143865.649999585,142951.286,142957.62000000104,142967.953,143870.458,,,,
Q4,html.Screen,2_4_3_4_4,2021-01-14T18:50:39.846Z,,,,,,,,,,,,,,,,,,,,,,,,,,,,,,,,,,,,,,,,,,,,,,,,,,,,,,,,,,,,,,,,,,,,,,,,,,,,,,,,,,,,,,,,,,,,,,,,,,,,,,,,,,,,,,,,,,,14583.951999772893,,response,,,,,,,,,,,,,,,,,,,,,,,,,,,,,,,,,,,,,,,,,,,,,,Q4_i3,Q4_i4,Q4_i2,Q4_i1,Press the arrow key that corresponds with the snack option with more food items,Press the space key,Indicate the number of food items in each snack option,Press the arrow key that corresponds with the snack option I prefer,morefood,pressspace,indicate,correct,,,,,,,,,,,,,,,,,,,,click #Q4_i1,false,,,,,,,,,158455.42999962345,158454.4099997729,143853.791,143866.50000000373,143870.458,158457.384,,,,
Q4_correct,html.Screen,2_4_3_4_5,2021-01-14T18:50:40.882Z,,,,,,,,,,,,,,,,,,,,,,,,,,,,,,,,,,,,,,,,,,,,,,,,,,,,,,,,,,,,,,,,,,,,,,,,,,,,,,,,,,,,,,,,,,,,,,,,,,,,,,,,,,,,,,,,,,,1033.4509998295398,,response,,,,,,,,,,,,,,,,,,,,,,,,,,,,,,,,,,,,,,,,,,,,,,,,,,,,,,,,,,,,,,,,,,,,,,,,,,,,,keypress,false,,,,,,,,,159491.55999999493,159490.83499982953,158440.717,158455.66999958828,158457.384,159507.57,,,,
Q5,html.Screen,2_4_3_4_6,2021-01-14T18:51:10.250Z,,,,,,,,,,,,,,,,,,,,,,,,,,,,,,,,,,,,,,,,,,,,,,,,,,,,,,,,,,,,,,,,,,,,,,,,,,,,,,,,,,,,,,,,,,,,,,,,,,,,,,,,,,,,,,,,,,,29350.88499997958,,response,,,,,,,,,,,,,,,,,,,,,,,,,,,,,,,,,,,,,,,,,,,,,,,,,,,,,,,,,,Q5_i3,Q5_i2,Q5_i4,Q5_i1,There are more slices of kiwi in snack Option 1,There are more pieces of chocolate in snack Option 2,Snack Option 1 has been chosen,Snack Option 2 has been chosen,morekiwi1,morechoc2,chose1,correct,,,,,,,,click #Q5_i1,false,,,,,,,,,188859.40999956802,188858.45499997959,159490.903,159491.69999966398,159507.57,188863.581,,,,
Q5_correct,html.Screen,2_4_3_4_7,2021-01-14T18:51:11.032Z,,,,,,,,,,,,,,,,,,,,,,,,,,,,,,,,,,,,,,,,,,,,,,,,,,,,,,,,,,,,,,,,,,,,,,,,,,,,,,,,,,,,,,,,,,,,,,,,,,,,,,,,,,,,,,,,,,,777.259000007296,,response,,,,,,,,,,,,,,,,,,,,,,,,,,,,,,,,,,,,,,,,,,,,,,,,,,,,,,,,,,,,,,,,,,,,,,,,,,,,,keypress,false,,,,,,,,,189641.54999982566,189640.8400000073,188846.914,188859.62999984622,188863.581,189647.216,,,,
practice_sequence,flow.Sequence,2_4_3_4,2021-01-14T18:51:11.032Z,,,,,,,,,,,,,,,,,,,,,,,,,,,,,,,,,,,,,,,,,,,,,,,,,,,,,,,,,,,,,,,,,,,,,,,,,,,,,,,,,,,,,,,,,,,,,,,,,,,,,,,,,,,,,,,,,,,56623.1690000073,,completion,,,,,,,,,,,,,,,,,,,,,,,,,,,,,,,,,,,,,,,,,,,,,,,,,,,,,,,,,,,,,,,,,,,,,,,,,,,,,,false,,,,,,,,,189641.74499968067,189640.8400000073,133001.004,133015.47499978915,133017.671,189647.216,,,,
final_instru,html.Screen,2_4_3_5,2021-01-14T18:51:23.263Z,,,,,,,,,,,,,,,,,,,,,,,,,,,,,,,,,,,,,,,,,,,,,,,,,,,,,,,,,,,,,,,,,,,,,,,,,,,,,,,,,,,,,,,,,,,,,,,,,,,,,,,,,,,,,,,,,,,12225.02399993877,,done,,,,,,,,,,,,,,,,,,,,,,,,,,,,,,,,,,,,,,,,,,,,,,,,,,,,,,,,,,,,,,,,,,,,,,,,,,,,,,false,,,,,,,,,201872.42499971762,201872.23999993876,189630.549,189641.84499997646,189647.216,201879.899,,,,
blank_screen,canvas.Screen,2_4_3_6_0,2021-01-14T18:51:25.250Z,,,,,,,,,,,,,,,,,,,,,,,,,,,,,,,,,,,,,,,,,,,,,,,,,,,,,,,,,,,,,,,,,,,,,,,,,,,,,,,,,,,,,,,,,,,,,,,,,,,,,,,,,,,,,,,,,,,2012.1469999999972,,timeout,,,,,,,,,,,,,,,,,,,,,,,,,,,,,,,,,,,,,,,,,,,,,,,,,,,,,,,,,,,,,,,,,,,,,,,,,,,,,,false,,,,,,,,,203859.33999996632,203858.712,201863.232,201872.599999886,201879.899,203892.046,,,,
fixCross,canvas.Screen,2_4_3_6_1_0_0_0_0_0_0,2021-01-14T18:51:25.671Z,,,blank.png,"[""bretzel.png""]",blank.png,blank.png,blank.png,blank.png,blank.png,blank.png,blank.png,blank.png,blank.png,blank.png,blank.png,,,,,,,,,,,,,,,,,,,,,,,,,,,,,"[""bretzel.png""]","[""walnut.png""]",PB01.png,,,,,,,,,,,0,6,"[""walnut.png""]","[""walnut.png""]","[""walnut.png""]","[""walnut.png""]","[""walnut.png""]","[""walnut.png""]",blank.png,PB18.png,PB18.png,blank.png,blank.png,blank.png,blank.png,blank.png,blank.png,"[""walnut.png""]","[""walnut.png""]","[""walnut.png""]","[""walnut.png""]","[""walnut.png""]","[""walnut.png""]",1,"[""bretzel.png""]",blank.png,blank.png,blank.png,0,blank.png,blank.png,blank.png,blank.png,blank.png,blank.png,PB01.png,,,,,,,,,,,1,,,,,,,,,,,,819.8219999999856,,timeout,,,,,,,,,,,,,3,,,,,,,,,,,,,,,,,,,,,,,,,,,,,,,,,,,,,,,,,,,,,,,,,,,,,,,,,"[""walnut.png""]","[""bretzel.png""]",,,,5,,,false,,1,,,,,,,204280.4299998097,204278.526,203858.712,203896.51499968022,203892.046,204711.868,1,,,
timeout,canvas.Screen,2_4_3_6_1_0_0_0_0_0_1,2021-01-14T18:51:26.591Z,,,blank.png,"[""bretzel.png""]",blank.png,blank.png,blank.png,blank.png,blank.png,blank.png,blank.png,blank.png,blank.png,blank.png,blank.png,,,,,,,,,,,,,,,,,,,,,,,,,,,,,"[""bretzel.png""]","[""walnut.png""]",PB01.png,,,,,,,,,,,0,6,"[""walnut.png""]","[""walnut.png""]","[""walnut.png""]","[""walnut.png""]","[""walnut.png""]","[""walnut.png""]",blank.png,PB18.png,PB18.png,blank.png,blank.png,blank.png,blank.png,blank.png,blank.png,"[""walnut.png""]","[""walnut.png""]","[""walnut.png""]","[""walnut.png""]","[""walnut.png""]","[""walnut.png""]",1,"[""bretzel.png""]",blank.png,blank.png,blank.png,0,blank.png,blank.png,blank.png,blank.png,blank.png,blank.png,PB01.png,,,,,,,,,,,1,,,,,,,,,,,,1104.6780000000144,,timeout,,,,,,,,,,,,,3,,,,,,,,,,,,,,,,,,,,,,,,,,,,,,,,,,,,,,,,,,,,,,,,,,,,,,,,,"[""walnut.png""]","[""bretzel.png""]",,,,5,,,false,,1,,,,,,,205200.62499959022,205199.867,204278.526,204887.1700000018,204711.868,205816.546,,,,
choice,canvas.Screen,2_4_3_6_1_0_0_0_0_0_2,2021-01-14T18:51:28.052Z,,,blank.png,"[""bretzel.png""]",blank.png,blank.png,blank.png,blank.png,blank.png,blank.png,blank.png,blank.png,blank.png,blank.png,blank.png,,,,,,,,,,,,,,,,,,,,,,,,,,,,,"[""bretzel.png""]","[""walnut.png""]",PB01.png,,,,,,,,,,,0,6,"[""walnut.png""]","[""walnut.png""]","[""walnut.png""]","[""walnut.png""]","[""walnut.png""]","[""walnut.png""]",blank.png,PB18.png,PB18.png,blank.png,blank.png,blank.png,blank.png,blank.png,blank.png,"[""walnut.png""]","[""walnut.png""]","[""walnut.png""]","[""walnut.png""]","[""walnut.png""]","[""walnut.png""]",1,"[""bretzel.png""]",blank.png,blank.png,blank.png,0,blank.png,blank.png,blank.png,blank.png,blank.png,blank.png,PB01.png,,,,,,,,,,,1,,,,,,,,,,,,843.9689996466914,,response,,,,,,,,,,,,,3,,,,,,,,,,,,,,,,,,,,,,,,,,,,,,,,,,,,,,,,,,,,,,,,,,,,,,,,,"[""walnut.png""]","[""bretzel.png""]",,,,5,left,keydown(ArrowLeft),false,,1,,,,,,,206661.36999987066,206660.5149996467,205199.867,205826.8349999562,205816.546,207285.782,,1,,
square,canvas.Screen,2_4_3_6_1_0_0_0_0_0_3,2021-01-14T18:51:29.666Z,,,blank.png,"[""bretzel.png""]",blank.png,blank.png,blank.png,blank.png,blank.png,blank.png,blank.png,blank.png,blank.png,blank.png,blank.png,,,,,,,,,,,,,,,,,,,,,,,,,,,,,"[""bretzel.png""]","[""walnut.png""]",PB01.png,,,,,,,,,,,0,6,"[""walnut.png""]","[""walnut.png""]","[""walnut.png""]","[""walnut.png""]","[""walnut.png""]","[""walnut.png""]",blank.png,PB18.png,PB18.png,blank.png,blank.png,blank.png,blank.png,blank.png,blank.png,"[""walnut.png""]","[""walnut.png""]","[""walnut.png""]","[""walnut.png""]","[""walnut.png""]","[""walnut.png""]",1,"[""bretzel.png""]",blank.png,blank.png,blank.png,0,blank.png,blank.png,blank.png,blank.png,blank.png,blank.png,PB01.png,,,,,,,,,,,1,,#33ff3f,#808080,,,,,,,,,1004.3369999999995,,timeout,,,,,,,,,,,,,3,,,,,,,,,,,,,,,,,,,,,,,,,,,,,,,,,,,,,,,,,,,,,,,,,,,,,,,,,"[""walnut.png""]","[""bretzel.png""]",,,,5,,,false,,1,,,,,black,white,208275.01499978825,208273.452,207235.781,207240.04999967292,207285.782,208290.119,,,,
ITI_late,canvas.Screen,2_4_3_6_1_0_0_0_0_0_4,2021-01-14T18:51:30.667Z,,,blank.png,"[""bretzel.png""]",blank.png,blank.png,blank.png,blank.png,blank.png,blank.png,blank.png,blank.png,blank.png,blank.png,blank.png,,,,,,,,,,,,,,,,,,,,,,,,,,,,,"[""bretzel.png""]","[""walnut.png""]",PB01.png,,,,,,,,,,,0,6,"[""walnut.png""]","[""walnut.png""]","[""walnut.png""]","[""walnut.png""]","[""walnut.png""]","[""walnut.png""]",blank.png,PB18.png,PB18.png,blank.png,blank.png,blank.png,blank.png,blank.png,blank.png,"[""walnut.png""]","[""walnut.png""]","[""walnut.png""]","[""walnut.png""]","[""walnut.png""]","[""walnut.png""]",1,"[""bretzel.png""]",blank.png,blank.png,blank.png,0,blank.png,blank.png,blank.png,blank.png,blank.png,blank.png,PB01.png,,,,,,,,,,,1,,,,,,,,,,,,1001.2299999999814,,timeout,,,,,,,,,,,,white,3,,,,,,,,,,,,,,,,,,,,,,,,,,,,,,,,,,,,,,,,,,,,,,,,,,,,,,,,,"[""walnut.png""]","[""bretzel.png""]",,,,5,,,false,,1,,,,,,,209276.20999980718,209274.682,208273.452,208277.09499979392,208290.119,209291.349,,,,
choice_sequence,flow.Sequence,2_4_3_6_1_0_0_0_0_0,2021-01-14T18:51:30.668Z,,,blank.png,"[""bretzel.png""]",blank.png,blank.png,blank.png,blank.png,blank.png,blank.png,blank.png,blank.png,blank.png,blank.png,blank.png,,,,,,,,,,,,,,,,,,,,,,,,,,,,,"[""bretzel.png""]","[""walnut.png""]",PB01.png,,,,,,,,,,,0,6,"[""walnut.png""]","[""walnut.png""]","[""walnut.png""]","[""walnut.png""]","[""walnut.png""]","[""walnut.png""]",blank.png,PB18.png,PB18.png,blank.png,blank.png,blank.png,blank.png,blank.png,blank.png,"[""walnut.png""]","[""walnut.png""]","[""walnut.png""]","[""walnut.png""]","[""walnut.png""]","[""walnut.png""]",1,"[""bretzel.png""]",blank.png,blank.png,blank.png,0,blank.png,blank.png,blank.png,blank.png,blank.png,blank.png,PB01.png,,,,,,,,,,,1,,,,,,,,,,,,5382.635999999999,,completion,,,,,,,,,,,,,3,,,,,,,,,,,,,,,,,,,,,,,,,,,,,,,,,,,,,,,,,,,,,,,,,,,,,,,,,"[""walnut.png""]","[""bretzel.png""]",,,,5,,,false,,1,,,,,,,209277.40000002086,209274.682,203858.712,203894.95999971405,203892.046,209291.349,,,,
fixCross,canvas.Screen,2_4_3_6_1_0_0_0_0_1_0,2021-01-14T18:51:31.118Z,,,blank.png,"[""bretzel.png""]",blank.png,blank.png,blank.png,blank.png,blank.png,blank.png,blank.png,blank.png,blank.png,blank.png,blank.png,,,,,,,,,,,,,,,,,,,,,,,,,,,,,"[""bretzel.png""]","[""walnut.png""]",PB16.png,,,,,,,,,,,0,6,"[""walnut.png""]","[""walnut.png""]","[""walnut.png""]","[""walnut.png""]","[""walnut.png""]","[""walnut.png""]",blank.png,PB18.png,PB18.png,"[""walnut.png""]","[""walnut.png""]","[""walnut.png""]","[""walnut.png""]","[""walnut.png""]",blank.png,"[""walnut.png""]","[""walnut.png""]","[""walnut.png""]","[""walnut.png""]","[""walnut.png""]","[""walnut.png""]",1,"[""bretzel.png""]",blank.png,blank.png,blank.png,5,"[""walnut.png""]","[""walnut.png""]","[""walnut.png""]","[""walnut.png""]","[""walnut.png""]",blank.png,PB16.png,,,,,,,,,,,1,,,,,,,,,,,,1269.1080000000075,,timeout,,,,,,,,,,,,,3,,,,,,,,,,,,,,,,,,,,,,,,,,,,,,,,,,,,,,,,,,,,,,,,,,,,,,,,,"[""walnut.png""]","[""bretzel.png""]",,,,5,,,false,,1,,,,,,,209727.80499979854,209727.107,209274.682,209285.47000000253,209291.349,210560.457,2,,,
timeout,canvas.Screen,2_4_3_6_1_0_0_0_0_1_1,2021-01-14T18:51:32.440Z,,,blank.png,"[""bretzel.png""]",blank.png,blank.png,blank.png,blank.png,blank.png,blank.png,blank.png,blank.png,blank.png,blank.png,blank.png,,,,,,,,,,,,,,,,,,,,,,,,,,,,,"[""bretzel.png""]","[""walnut.png""]",PB16.png,,,,,,,,,,,0,6,"[""walnut.png""]","[""walnut.png""]","[""walnut.png""]","[""walnut.png""]","[""walnut.png""]","[""walnut.png""]",blank.png,PB18.png,PB18.png,"[""walnut.png""]","[""walnut.png""]","[""walnut.png""]","[""walnut.png""]","[""walnut.png""]",blank.png,"[""walnut.png""]","[""walnut.png""]","[""walnut.png""]","[""walnut.png""]","[""walnut.png""]","[""walnut.png""]",1,"[""bretzel.png""]",blank.png,blank.png,blank.png,5,"[""walnut.png""]","[""walnut.png""]","[""walnut.png""]","[""walnut.png""]","[""walnut.png""]",blank.png,PB16.png,,,,,,,,,,,1,,,,,,,,,,,,1304.2270000000135,,timeout,,,,,,,,,,,,,3,,,,,,,,,,,,,,,,,,,,,,,,,,,,,,,,,,,,,,,,,,,,,,,,,,,,,,,,,"[""walnut.png""]","[""bretzel.png""]",,,,5,,,false,,1,,,,,,,211049.5399995707,211048.001,209727.107,210575.47999965027,210560.457,211864.684,,,,
choice,canvas.Screen,2_4_3_6_1_0_0_0_0_1_2,2021-01-14T18:51:33.686Z,,,blank.png,"[""bretzel.png""]",blank.png,blank.png,blank.png,blank.png,blank.png,blank.png,blank.png,blank.png,blank.png,blank.png,blank.png,,,,,,,,,,,,,,,,,,,,,,,,,,,,,"[""bretzel.png""]","[""walnut.png""]",PB16.png,,,,,,,,,,,0,6,"[""walnut.png""]","[""walnut.png""]","[""walnut.png""]","[""walnut.png""]","[""walnut.png""]","[""walnut.png""]",blank.png,PB18.png,PB18.png,"[""walnut.png""]","[""walnut.png""]","[""walnut.png""]","[""walnut.png""]","[""walnut.png""]",blank.png,"[""walnut.png""]","[""walnut.png""]","[""walnut.png""]","[""walnut.png""]","[""walnut.png""]","[""walnut.png""]",1,"[""bretzel.png""]",blank.png,blank.png,blank.png,5,"[""walnut.png""]","[""walnut.png""]","[""walnut.png""]","[""walnut.png""]","[""walnut.png""]",blank.png,PB16.png,,,,,,,,,,,1,,,,,,,,,,,,429.1660000163829,,response,,,,,,,,,,,,,3,,,,,,,,,,,,,,,,,,,,,,,,,,,,,,,,,,,,,,,,,,,,,,,,,,,,,,,,,"[""walnut.png""]","[""bretzel.png""]",,,,5,left,keydown(ArrowLeft),false,,1,,,,,,,212295.59499956667,212293.8500000164,211048.001,211860.34499993548,211864.684,213115.98,,2,,
square,canvas.Screen,2_4_3_6_1_0_0_0_0_1_3,2021-01-14T18:51:35.496Z,,,blank.png,"[""bretzel.png""]",blank.png,blank.png,blank.png,blank.png,blank.png,blank.png,blank.png,blank.png,blank.png,blank.png,blank.png,,,,,,,,,,,,,,,,,,,,,,,,,,,,,"[""bretzel.png""]","[""walnut.png""]",PB16.png,,,,,,,,,,,0,6,"[""walnut.png""]","[""walnut.png""]","[""walnut.png""]","[""walnut.png""]","[""walnut.png""]","[""walnut.png""]",blank.png,PB18.png,PB18.png,"[""walnut.png""]","[""walnut.png""]","[""walnut.png""]","[""walnut.png""]","[""walnut.png""]",blank.png,"[""walnut.png""]","[""walnut.png""]","[""walnut.png""]","[""walnut.png""]","[""walnut.png""]","[""walnut.png""]",1,"[""bretzel.png""]",blank.png,blank.png,blank.png,5,"[""walnut.png""]","[""walnut.png""]","[""walnut.png""]","[""walnut.png""]","[""walnut.png""]",blank.png,PB16.png,,,,,,,,,,,1,,#33ff3f,#808080,,,,,,,,,1004.2489999999816,,timeout,,,,,,,,,,,,,3,,,,,,,,,,,,,,,,,,,,,,,,,,,,,,,,,,,,,,,,,,,,,,,,,,,,,,,,,"[""walnut.png""]","[""bretzel.png""]",,,,5,,,false,,1,,,,,black,white,214105.04499962553,214103.562,213065.979,213071.28999987617,213115.98,214120.229,,,,
ITI_late,canvas.Screen,2_4_3_6_1_0_0_0_0_1_4,2021-01-14T18:51:35.998Z,,,blank.png,"[""bretzel.png""]",blank.png,blank.png,blank.png,blank.png,blank.png,blank.png,blank.png,blank.png,blank.png,blank.png,blank.png,,,,,,,,,,,,,,,,,,,,,,,,,,,,,"[""bretzel.png""]","[""walnut.png""]",PB16.png,,,,,,,,,,,0,6,"[""walnut.png""]","[""walnut.png""]","[""walnut.png""]","[""walnut.png""]","[""walnut.png""]","[""walnut.png""]",blank.png,PB18.png,PB18.png,"[""walnut.png""]","[""walnut.png""]","[""walnut.png""]","[""walnut.png""]","[""walnut.png""]",blank.png,"[""walnut.png""]","[""walnut.png""]","[""walnut.png""]","[""walnut.png""]","[""walnut.png""]","[""walnut.png""]",1,"[""bretzel.png""]",blank.png,blank.png,blank.png,5,"[""walnut.png""]","[""walnut.png""]","[""walnut.png""]","[""walnut.png""]","[""walnut.png""]",blank.png,PB16.png,,,,,,,,,,,1,,,,,,,,,,,,502.1730000000098,,timeout,,,,,,,,,,,,white,3,,,,,,,,,,,,,,,,,,,,,,,,,,,,,,,,,,,,,,,,,,,,,,,,,,,,,,,,,"[""walnut.png""]","[""bretzel.png""]",,,,5,,,false,,1,,,,,,,214607.0349998772,214605.735,214103.562,214107.07499971613,214120.229,214622.402,,,,
choice_sequence,flow.Sequence,2_4_3_6_1_0_0_0_0_1,2021-01-14T18:51:35.998Z,,,blank.png,"[""bretzel.png""]",blank.png,blank.png,blank.png,blank.png,blank.png,blank.png,blank.png,blank.png,blank.png,blank.png,blank.png,,,,,,,,,,,,,,,,,,,,,,,,,,,,,"[""bretzel.png""]","[""walnut.png""]",PB16.png,,,,,,,,,,,0,6,"[""walnut.png""]","[""walnut.png""]","[""walnut.png""]","[""walnut.png""]","[""walnut.png""]","[""walnut.png""]",blank.png,PB18.png,PB18.png,"[""walnut.png""]","[""walnut.png""]","[""walnut.png""]","[""walnut.png""]","[""walnut.png""]",blank.png,"[""walnut.png""]","[""walnut.png""]","[""walnut.png""]","[""walnut.png""]","[""walnut.png""]","[""walnut.png""]",1,"[""bretzel.png""]",blank.png,blank.png,blank.png,5,"[""walnut.png""]","[""walnut.png""]","[""walnut.png""]","[""walnut.png""]","[""walnut.png""]",blank.png,PB16.png,,,,,,,,,,,1,,,,,,,,,,,,5314.385999999999,,completion,,,,,,,,,,,,,3,,,,,,,,,,,,,,,,,,,,,,,,,,,,,,,,,,,,,,,,,,,,,,,,,,,,,,,,,"[""walnut.png""]","[""bretzel.png""]",,,,5,,,false,,1,,,,,,,214607.6199999079,214605.735,209274.682,209284.4449998811,209291.349,214622.402,,,,
fixCross,canvas.Screen,2_4_3_6_1_0_0_0_0_2_0,2021-01-14T18:51:36.750Z,,,blank.png,"[""bretzel.png""]",blank.png,blank.png,blank.png,blank.png,blank.png,blank.png,blank.png,blank.png,blank.png,blank.png,blank.png,,,,,,,,,,,,,,,,,,,,,,,,,,,,,"[""bretzel.png""]","[""walnut.png""]",PB14.png,,,,,,,,,,,0,6,"[""walnut.png""]","[""walnut.png""]","[""walnut.png""]","[""walnut.png""]","[""walnut.png""]","[""walnut.png""]",blank.png,PB18.png,PB18.png,"[""walnut.png""]","[""walnut.png""]","[""walnut.png""]",blank.png,blank.png,blank.png,"[""walnut.png""]","[""walnut.png""]","[""walnut.png""]","[""walnut.png""]","[""walnut.png""]","[""walnut.png""]",1,"[""bretzel.png""]",blank.png,blank.png,blank.png,3,"[""walnut.png""]","[""walnut.png""]","[""walnut.png""]",blank.png,blank.png,blank.png,PB14.png,,,,,,,,,,,1,,,,,,,,,,,,1418.627999999997,,timeout,,,,,,,,,,,,,3,,,,,,,,,,,,,,,,,,,,,,,,,,,,,,,,,,,,,,,,,,,,,,,,,,,,,,,,,"[""walnut.png""]","[""bretzel.png""]",,,,5,,,false,,1,,,,,,,215359.00999978185,215357.683,214605.735,214613.09499992058,214622.402,216041.03,3,,,
timeout,canvas.Screen,2_4_3_6_1_0_0_0_0_2_1,2021-01-14T18:51:37.918Z,,,blank.png,"[""bretzel.png""]",blank.png,blank.png,blank.png,blank.png,blank.png,blank.png,blank.png,blank.png,blank.png,blank.png,blank.png,,,,,,,,,,,,,,,,,,,,,,,,,,,,,"[""bretzel.png""]","[""walnut.png""]",PB14.png,,,,,,,,,,,0,6,"[""walnut.png""]","[""walnut.png""]","[""walnut.png""]","[""walnut.png""]","[""walnut.png""]","[""walnut.png""]",blank.png,PB18.png,PB18.png,"[""walnut.png""]","[""walnut.png""]","[""walnut.png""]",blank.png,blank.png,blank.png,"[""walnut.png""]","[""walnut.png""]","[""walnut.png""]","[""walnut.png""]","[""walnut.png""]","[""walnut.png""]",1,"[""bretzel.png""]",blank.png,blank.png,blank.png,3,"[""walnut.png""]","[""walnut.png""]","[""walnut.png""]",blank.png,blank.png,blank.png,PB14.png,,,,,,,,,,,1,,,,,,,,,,,,1217.9800000000105,,timeout,,,,,,,,,,,,,3,,,,,,,,,,,,,,,,,,,,,,,,,,,,,,,,,,,,,,,,,,,,,,,,,,,,,,,,,"[""walnut.png""]","[""bretzel.png""]",,,,5,,,false,,1,,,,,,,216527.07999991253,216525.662,215357.683,216055.8399995789,216041.03,217259.01,,,,
choice,canvas.Screen,2_4_3_6_1_0_0_0_0_2_2,2021-01-14T18:51:39.598Z,,,blank.png,"[""bretzel.png""]",blank.png,blank.png,blank.png,blank.png,blank.png,blank.png,blank.png,blank.png,blank.png,blank.png,blank.png,,,,,,,,,,,,,,,,,,,,,,,,,,,,,"[""bretzel.png""]","[""walnut.png""]",PB14.png,,,,,,,,,,,0,6,"[""walnut.png""]","[""walnut.png""]","[""walnut.png""]","[""walnut.png""]","[""walnut.png""]","[""walnut.png""]",blank.png,PB18.png,PB18.png,"[""walnut.png""]","[""walnut.png""]","[""walnut.png""]",blank.png,blank.png,blank.png,"[""walnut.png""]","[""walnut.png""]","[""walnut.png""]","[""walnut.png""]","[""walnut.png""]","[""walnut.png""]",1,"[""bretzel.png""]",blank.png,blank.png,blank.png,3,"[""walnut.png""]","[""walnut.png""]","[""walnut.png""]",blank.png,blank.png,blank.png,PB14.png,,,,,,,,,,,1,,,,,,,,,,,,946.8549999089446,,response,,,,,,,,,,,,,3,,,,,,,,,,,,,,,,,,,,,,,,,,,,,,,,,,,,,,,,,,,,,,,,,,,,,,,,,"[""walnut.png""]","[""bretzel.png""]",,,,5,right,keydown(ArrowRight),false,,1,,,,,,,218207.04499958083,218205.86499990895,216525.662,217260.9999999404,217259.01,218912.455,,3,,
square,canvas.Screen,2_4_3_6_1_0_0_0_0_2_3,2021-01-14T18:51:41.293Z,,,blank.png,"[""bretzel.png""]",blank.png,blank.png,blank.png,blank.png,blank.png,blank.png,blank.png,blank.png,blank.png,blank.png,blank.png,,,,,,,,,,,,,,,,,,,,,,,,,,,,,"[""bretzel.png""]","[""walnut.png""]",PB14.png,,,,,,,,,,,0,6,"[""walnut.png""]","[""walnut.png""]","[""walnut.png""]","[""walnut.png""]","[""walnut.png""]","[""walnut.png""]",blank.png,PB18.png,PB18.png,"[""walnut.png""]","[""walnut.png""]","[""walnut.png""]",blank.png,blank.png,blank.png,"[""walnut.png""]","[""walnut.png""]","[""walnut.png""]","[""walnut.png""]","[""walnut.png""]","[""walnut.png""]",1,"[""bretzel.png""]",blank.png,blank.png,blank.png,3,"[""walnut.png""]","[""walnut.png""]","[""walnut.png""]",blank.png,blank.png,blank.png,PB14.png,,,,,,,,,,,1,,#808080,#33ff3f,,,,,,,,,1005.3700000000244,,timeout,,,,,,,,,,,,,3,,,,,,,,,,,,,,,,,,,,,,,,,,,,,,,,,,,,,,,,,,,,,,,,,,,,,,,,,"[""walnut.png""]","[""bretzel.png""]",,,,5,,,false,,1,,,,,white,black,219902.74999989197,219901.158,218895.788,218903.38999964297,218912.455,219917.825,,,,
ITI_late,canvas.Screen,2_4_3_6_1_0_0_0_0_2_4,2021-01-14T18:51:42.295Z,,,blank.png,"[""bretzel.png""]",blank.png,blank.png,blank.png,blank.png,blank.png,blank.png,blank.png,blank.png,blank.png,blank.png,blank.png,,,,,,,,,,,,,,,,,,,,,,,,,,,,,"[""bretzel.png""]","[""walnut.png""]",PB14.png,,,,,,,,,,,0,6,"[""walnut.png""]","[""walnut.png""]","[""walnut.png""]","[""walnut.png""]","[""walnut.png""]","[""walnut.png""]",blank.png,PB18.png,PB18.png,"[""walnut.png""]","[""walnut.png""]","[""walnut.png""]",blank.png,blank.png,blank.png,"[""walnut.png""]","[""walnut.png""]","[""walnut.png""]","[""walnut.png""]","[""walnut.png""]","[""walnut.png""]",1,"[""bretzel.png""]",blank.png,blank.png,blank.png,3,"[""walnut.png""]","[""walnut.png""]","[""walnut.png""]",blank.png,blank.png,blank.png,PB14.png,,,,,,,,,,,1,,,,,,,,,,,,1001.4679999999935,,timeout,,,,,,,,,,,,white,3,,,,,,,,,,,,,,,,,,,,,,,,,,,,,,,,,,,,,,,,,,,,,,,,,,,,,,,,,"[""walnut.png""]","[""bretzel.png""]",,,,5,,,false,,1,,,,,,,220904.26500001922,220902.626,219901.158,219904.75499955937,219917.825,220919.293,,,,
choice_sequence,flow.Sequence,2_4_3_6_1_0_0_0_0_2,2021-01-14T18:51:42.296Z,,,blank.png,"[""bretzel.png""]",blank.png,blank.png,blank.png,blank.png,blank.png,blank.png,blank.png,blank.png,blank.png,blank.png,blank.png,,,,,,,,,,,,,,,,,,,,,,,,,,,,,"[""bretzel.png""]","[""walnut.png""]",PB14.png,,,,,,,,,,,0,6,"[""walnut.png""]","[""walnut.png""]","[""walnut.png""]","[""walnut.png""]","[""walnut.png""]","[""walnut.png""]",blank.png,PB18.png,PB18.png,"[""walnut.png""]","[""walnut.png""]","[""walnut.png""]",blank.png,blank.png,blank.png,"[""walnut.png""]","[""walnut.png""]","[""walnut.png""]","[""walnut.png""]","[""walnut.png""]","[""walnut.png""]",1,"[""bretzel.png""]",blank.png,blank.png,blank.png,3,"[""walnut.png""]","[""walnut.png""]","[""walnut.png""]",blank.png,blank.png,blank.png,PB14.png,,,,,,,,,,,1,,,,,,,,,,,,6280.223999999987,,completion,,,,,,,,,,,,,3,,,,,,,,,,,,,,,,,,,,,,,,,,,,,,,,,,,,,,,,,,,,,,,,,,,,,,,,,"[""walnut.png""]","[""bretzel.png""]",,,,5,,,false,,1,,,,,,,220904.84499977902,220902.626,214605.735,214612.08499968052,214622.402,220919.293,,,,
fixCross,canvas.Screen,2_4_3_6_1_0_0_0_0_3_0,2021-01-14T18:51:43.047Z,,,blank.png,"[""bretzel.png""]",blank.png,blank.png,blank.png,blank.png,blank.png,blank.png,blank.png,blank.png,blank.png,blank.png,blank.png,,,,,,,,,,,,,,,,,,,,,,,,,,,,,"[""bretzel.png""]","[""walnut.png""]",PB12.png,,,,,,,,,,,0,6,"[""walnut.png""]","[""walnut.png""]","[""walnut.png""]","[""walnut.png""]","[""walnut.png""]","[""walnut.png""]",blank.png,PB18.png,PB18.png,"[""walnut.png""]","[""walnut.png""]",blank.png,blank.png,blank.png,blank.png,"[""walnut.png""]","[""walnut.png""]","[""walnut.png""]","[""walnut.png""]","[""walnut.png""]","[""walnut.png""]",1,"[""bretzel.png""]",blank.png,blank.png,blank.png,2,"[""walnut.png""]","[""walnut.png""]",blank.png,blank.png,blank.png,blank.png,PB12.png,,,,,,,,,,,1,,,,,,,,,,,,1402.408999999985,,timeout,,,,,,,,,,,,,3,,,,,,,,,,,,,,,,,,,,,,,,,,,,,,,,,,,,,,,,,,,,,,,,,,,,,,,,,"[""walnut.png""]","[""bretzel.png""]",,,,5,,,false,,1,,,,,,,221656.4050000161,221655.022,220902.626,220910.284999758,220919.293,222321.702,4,,,
timeout,canvas.Screen,2_4_3_6_1_0_0_0_0_3_1,2021-01-14T18:51:44.199Z,,,blank.png,"[""bretzel.png""]",blank.png,blank.png,blank.png,blank.png,blank.png,blank.png,blank.png,blank.png,blank.png,blank.png,blank.png,,,,,,,,,,,,,,,,,,,,,,,,,,,,,"[""bretzel.png""]","[""walnut.png""]",PB12.png,,,,,,,,,,,0,6,"[""walnut.png""]","[""walnut.png""]","[""walnut.png""]","[""walnut.png""]","[""walnut.png""]","[""walnut.png""]",blank.png,PB18.png,PB18.png,"[""walnut.png""]","[""walnut.png""]",blank.png,blank.png,blank.png,blank.png,"[""walnut.png""]","[""walnut.png""]","[""walnut.png""]","[""walnut.png""]","[""walnut.png""]","[""walnut.png""]",1,"[""bretzel.png""]",blank.png,blank.png,blank.png,2,"[""walnut.png""]","[""walnut.png""]",blank.png,blank.png,blank.png,blank.png,PB12.png,,,,,,,,,,,1,,,,,,,,,,,,1169.073000000004,,timeout,,,,,,,,,,,,,3,,,,,,,,,,,,,,,,,,,,,,,,,,,,,,,,,,,,,,,,,,,,,,,,,,,,,,,,,"[""walnut.png""]","[""bretzel.png""]",,,,5,,,false,,1,,,,,,,222808.17999970168,222807.428,221655.022,222342.68499957398,222321.702,223490.775,,,,
choice,canvas.Screen,2_4_3_6_1_0_0_0_0_3_2,2021-01-14T18:51:45.837Z,,,blank.png,"[""bretzel.png""]",blank.png,blank.png,blank.png,blank.png,blank.png,blank.png,blank.png,blank.png,blank.png,blank.png,blank.png,,,,,,,,,,,,,,,,,,,,,,,,,,,,,"[""bretzel.png""]","[""walnut.png""]",PB12.png,,,,,,,,,,,0,6,"[""walnut.png""]","[""walnut.png""]","[""walnut.png""]","[""walnut.png""]","[""walnut.png""]","[""walnut.png""]",blank.png,PB18.png,PB18.png,"[""walnut.png""]","[""walnut.png""]",blank.png,blank.png,blank.png,blank.png,"[""walnut.png""]","[""walnut.png""]","[""walnut.png""]","[""walnut.png""]","[""walnut.png""]","[""walnut.png""]",1,"[""bretzel.png""]",blank.png,blank.png,blank.png,2,"[""walnut.png""]","[""walnut.png""]",blank.png,blank.png,blank.png,blank.png,PB12.png,,,,,,,,,,,1,,,,,,,,,,,,954.1899997986911,,response,,,,,,,,,,,,,3,,,,,,,,,,,,,,,,,,,,,,,,,,,,,,,,,,,,,,,,,,,,,,,,,,,,,,,,,"[""walnut.png""]","[""bretzel.png""]",,,,5,left,keydown(ArrowLeft),false,,1,,,,,,,224446.51499995962,224444.96499979869,222807.428,223489.64499961585,223490.775,225127.493,,4,,
square,canvas.Screen,2_4_3_6_1_0_0_0_0_3_3,2021-01-14T18:51:47.508Z,,,blank.png,"[""bretzel.png""]",blank.png,blank.png,blank.png,blank.png,blank.png,blank.png,blank.png,blank.png,blank.png,blank.png,blank.png,,,,,,,,,,,,,,,,,,,,,,,,,,,,,"[""bretzel.png""]","[""walnut.png""]",PB12.png,,,,,,,,,,,0,6,"[""walnut.png""]","[""walnut.png""]","[""walnut.png""]","[""walnut.png""]","[""walnut.png""]","[""walnut.png""]",blank.png,PB18.png,PB18.png,"[""walnut.png""]","[""walnut.png""]",blank.png,blank.png,blank.png,blank.png,"[""walnut.png""]","[""walnut.png""]","[""walnut.png""]","[""walnut.png""]","[""walnut.png""]","[""walnut.png""]",1,"[""bretzel.png""]",blank.png,blank.png,blank.png,2,"[""walnut.png""]","[""walnut.png""]",blank.png,blank.png,blank.png,blank.png,PB12.png,,,,,,,,,,,1,,#33ff3f,#808080,,,,,,,,,1005.2740000000049,,timeout,,,,,,,,,,,,,3,,,,,,,,,,,,,,,,,,,,,,,,,,,,,,,,,,,,,,,,,,,,,,,,,,,,,,,,,"[""walnut.png""]","[""bretzel.png""]",,,,5,,,false,,1,,,,,black,white,226116.9799999334,226116.1,225110.826,225115.05999974906,225127.493,226132.767,,,,
ITI_late,canvas.Screen,2_4_3_6_1_0_0_0_0_3_4,2021-01-14T18:51:47.759Z,,,blank.png,"[""bretzel.png""]",blank.png,blank.png,blank.png,blank.png,blank.png,blank.png,blank.png,blank.png,blank.png,blank.png,blank.png,,,,,,,,,,,,,,,,,,,,,,,,,,,,,"[""bretzel.png""]","[""walnut.png""]",PB12.png,,,,,,,,,,,0,6,"[""walnut.png""]","[""walnut.png""]","[""walnut.png""]","[""walnut.png""]","[""walnut.png""]","[""walnut.png""]",blank.png,PB18.png,PB18.png,"[""walnut.png""]","[""walnut.png""]",blank.png,blank.png,blank.png,blank.png,"[""walnut.png""]","[""walnut.png""]","[""walnut.png""]","[""walnut.png""]","[""walnut.png""]","[""walnut.png""]",1,"[""bretzel.png""]",blank.png,blank.png,blank.png,2,"[""walnut.png""]","[""walnut.png""]",blank.png,blank.png,blank.png,blank.png,PB12.png,,,,,,,,,,,1,,,,,,,,,,,,251.55400000000373,,timeout,,,,,,,,,,,,white,3,,,,,,,,,,,,,,,,,,,,,,,,,,,,,,,,,,,,,,,,,,,,,,,,,,,,,,,,,"[""walnut.png""]","[""bretzel.png""]",,,,5,,,false,,1,,,,,,,226368.37499961257,226367.654,226116.1,226118.99999994785,226132.767,226384.321,,,,
choice_sequence,flow.Sequence,2_4_3_6_1_0_0_0_0_3,2021-01-14T18:51:47.760Z,,,blank.png,"[""bretzel.png""]",blank.png,blank.png,blank.png,blank.png,blank.png,blank.png,blank.png,blank.png,blank.png,blank.png,blank.png,,,,,,,,,,,,,,,,,,,,,,,,,,,,,"[""bretzel.png""]","[""walnut.png""]",PB12.png,,,,,,,,,,,0,6,"[""walnut.png""]","[""walnut.png""]","[""walnut.png""]","[""walnut.png""]","[""walnut.png""]","[""walnut.png""]",blank.png,PB18.png,PB18.png,"[""walnut.png""]","[""walnut.png""]",blank.png,blank.png,blank.png,blank.png,"[""walnut.png""]","[""walnut.png""]","[""walnut.png""]","[""walnut.png""]","[""walnut.png""]","[""walnut.png""]",1,"[""bretzel.png""]",blank.png,blank.png,blank.png,2,"[""walnut.png""]","[""walnut.png""]",blank.png,blank.png,blank.png,blank.png,PB12.png,,,,,,,,,,,1,,,,,,,,,,,,5448.361000000004,,completion,,,,,,,,,,,,,3,,,,,,,,,,,,,,,,,,,,,,,,,,,,,,,,,,,,,,,,,,,,,,,,,,,,,,,,,"[""walnut.png""]","[""bretzel.png""]",,,,5,,,false,,1,,,,,,,226368.95499983802,226367.654,220902.626,220909.3299997039,220919.293,226384.321,,,,
fixCross,canvas.Screen,2_4_3_6_1_0_0_0_0_4_0,2021-01-14T18:51:48.014Z,,,blank.png,"[""bretzel.png""]",blank.png,blank.png,blank.png,blank.png,blank.png,blank.png,blank.png,blank.png,blank.png,blank.png,blank.png,,,,,,,,,,,,,,,,,,,,,,,,,,,,,"[""bretzel.png""]","[""walnut.png""]",PB15.png,,,,,,,,,,,0,6,"[""walnut.png""]","[""walnut.png""]","[""walnut.png""]","[""walnut.png""]","[""walnut.png""]","[""walnut.png""]",blank.png,PB18.png,PB18.png,"[""walnut.png""]","[""walnut.png""]","[""walnut.png""]","[""walnut.png""]",blank.png,blank.png,"[""walnut.png""]","[""walnut.png""]","[""walnut.png""]","[""walnut.png""]","[""walnut.png""]","[""walnut.png""]",1,"[""bretzel.png""]",blank.png,blank.png,blank.png,4,"[""walnut.png""]","[""walnut.png""]","[""walnut.png""]","[""walnut.png""]",blank.png,blank.png,PB15.png,,,,,,,,,,,1,,,,,,,,,,,,1002.7360000000044,,timeout,,,,,,,,,,,,,3,,,,,,,,,,,,,,,,,,,,,,,,,,,,,,,,,,,,,,,,,,,,,,,,,,,,,,,,,"[""walnut.png""]","[""bretzel.png""]",,,,5,,,false,,1,,,,,,,226623.03499970585,226620.375,226367.654,226375.03999983892,226384.321,227387.057,5,,,
timeout,canvas.Screen,2_4_3_6_1_0_0_0_0_4_1,2021-01-14T18:51:49.263Z,,,blank.png,"[""bretzel.png""]",blank.png,blank.png,blank.png,blank.png,blank.png,blank.png,blank.png,blank.png,blank.png,blank.png,blank.png,,,,,,,,,,,,,,,,,,,,,,,,,,,,,"[""bretzel.png""]","[""walnut.png""]",PB15.png,,,,,,,,,,,0,6,"[""walnut.png""]","[""walnut.png""]","[""walnut.png""]","[""walnut.png""]","[""walnut.png""]","[""walnut.png""]",blank.png,PB18.png,PB18.png,"[""walnut.png""]","[""walnut.png""]","[""walnut.png""]","[""walnut.png""]",blank.png,blank.png,"[""walnut.png""]","[""walnut.png""]","[""walnut.png""]","[""walnut.png""]","[""walnut.png""]","[""walnut.png""]",1,"[""bretzel.png""]",blank.png,blank.png,blank.png,4,"[""walnut.png""]","[""walnut.png""]","[""walnut.png""]","[""walnut.png""]",blank.png,blank.png,PB15.png,,,,,,,,,,,1,,,,,,,,,,,,1266.8619999999937,,timeout,,,,,,,,,,,,,3,,,,,,,,,,,,,,,,,,,,,,,,,,,,,,,,,,,,,,,,,,,,,,,,,,,,,,,,,"[""walnut.png""]","[""bretzel.png""]",,,,5,,,false,,1,,,,,,,227872.5199997425,227870.57,226620.375,227395.27500001714,227387.057,228653.919,,,,
choice,canvas.Screen,2_4_3_6_1_0_0_0_0_4_2,2021-01-14T18:51:50.538Z,,,blank.png,"[""bretzel.png""]",blank.png,blank.png,blank.png,blank.png,blank.png,blank.png,blank.png,blank.png,blank.png,blank.png,blank.png,,,,,,,,,,,,,,,,,,,,,,,,,,,,,"[""bretzel.png""]","[""walnut.png""]",PB15.png,,,,,,,,,,,0,6,"[""walnut.png""]","[""walnut.png""]","[""walnut.png""]","[""walnut.png""]","[""walnut.png""]","[""walnut.png""]",blank.png,PB18.png,PB18.png,"[""walnut.png""]","[""walnut.png""]","[""walnut.png""]","[""walnut.png""]",blank.png,blank.png,"[""walnut.png""]","[""walnut.png""]","[""walnut.png""]","[""walnut.png""]","[""walnut.png""]","[""walnut.png""]",1,"[""bretzel.png""]",blank.png,blank.png,blank.png,4,"[""walnut.png""]","[""walnut.png""]","[""walnut.png""]","[""walnut.png""]",blank.png,blank.png,PB15.png,,,,,,,,,,,1,,,,,,,,,,,,492.9709999745246,,response,,,,,,,,,,,,,3,,,,,,,,,,,,,,,,,,,,,,,,,,,,,,,,,,,,,,,,,,,,,,,,,,,,,,,,,"[""walnut.png""]","[""bretzel.png""]",,,,5,left,keydown(ArrowLeft),false,,1,,,,,,,229147.76999969035,229146.88999997452,227870.57,228642.38499989733,228653.919,229906.259,,5,,
square,canvas.Screen,2_4_3_6_1_0_0_0_0_4_3,2021-01-14T18:51:52.286Z,,,blank.png,"[""bretzel.png""]",blank.png,blank.png,blank.png,blank.png,blank.png,blank.png,blank.png,blank.png,blank.png,blank.png,blank.png,,,,,,,,,,,,,,,,,,,,,,,,,,,,,"[""bretzel.png""]","[""walnut.png""]",PB15.png,,,,,,,,,,,0,6,"[""walnut.png""]","[""walnut.png""]","[""walnut.png""]","[""walnut.png""]","[""walnut.png""]","[""walnut.png""]",blank.png,PB18.png,PB18.png,"[""walnut.png""]","[""walnut.png""]","[""walnut.png""]","[""walnut.png""]",blank.png,blank.png,"[""walnut.png""]","[""walnut.png""]","[""walnut.png""]","[""walnut.png""]","[""walnut.png""]","[""walnut.png""]",1,"[""bretzel.png""]",blank.png,blank.png,blank.png,4,"[""walnut.png""]","[""walnut.png""]","[""walnut.png""]","[""walnut.png""]",blank.png,blank.png,PB15.png,,,,,,,,,,,1,,#33ff3f,#808080,,,,,,,,,1004.5400000000081,,timeout,,,,,,,,,,,,,3,,,,,,,,,,,,,,,,,,,,,,,,,,,,,,,,,,,,,,,,,,,,,,,,,,,,,,,,,"[""walnut.png""]","[""bretzel.png""]",,,,5,,,false,,1,,,,,black,white,230895.0449996628,230894.132,229889.592,229897.9799998924,229906.259,230910.799,,,,
ITI_late,canvas.Screen,2_4_3_6_1_0_0_0_0_4_4,2021-01-14T18:51:53.539Z,,,blank.png,"[""bretzel.png""]",blank.png,blank.png,blank.png,blank.png,blank.png,blank.png,blank.png,blank.png,blank.png,blank.png,blank.png,,,,,,,,,,,,,,,,,,,,,,,,,,,,,"[""bretzel.png""]","[""walnut.png""]",PB15.png,,,,,,,,,,,0,6,"[""walnut.png""]","[""walnut.png""]","[""walnut.png""]","[""walnut.png""]","[""walnut.png""]","[""walnut.png""]",blank.png,PB18.png,PB18.png,"[""walnut.png""]","[""walnut.png""]","[""walnut.png""]","[""walnut.png""]",blank.png,blank.png,"[""walnut.png""]","[""walnut.png""]","[""walnut.png""]","[""walnut.png""]","[""walnut.png""]","[""walnut.png""]",1,"[""bretzel.png""]",blank.png,blank.png,blank.png,4,"[""walnut.png""]","[""walnut.png""]","[""walnut.png""]","[""walnut.png""]",blank.png,blank.png,PB15.png,,,,,,,,,,,1,,,,,,,,,,,,1251.7099999999919,,timeout,,,,,,,,,,,,white,3,,,,,,,,,,,,,,,,,,,,,,,,,,,,,,,,,,,,,,,,,,,,,,,,,,,,,,,,,"[""walnut.png""]","[""bretzel.png""]",,,,5,,,false,,1,,,,,,,232148.054999765,232145.842,230894.132,230896.9999998808,230910.799,232162.509,,,,
choice_sequence,flow.Sequence,2_4_3_6_1_0_0_0_0_4,2021-01-14T18:51:53.539Z,,,blank.png,"[""bretzel.png""]",blank.png,blank.png,blank.png,blank.png,blank.png,blank.png,blank.png,blank.png,blank.png,blank.png,blank.png,,,,,,,,,,,,,,,,,,,,,,,,,,,,,"[""bretzel.png""]","[""walnut.png""]",PB15.png,,,,,,,,,,,0,6,"[""walnut.png""]","[""walnut.png""]","[""walnut.png""]","[""walnut.png""]","[""walnut.png""]","[""walnut.png""]",blank.png,PB18.png,PB18.png,"[""walnut.png""]","[""walnut.png""]","[""walnut.png""]","[""walnut.png""]",blank.png,blank.png,"[""walnut.png""]","[""walnut.png""]","[""walnut.png""]","[""walnut.png""]","[""walnut.png""]","[""walnut.png""]",1,"[""bretzel.png""]",blank.png,blank.png,blank.png,4,"[""walnut.png""]","[""walnut.png""]","[""walnut.png""]","[""walnut.png""]",blank.png,blank.png,PB15.png,,,,,,,,,,,1,,,,,,,,,,,,5761.521000000008,,completion,,,,,,,,,,,,,3,,,,,,,,,,,,,,,,,,,,,,,,,,,,,,,,,,,,,,,,,,,,,,,,,,,,,,,,,"[""walnut.png""]","[""bretzel.png""]",,,,5,,,false,,1,,,,,,,232148.5599996522,232145.842,226367.654,226373.98999975994,226384.321,232162.509,,,,
fixCross,canvas.Screen,2_4_3_6_1_0_0_0_0_5_0,2021-01-14T18:51:53.840Z,,,blank.png,blank.png,blank.png,blank.png,blank.png,blank.png,blank.png,"[""bretzel.png""]",blank.png,blank.png,blank.png,blank.png,blank.png,,,,,,,,,,,,,,,,,,,,,,,,,,,,,"[""bretzel.png""]","[""walnut.png""]",PB18.png,,,,,,,,,,,0,6,"[""walnut.png""]","[""walnut.png""]","[""walnut.png""]","[""walnut.png""]","[""walnut.png""]","[""walnut.png""]",blank.png,PB18.png,PB07.png,"[""walnut.png""]","[""walnut.png""]","[""walnut.png""]","[""walnut.png""]","[""walnut.png""]","[""walnut.png""]","[""walnut.png""]",blank.png,blank.png,blank.png,blank.png,blank.png,1,"[""bretzel.png""]",blank.png,blank.png,blank.png,1,"[""walnut.png""]",blank.png,blank.png,blank.png,blank.png,blank.png,PB07.png,,,,,,,,,,,1,,,,,,,,,,,,918.8680000000168,,timeout,,,,,,,,,,,,,4,,,,,,,,,,,,,,,,,,,,,,,,,,,,,,,,,,,,,,,,,,,,,,,,,,,,,,,,,"[""walnut.png""]","[""bretzel.png""]",,,,5,,,false,,1,,,,,,,232449.53499967232,232448.031,232145.842,232154.53499974683,232162.509,233081.377,6,,,
timeout,canvas.Screen,2_4_3_6_1_0_0_0_0_5_1,2021-01-14T18:51:54.961Z,,,blank.png,blank.png,blank.png,blank.png,blank.png,blank.png,blank.png,"[""bretzel.png""]",blank.png,blank.png,blank.png,blank.png,blank.png,,,,,,,,,,,,,,,,,,,,,,,,,,,,,"[""bretzel.png""]","[""walnut.png""]",PB18.png,,,,,,,,,,,0,6,"[""walnut.png""]","[""walnut.png""]","[""walnut.png""]","[""walnut.png""]","[""walnut.png""]","[""walnut.png""]",blank.png,PB18.png,PB07.png,"[""walnut.png""]","[""walnut.png""]","[""walnut.png""]","[""walnut.png""]","[""walnut.png""]","[""walnut.png""]","[""walnut.png""]",blank.png,blank.png,blank.png,blank.png,blank.png,1,"[""bretzel.png""]",blank.png,blank.png,blank.png,1,"[""walnut.png""]",blank.png,blank.png,blank.png,blank.png,blank.png,PB07.png,,,,,,,,,,,1,,,,,,,,,,,,1136.2360000000044,,timeout,,,,,,,,,,,,,4,,,,,,,,,,,,,,,,,,,,,,,,,,,,,,,,,,,,,,,,,,,,,,,,,,,,,,,,,"[""walnut.png""]","[""bretzel.png""]",,,,5,,,false,,1,,,,,,,233569.83499974012,233567.6,232448.031,233088.2599996403,233081.377,234217.613,,,,
choice,canvas.Screen,2_4_3_6_1_0_0_0_0_5_2,2021-01-14T18:51:56.300Z,,,blank.png,blank.png,blank.png,blank.png,blank.png,blank.png,blank.png,"[""bretzel.png""]",blank.png,blank.png,blank.png,blank.png,blank.png,,,,,,,,,,,,,,,,,,,,,,,,,,,,,"[""bretzel.png""]","[""walnut.png""]",PB18.png,,,,,,,,,,,0,6,"[""walnut.png""]","[""walnut.png""]","[""walnut.png""]","[""walnut.png""]","[""walnut.png""]","[""walnut.png""]",blank.png,PB18.png,PB07.png,"[""walnut.png""]","[""walnut.png""]","[""walnut.png""]","[""walnut.png""]","[""walnut.png""]","[""walnut.png""]","[""walnut.png""]",blank.png,blank.png,blank.png,blank.png,blank.png,1,"[""bretzel.png""]",blank.png,blank.png,blank.png,1,"[""walnut.png""]",blank.png,blank.png,blank.png,blank.png,blank.png,PB07.png,,,,,,,,,,,1,,,,,,,,,,,,688.4569995607017,,response,,,,,,,,,,,,,4,,,,,,,,,,,,,,,,,,,,,,,,,,,,,,,,,,,,,,,,,,,,,,,,,,,,,,,,,"[""walnut.png""]","[""bretzel.png""]",,,,5,left,keydown(ArrowLeft),false,,1,,,,,,,234909.10999989137,234906.0699995607,233567.6,234211.02999988943,234217.613,235520.043,,6,,
square,canvas.Screen,2_4_3_6_1_0_0_0_0_5_3,2021-01-14T18:51:57.900Z,,,blank.png,blank.png,blank.png,blank.png,blank.png,blank.png,blank.png,"[""bretzel.png""]",blank.png,blank.png,blank.png,blank.png,blank.png,,,,,,,,,,,,,,,,,,,,,,,,,,,,,"[""bretzel.png""]","[""walnut.png""]",PB18.png,,,,,,,,,,,0,6,"[""walnut.png""]","[""walnut.png""]","[""walnut.png""]","[""walnut.png""]","[""walnut.png""]","[""walnut.png""]",blank.png,PB18.png,PB07.png,"[""walnut.png""]","[""walnut.png""]","[""walnut.png""]","[""walnut.png""]","[""walnut.png""]","[""walnut.png""]","[""walnut.png""]",blank.png,blank.png,blank.png,blank.png,blank.png,1,"[""bretzel.png""]",blank.png,blank.png,blank.png,1,"[""walnut.png""]",blank.png,blank.png,blank.png,blank.png,blank.png,PB07.png,,,,,,,,,,,1,,#33ff3f,#808080,,,,,,,,,1004.3990000000049,,timeout,,,,,,,,,,,,,4,,,,,,,,,,,,,,,,,,,,,,,,,,,,,,,,,,,,,,,,,,,,,,,,,,,,,,,,,"[""walnut.png""]","[""bretzel.png""]",,,,5,,,false,,1,,,,,black,white,236509.35499975458,236507.775,235503.376,235513.064999599,235520.043,236524.442,,,,
ITI_late,canvas.Screen,2_4_3_6_1_0_0_0_0_5_4,2021-01-14T18:51:58.651Z,,,blank.png,blank.png,blank.png,blank.png,blank.png,blank.png,blank.png,"[""bretzel.png""]",blank.png,blank.png,blank.png,blank.png,blank.png,,,,,,,,,,,,,,,,,,,,,,,,,,,,,"[""bretzel.png""]","[""walnut.png""]",PB18.png,,,,,,,,,,,0,6,"[""walnut.png""]","[""walnut.png""]","[""walnut.png""]","[""walnut.png""]","[""walnut.png""]","[""walnut.png""]",blank.png,PB18.png,PB07.png,"[""walnut.png""]","[""walnut.png""]","[""walnut.png""]","[""walnut.png""]","[""walnut.png""]","[""walnut.png""]","[""walnut.png""]",blank.png,blank.png,blank.png,blank.png,blank.png,1,"[""bretzel.png""]",blank.png,blank.png,blank.png,1,"[""walnut.png""]",blank.png,blank.png,blank.png,blank.png,blank.png,PB07.png,,,,,,,,,,,1,,,,,,,,,,,,751.2819999999774,,timeout,,,,,,,,,,,,white,4,,,,,,,,,,,,,,,,,,,,,,,,,,,,,,,,,,,,,,,,,,,,,,,,,,,,,,,,,"[""walnut.png""]","[""bretzel.png""]",,,,5,,,false,,1,,,,,,,237260.27999958023,237259.057,236507.775,236511.2899998203,236524.442,237275.724,,,,
choice_sequence,flow.Sequence,2_4_3_6_1_0_0_0_0_5,2021-01-14T18:51:58.652Z,,,blank.png,blank.png,blank.png,blank.png,blank.png,blank.png,blank.png,"[""bretzel.png""]",blank.png,blank.png,blank.png,blank.png,blank.png,,,,,,,,,,,,,,,,,,,,,,,,,,,,,"[""bretzel.png""]","[""walnut.png""]",PB18.png,,,,,,,,,,,0,6,"[""walnut.png""]","[""walnut.png""]","[""walnut.png""]","[""walnut.png""]","[""walnut.png""]","[""walnut.png""]",blank.png,PB18.png,PB07.png,"[""walnut.png""]","[""walnut.png""]","[""walnut.png""]","[""walnut.png""]","[""walnut.png""]","[""walnut.png""]","[""walnut.png""]",blank.png,blank.png,blank.png,blank.png,blank.png,1,"[""bretzel.png""]",blank.png,blank.png,blank.png,1,"[""walnut.png""]",blank.png,blank.png,blank.png,blank.png,blank.png,PB07.png,,,,,,,,,,,1,,,,,,,,,,,,5096.54800000001,,completion,,,,,,,,,,,,,4,,,,,,,,,,,,,,,,,,,,,,,,,,,,,,,,,,,,,,,,,,,,,,,,,,,,,,,,,"[""walnut.png""]","[""bretzel.png""]",,,,5,,,false,,1,,,,,,,237260.84999972954,237259.057,232145.842,232153.4749995917,232162.509,237275.724,,,,
fixCross,canvas.Screen,2_4_3_6_1_0_0_0_0_6_0,2021-01-14T18:51:58.903Z,,,blank.png,"[""bretzel.png""]",blank.png,blank.png,blank.png,blank.png,blank.png,blank.png,blank.png,blank.png,blank.png,blank.png,blank.png,,,,,,,,,,,,,,,,,,,,,,,,,,,,,"[""bretzel.png""]","[""walnut.png""]",PB17.png,,,,,,,,,,,0,6,"[""walnut.png""]","[""walnut.png""]","[""walnut.png""]","[""walnut.png""]","[""walnut.png""]","[""walnut.png""]",blank.png,PB18.png,PB18.png,"[""walnut.png""]","[""walnut.png""]","[""walnut.png""]","[""walnut.png""]","[""walnut.png""]","[""walnut.png""]","[""walnut.png""]","[""walnut.png""]","[""walnut.png""]","[""walnut.png""]","[""walnut.png""]","[""walnut.png""]",1,"[""bretzel.png""]",blank.png,blank.png,blank.png,6,"[""walnut.png""]","[""walnut.png""]","[""walnut.png""]","[""walnut.png""]","[""walnut.png""]","[""walnut.png""]",PB17.png,,,,,,,,,,,1,,,,,,,,,,,,1102.4310000000114,,timeout,,,,,,,,,,,,,3,,,,,,,,,,,,,,,,,,,,,,,,,,,,,,,,,,,,,,,,,,,,,,,,,,,,,,,,,"[""walnut.png""]","[""bretzel.png""]",,,,5,,,false,,1,,,,,,,237512.674999889,237511.471,237259.057,237266.31999993697,237275.724,238378.155,7,,,
timeout,canvas.Screen,2_4_3_6_1_0_0_0_0_6_1,2021-01-14T18:52:00.256Z,,,blank.png,"[""bretzel.png""]",blank.png,blank.png,blank.png,blank.png,blank.png,blank.png,blank.png,blank.png,blank.png,blank.png,blank.png,,,,,,,,,,,,,,,,,,,,,,,,,,,,,"[""bretzel.png""]","[""walnut.png""]",PB17.png,,,,,,,,,,,0,6,"[""walnut.png""]","[""walnut.png""]","[""walnut.png""]","[""walnut.png""]","[""walnut.png""]","[""walnut.png""]",blank.png,PB18.png,PB18.png,"[""walnut.png""]","[""walnut.png""]","[""walnut.png""]","[""walnut.png""]","[""walnut.png""]","[""walnut.png""]","[""walnut.png""]","[""walnut.png""]","[""walnut.png""]","[""walnut.png""]","[""walnut.png""]","[""walnut.png""]",1,"[""bretzel.png""]",blank.png,blank.png,blank.png,6,"[""walnut.png""]","[""walnut.png""]","[""walnut.png""]","[""walnut.png""]","[""walnut.png""]","[""walnut.png""]",PB17.png,,,,,,,,,,,1,,,,,,,,,,,,1468.466000000015,,timeout,,,,,,,,,,,,,3,,,,,,,,,,,,,,,,,,,,,,,,,,,,,,,,,,,,,,,,,,,,,,,,,,,,,,,,,"[""walnut.png""]","[""bretzel.png""]",,,,5,,,false,,1,,,,,,,238865.11999974027,238863.268,237511.471,238386.3299996592,238378.155,239846.621,,,,
choice,canvas.Screen,2_4_3_6_1_0_0_0_0_6_2,2021-01-14T18:52:01.650Z,,,blank.png,"[""bretzel.png""]",blank.png,blank.png,blank.png,blank.png,blank.png,blank.png,blank.png,blank.png,blank.png,blank.png,blank.png,,,,,,,,,,,,,,,,,,,,,,,,,,,,,"[""bretzel.png""]","[""walnut.png""]",PB17.png,,,,,,,,,,,0,6,"[""walnut.png""]","[""walnut.png""]","[""walnut.png""]","[""walnut.png""]","[""walnut.png""]","[""walnut.png""]",blank.png,PB18.png,PB18.png,"[""walnut.png""]","[""walnut.png""]","[""walnut.png""]","[""walnut.png""]","[""walnut.png""]","[""walnut.png""]","[""walnut.png""]","[""walnut.png""]","[""walnut.png""]","[""walnut.png""]","[""walnut.png""]","[""walnut.png""]",1,"[""bretzel.png""]",blank.png,blank.png,blank.png,6,"[""walnut.png""]","[""walnut.png""]","[""walnut.png""]","[""walnut.png""]","[""walnut.png""]","[""walnut.png""]",PB17.png,,,,,,,,,,,1,,,,,,,,,,,,411.45399978689966,,response,,,,,,,,,,,,,3,,,,,,,,,,,,,,,,,,,,,,,,,,,,,,,,,,,,,,,,,,,,,,,,,,,,,,,,,"[""walnut.png""]","[""bretzel.png""]",,,,5,left,keydown(ArrowLeft),false,,1,,,,,,,240259.25499992445,240258.0749997869,238863.268,239845.18499998376,239846.621,241132.611,,7,,
square,canvas.Screen,2_4_3_6_1_0_0_0_0_6_3,2021-01-14T18:52:03.512Z,,,blank.png,"[""bretzel.png""]",blank.png,blank.png,blank.png,blank.png,blank.png,blank.png,blank.png,blank.png,blank.png,blank.png,blank.png,,,,,,,,,,,,,,,,,,,,,,,,,,,,,"[""bretzel.png""]","[""walnut.png""]",PB17.png,,,,,,,,,,,0,6,"[""walnut.png""]","[""walnut.png""]","[""walnut.png""]","[""walnut.png""]","[""walnut.png""]","[""walnut.png""]",blank.png,PB18.png,PB18.png,"[""walnut.png""]","[""walnut.png""]","[""walnut.png""]","[""walnut.png""]","[""walnut.png""]","[""walnut.png""]","[""walnut.png""]","[""walnut.png""]","[""walnut.png""]","[""walnut.png""]","[""walnut.png""]","[""walnut.png""]",1,"[""bretzel.png""]",blank.png,blank.png,blank.png,6,"[""walnut.png""]","[""walnut.png""]","[""walnut.png""]","[""walnut.png""]","[""walnut.png""]","[""walnut.png""]",PB17.png,,,,,,,,,,,1,,#33ff3f,#808080,,,,,,,,,1004.619000000006,,timeout,,,,,,,,,,,,,3,,,,,,,,,,,,,,,,,,,,,,,,,,,,,,,,,,,,,,,,,,,,,,,,,,,,,,,,,"[""walnut.png""]","[""bretzel.png""]",,,,5,,,false,,1,,,,,black,white,242121.48999981582,242120.563,241082.61,241089.67999974266,241132.611,242137.23,,,,
ITI_late,canvas.Screen,2_4_3_6_1_0_0_0_0_6_4,2021-01-14T18:52:04.264Z,,,blank.png,"[""bretzel.png""]",blank.png,blank.png,blank.png,blank.png,blank.png,blank.png,blank.png,blank.png,blank.png,blank.png,blank.png,,,,,,,,,,,,,,,,,,,,,,,,,,,,,"[""bretzel.png""]","[""walnut.png""]",PB17.png,,,,,,,,,,,0,6,"[""walnut.png""]","[""walnut.png""]","[""walnut.png""]","[""walnut.png""]","[""walnut.png""]","[""walnut.png""]",blank.png,PB18.png,PB18.png,"[""walnut.png""]","[""walnut.png""]","[""walnut.png""]","[""walnut.png""]","[""walnut.png""]","[""walnut.png""]","[""walnut.png""]","[""walnut.png""]","[""walnut.png""]","[""walnut.png""]","[""walnut.png""]","[""walnut.png""]",1,"[""bretzel.png""]",blank.png,blank.png,blank.png,6,"[""walnut.png""]","[""walnut.png""]","[""walnut.png""]","[""walnut.png""]","[""walnut.png""]","[""walnut.png""]",PB17.png,,,,,,,,,,,1,,,,,,,,,,,,768.6069999999891,,timeout,,,,,,,,,,,,white,3,,,,,,,,,,,,,,,,,,,,,,,,,,,,,,,,,,,,,,,,,,,,,,,,,,,,,,,,,"[""walnut.png""]","[""bretzel.png""]",,,,5,,,false,,1,,,,,,,242873.24999971315,242872.503,242120.563,242123.49999975413,242137.23,242905.837,,,,
choice_sequence,flow.Sequence,2_4_3_6_1_0_0_0_0_6,2021-01-14T18:52:04.265Z,,,blank.png,"[""bretzel.png""]",blank.png,blank.png,blank.png,blank.png,blank.png,blank.png,blank.png,blank.png,blank.png,blank.png,blank.png,,,,,,,,,,,,,,,,,,,,,,,,,,,,,"[""bretzel.png""]","[""walnut.png""]",PB17.png,,,,,,,,,,,0,6,"[""walnut.png""]","[""walnut.png""]","[""walnut.png""]","[""walnut.png""]","[""walnut.png""]","[""walnut.png""]",blank.png,PB18.png,PB18.png,"[""walnut.png""]","[""walnut.png""]","[""walnut.png""]","[""walnut.png""]","[""walnut.png""]","[""walnut.png""]","[""walnut.png""]","[""walnut.png""]","[""walnut.png""]","[""walnut.png""]","[""walnut.png""]","[""walnut.png""]",1,"[""bretzel.png""]",blank.png,blank.png,blank.png,6,"[""walnut.png""]","[""walnut.png""]","[""walnut.png""]","[""walnut.png""]","[""walnut.png""]","[""walnut.png""]",PB17.png,,,,,,,,,,,1,,,,,,,,,,,,5596.77900000001,,completion,,,,,,,,,,,,,3,,,,,,,,,,,,,,,,,,,,,,,,,,,,,,,,,,,,,,,,,,,,,,,,,,,,,,,,,"[""walnut.png""]","[""bretzel.png""]",,,,5,,,false,,1,,,,,,,242873.9799996838,242872.503,237259.057,237265.3299998492,237275.724,242905.837,,,,
choice_loop,flow.Loop,2_4_3_6_1_0_0_0_0,2021-01-14T18:52:04.265Z,,,,,,,,,,,,,,,,,,,,,,,,,,,,,,,,,,,,,,,,,,,,"[""bretzel.png""]","[""walnut.png""]",,,,,,,,,,,,,,,,,,,,,,,,,,,,,,,,,,,,,,,,,,,,,,,,,,,,,,,,,,,,,,,,,,,,,,38980.456999999995,,completion,,,,,,,,,,,,,,,,,,,,,,,,,,,,,,,,,,,,,,,,,,,,,,,,,,,,,,,,,,,,,,,,,,,,,,"[""walnut.png""]","[""bretzel.png""]",,,,5,,,false,,,,,,,,,242874.34499990195,242872.503,203858.712,203890.43499995023,203892.046,242905.837,,,,
choice_frame,html.Frame,2_4_3_6_1_0_0_0,2021-01-14T18:52:04.265Z,,,,,,,,,,,,,,,,,,,,,,,,,,,,,,,,,,,,,,,,,,,,,,,,,,,,,,,,,,,,,,,,,,,,,,,,,,,,,,,,,,,,,,,,,,,,,,,,,,,,,,,,,,,,,,,,,,,38982.42899996051,,,,,,,,,,,,,,,,,,,,,,,,,,,,,,,,,,,,,,,,,,,,,,,,,,,,,,,,,,,,,,,,,,,,,,,,,,,,,5,,,false,,,,,,,,,242874.61499962956,242874.4749999605,203858.712,203859.59999961779,203892.046,242922.504,,,,
sublock_1,flow.Sequence,2_4_3_6_1_0_0,2021-01-14T18:52:04.265Z,,,,,,,,,,,,,,,,,,,,,,,,,,,,,,,,,,,,,,,,,,,,,,,,,,,,,,,,,,,,,,,,,,,,,,,,,,,,,,,,,,,,,,,,,,,,,,,,,,,,,,,,,,,,,,,,,,,38982.42899996051,,completion,,,,,,,,,,,,,,,,,,,,,,,,,,,,,,,,,,,,,,,,,,,,,,,,,,,,,,,,,,,,,,,,,,,,,,,,,,,5,,,false,,,,,,,,,242874.7649998404,242874.4749999605,203858.712,203859.54499989748,203892.046,242922.504,,,,
fixCross,canvas.Screen,2_4_3_6_1_0_1_0_0_0_0,2021-01-14T18:52:05.052Z,,,blank.png,"[""bretzel.png""]",blank.png,blank.png,blank.png,blank.png,blank.png,blank.png,blank.png,blank.png,blank.png,blank.png,blank.png,,,,,,,,,,,,,,,,,,,,,,,,,,,,,"[""bretzel.png""]","[""walnut.png""]",PB16.png,,,,,,,,,,,0,6,"[""walnut.png""]","[""walnut.png""]","[""walnut.png""]","[""walnut.png""]","[""walnut.png""]","[""walnut.png""]",blank.png,PB18.png,PB18.png,"[""walnut.png""]","[""walnut.png""]","[""walnut.png""]","[""walnut.png""]","[""walnut.png""]",blank.png,"[""walnut.png""]","[""walnut.png""]","[""walnut.png""]","[""walnut.png""]","[""walnut.png""]","[""walnut.png""]",1,"[""bretzel.png""]",blank.png,blank.png,blank.png,5,"[""walnut.png""]","[""walnut.png""]","[""walnut.png""]","[""walnut.png""]","[""walnut.png""]",blank.png,PB16.png,,,,,,,,,,,1,,,,,,,,,,,,1570.9000000000233,,timeout,,,,,,,,,,,,,3,,,,,,,,,,,,,,,,,,,,,,,,,,,,,,,,,,,,,,,,,,,,,,,,,,,,,,,,,"[""walnut.png""]","[""bretzel.png""]",,,,4,,,false,,1,,,,,,,243661.71999974176,243660.054,242905.837,242907.29999961331,242922.504,244493.404,8,,,
timeout,canvas.Screen,2_4_3_6_1_0_1_0_0_0_1,2021-01-14T18:52:06.368Z,,,blank.png,"[""bretzel.png""]",blank.png,blank.png,blank.png,blank.png,blank.png,blank.png,blank.png,blank.png,blank.png,blank.png,blank.png,,,,,,,,,,,,,,,,,,,,,,,,,,,,,"[""bretzel.png""]","[""walnut.png""]",PB16.png,,,,,,,,,,,0,6,"[""walnut.png""]","[""walnut.png""]","[""walnut.png""]","[""walnut.png""]","[""walnut.png""]","[""walnut.png""]",blank.png,PB18.png,PB18.png,"[""walnut.png""]","[""walnut.png""]","[""walnut.png""]","[""walnut.png""]","[""walnut.png""]",blank.png,"[""walnut.png""]","[""walnut.png""]","[""walnut.png""]","[""walnut.png""]","[""walnut.png""]","[""walnut.png""]",1,"[""bretzel.png""]",blank.png,blank.png,blank.png,5,"[""walnut.png""]","[""walnut.png""]","[""walnut.png""]","[""walnut.png""]","[""walnut.png""]",blank.png,PB16.png,,,,,,,,,,,1,,,,,,,,,,,,1300.0599999999977,,timeout,,,,,,,,,,,,,3,,,,,,,,,,,,,,,,,,,,,,,,,,,,,,,,,,,,,,,,,,,,,,,,,,,,,,,,,"[""walnut.png""]","[""bretzel.png""]",,,,4,,,false,,1,,,,,,,244977.95999981463,244976.781,243660.054,244484.5649995841,244493.404,245793.464,,,,
choice,canvas.Screen,2_4_3_6_1_0_1_0_0_0_2,2021-01-14T18:52:07.604Z,,,blank.png,"[""bretzel.png""]",blank.png,blank.png,blank.png,blank.png,blank.png,blank.png,blank.png,blank.png,blank.png,blank.png,blank.png,,,,,,,,,,,,,,,,,,,,,,,,,,,,,"[""bretzel.png""]","[""walnut.png""]",PB16.png,,,,,,,,,,,0,6,"[""walnut.png""]","[""walnut.png""]","[""walnut.png""]","[""walnut.png""]","[""walnut.png""]","[""walnut.png""]",blank.png,PB18.png,PB18.png,"[""walnut.png""]","[""walnut.png""]","[""walnut.png""]","[""walnut.png""]","[""walnut.png""]",blank.png,"[""walnut.png""]","[""walnut.png""]","[""walnut.png""]","[""walnut.png""]","[""walnut.png""]","[""walnut.png""]",1,"[""bretzel.png""]",blank.png,blank.png,blank.png,5,"[""walnut.png""]","[""walnut.png""]","[""walnut.png""]","[""walnut.png""]","[""walnut.png""]",blank.png,PB16.png,,,,,,,,,,,1,,,,,,,,,,,,417.740999592148,,response,,,,,,,,,,,,,3,,,,,,,,,,,,,,,,,,,,,,,,,,,,,,,,,,,,,,,,,,,,,,,,,,,,,,,,,"[""walnut.png""]","[""bretzel.png""]",,,,4,left,keydown(ArrowLeft),false,,1,,,,,,,246213.58500001952,246211.20499959216,244976.781,245793.8849995844,245793.464,247047.229,,8,,
square,canvas.Screen,2_4_3_6_1_0_1_0_0_0_3,2021-01-14T18:52:09.426Z,,,blank.png,"[""bretzel.png""]",blank.png,blank.png,blank.png,blank.png,blank.png,blank.png,blank.png,blank.png,blank.png,blank.png,blank.png,,,,,,,,,,,,,,,,,,,,,,,,,,,,,"[""bretzel.png""]","[""walnut.png""]",PB16.png,,,,,,,,,,,0,6,"[""walnut.png""]","[""walnut.png""]","[""walnut.png""]","[""walnut.png""]","[""walnut.png""]","[""walnut.png""]",blank.png,PB18.png,PB18.png,"[""walnut.png""]","[""walnut.png""]","[""walnut.png""]","[""walnut.png""]","[""walnut.png""]",blank.png,"[""walnut.png""]","[""walnut.png""]","[""walnut.png""]","[""walnut.png""]","[""walnut.png""]","[""walnut.png""]",1,"[""bretzel.png""]",blank.png,blank.png,blank.png,5,"[""walnut.png""]","[""walnut.png""]","[""walnut.png""]","[""walnut.png""]","[""walnut.png""]",blank.png,PB16.png,,,,,,,,,,,1,,#33ff3f,#808080,,,,,,,,,1004.2799999999988,,timeout,,,,,,,,,,,,,3,,,,,,,,,,,,,,,,,,,,,,,,,,,,,,,,,,,,,,,,,,,,,,,,,,,,,,,,,"[""walnut.png""]","[""bretzel.png""]",,,,4,,,false,,1,,,,,black,white,248036.01499972865,248034.842,247013.895,247023.5049999319,247047.229,248051.509,,,,
ITI_late,canvas.Screen,2_4_3_6_1_0_1_0_0_0_4,2021-01-14T18:52:10.429Z,,,blank.png,"[""bretzel.png""]",blank.png,blank.png,blank.png,blank.png,blank.png,blank.png,blank.png,blank.png,blank.png,blank.png,blank.png,,,,,,,,,,,,,,,,,,,,,,,,,,,,,"[""bretzel.png""]","[""walnut.png""]",PB16.png,,,,,,,,,,,0,6,"[""walnut.png""]","[""walnut.png""]","[""walnut.png""]","[""walnut.png""]","[""walnut.png""]","[""walnut.png""]",blank.png,PB18.png,PB18.png,"[""walnut.png""]","[""walnut.png""]","[""walnut.png""]","[""walnut.png""]","[""walnut.png""]",blank.png,"[""walnut.png""]","[""walnut.png""]","[""walnut.png""]","[""walnut.png""]","[""walnut.png""]","[""walnut.png""]",1,"[""bretzel.png""]",blank.png,blank.png,blank.png,5,"[""walnut.png""]","[""walnut.png""]","[""walnut.png""]","[""walnut.png""]","[""walnut.png""]",blank.png,PB16.png,,,,,,,,,,,1,,,,,,,,,,,,1001.8260000000009,,timeout,,,,,,,,,,,,white,3,,,,,,,,,,,,,,,,,,,,,,,,,,,,,,,,,,,,,,,,,,,,,,,,,,,,,,,,,"[""walnut.png""]","[""bretzel.png""]",,,,4,,,false,,1,,,,,,,249038.20499964058,249036.668,248034.842,248038.01999986172,248051.509,249053.335,,,,
choice_sequence,flow.Sequence,2_4_3_6_1_0_1_0_0_0,2021-01-14T18:52:10.429Z,,,blank.png,"[""bretzel.png""]",blank.png,blank.png,blank.png,blank.png,blank.png,blank.png,blank.png,blank.png,blank.png,blank.png,blank.png,,,,,,,,,,,,,,,,,,,,,,,,,,,,,"[""bretzel.png""]","[""walnut.png""]",PB16.png,,,,,,,,,,,0,6,"[""walnut.png""]","[""walnut.png""]","[""walnut.png""]","[""walnut.png""]","[""walnut.png""]","[""walnut.png""]",blank.png,PB18.png,PB18.png,"[""walnut.png""]","[""walnut.png""]","[""walnut.png""]","[""walnut.png""]","[""walnut.png""]",blank.png,"[""walnut.png""]","[""walnut.png""]","[""walnut.png""]","[""walnut.png""]","[""walnut.png""]","[""walnut.png""]",1,"[""bretzel.png""]",blank.png,blank.png,blank.png,5,"[""walnut.png""]","[""walnut.png""]","[""walnut.png""]","[""walnut.png""]","[""walnut.png""]",blank.png,PB16.png,,,,,,,,,,,1,,,,,,,,,,,,6114.164000000019,,completion,,,,,,,,,,,,,3,,,,,,,,,,,,,,,,,,,,,,,,,,,,,,,,,,,,,,,,,,,,,,,,,,,,,,,,,"[""walnut.png""]","[""bretzel.png""]",,,,4,,,false,,1,,,,,,,249038.76499971375,249036.668,242905.837,242906.31499979645,242922.504,249053.335,,,,
fixCross,canvas.Screen,2_4_3_6_1_0_1_0_0_1_0,2021-01-14T18:52:11.130Z,,,blank.png,"[""bretzel.png""]",blank.png,blank.png,blank.png,blank.png,blank.png,blank.png,blank.png,blank.png,blank.png,blank.png,blank.png,,,,,,,,,,,,,,,,,,,,,,,,,,,,,"[""bretzel.png""]","[""walnut.png""]",PB12.png,,,,,,,,,,,0,6,"[""walnut.png""]","[""walnut.png""]","[""walnut.png""]","[""walnut.png""]","[""walnut.png""]","[""walnut.png""]",blank.png,PB18.png,PB18.png,"[""walnut.png""]","[""walnut.png""]",blank.png,blank.png,blank.png,blank.png,"[""walnut.png""]","[""walnut.png""]","[""walnut.png""]","[""walnut.png""]","[""walnut.png""]","[""walnut.png""]",1,"[""bretzel.png""]",blank.png,blank.png,blank.png,2,"[""walnut.png""]","[""walnut.png""]",blank.png,blank.png,blank.png,blank.png,PB12.png,,,,,,,,,,,1,,,,,,,,,,,,1369.0920000000042,,timeout,,,,,,,,,,,,,3,,,,,,,,,,,,,,,,,,,,,,,,,,,,,,,,,,,,,,,,,,,,,,,,,,,,,,,,,"[""walnut.png""]","[""bretzel.png""]",,,,4,,,false,,1,,,,,,,249740.11999974027,249739.08,249036.668,249044.34499982744,249053.335,250422.427,9,,,
timeout,canvas.Screen,2_4_3_6_1_0_1_0_0_1_1,2021-01-14T18:52:12.300Z,,,blank.png,"[""bretzel.png""]",blank.png,blank.png,blank.png,blank.png,blank.png,blank.png,blank.png,blank.png,blank.png,blank.png,blank.png,,,,,,,,,,,,,,,,,,,,,,,,,,,,,"[""bretzel.png""]","[""walnut.png""]",PB12.png,,,,,,,,,,,0,6,"[""walnut.png""]","[""walnut.png""]","[""walnut.png""]","[""walnut.png""]","[""walnut.png""]","[""walnut.png""]",blank.png,PB18.png,PB18.png,"[""walnut.png""]","[""walnut.png""]",blank.png,blank.png,blank.png,blank.png,"[""walnut.png""]","[""walnut.png""]","[""walnut.png""]","[""walnut.png""]","[""walnut.png""]","[""walnut.png""]",1,"[""bretzel.png""]",blank.png,blank.png,blank.png,2,"[""walnut.png""]","[""walnut.png""]",blank.png,blank.png,blank.png,blank.png,PB12.png,,,,,,,,,,,1,,,,,,,,,,,,1169.0849999999919,,timeout,,,,,,,,,,,,,3,,,,,,,,,,,,,,,,,,,,,,,,,,,,,,,,,,,,,,,,,,,,,,,,,,,,,,,,,"[""walnut.png""]","[""bretzel.png""]",,,,4,,,false,,1,,,,,,,250909.44999968633,250908.165,249739.08,250394.25999997184,250422.427,251591.512,,,,
choice,canvas.Screen,2_4_3_6_1_0_1_0_0_1_2,2021-01-14T18:52:13.625Z,,,blank.png,"[""bretzel.png""]",blank.png,blank.png,blank.png,blank.png,blank.png,blank.png,blank.png,blank.png,blank.png,blank.png,blank.png,,,,,,,,,,,,,,,,,,,,,,,,,,,,,"[""bretzel.png""]","[""walnut.png""]",PB12.png,,,,,,,,,,,0,6,"[""walnut.png""]","[""walnut.png""]","[""walnut.png""]","[""walnut.png""]","[""walnut.png""]","[""walnut.png""]",blank.png,PB18.png,PB18.png,"[""walnut.png""]","[""walnut.png""]",blank.png,blank.png,blank.png,blank.png,"[""walnut.png""]","[""walnut.png""]","[""walnut.png""]","[""walnut.png""]","[""walnut.png""]","[""walnut.png""]",1,"[""bretzel.png""]",blank.png,blank.png,blank.png,2,"[""walnut.png""]","[""walnut.png""]",blank.png,blank.png,blank.png,blank.png,PB12.png,,,,,,,,,,,1,,,,,,,,,,,,642.0829996486427,,response,,,,,,,,,,,,,3,,,,,,,,,,,,,,,,,,,,,,,,,,,,,,,,,,,,,,,,,,,,,,,,,,,,,,,,,"[""walnut.png""]","[""bretzel.png""]",,,,4,right,keydown(ArrowRight),false,,1,,,,,,,252234.7199996002,252233.59499964863,250908.165,251591.88999980688,251591.512,252928.106,,9,,
square,canvas.Screen,2_4_3_6_1_0_1_0_0_1_3,2021-01-14T18:52:15.308Z,,,blank.png,"[""bretzel.png""]",blank.png,blank.png,blank.png,blank.png,blank.png,blank.png,blank.png,blank.png,blank.png,blank.png,blank.png,,,,,,,,,,,,,,,,,,,,,,,,,,,,,"[""bretzel.png""]","[""walnut.png""]",PB12.png,,,,,,,,,,,0,6,"[""walnut.png""]","[""walnut.png""]","[""walnut.png""]","[""walnut.png""]","[""walnut.png""]","[""walnut.png""]",blank.png,PB18.png,PB18.png,"[""walnut.png""]","[""walnut.png""]",blank.png,blank.png,blank.png,blank.png,"[""walnut.png""]","[""walnut.png""]","[""walnut.png""]","[""walnut.png""]","[""walnut.png""]","[""walnut.png""]",1,"[""bretzel.png""]",blank.png,blank.png,blank.png,2,"[""walnut.png""]","[""walnut.png""]",blank.png,blank.png,blank.png,blank.png,PB12.png,,,,,,,,,,,1,,#808080,#33ff3f,,,,,,,,,1004.4549999999872,,timeout,,,,,,,,,,,,,3,,,,,,,,,,,,,,,,,,,,,,,,,,,,,,,,,,,,,,,,,,,,,,,,,,,,,,,,,"[""walnut.png""]","[""bretzel.png""]",,,,4,,,false,,1,,,,,white,black,253917.72499959916,253915.894,252878.105,252888.3749996312,252928.106,253932.561,,,,
ITI_late,canvas.Screen,2_4_3_6_1_0_1_0_0_1_4,2021-01-14T18:52:16.559Z,,,blank.png,"[""bretzel.png""]",blank.png,blank.png,blank.png,blank.png,blank.png,blank.png,blank.png,blank.png,blank.png,blank.png,blank.png,,,,,,,,,,,,,,,,,,,,,,,,,,,,,"[""bretzel.png""]","[""walnut.png""]",PB12.png,,,,,,,,,,,0,6,"[""walnut.png""]","[""walnut.png""]","[""walnut.png""]","[""walnut.png""]","[""walnut.png""]","[""walnut.png""]",blank.png,PB18.png,PB18.png,"[""walnut.png""]","[""walnut.png""]",blank.png,blank.png,blank.png,blank.png,"[""walnut.png""]","[""walnut.png""]","[""walnut.png""]","[""walnut.png""]","[""walnut.png""]","[""walnut.png""]",1,"[""bretzel.png""]",blank.png,blank.png,blank.png,2,"[""walnut.png""]","[""walnut.png""]",blank.png,blank.png,blank.png,blank.png,PB12.png,,,,,,,,,,,1,,,,,,,,,,,,1251.7030000000086,,timeout,,,,,,,,,,,,white,3,,,,,,,,,,,,,,,,,,,,,,,,,,,,,,,,,,,,,,,,,,,,,,,,,,,,,,,,,"[""walnut.png""]","[""bretzel.png""]",,,,4,,,false,,1,,,,,,,255168.64999989048,255167.597,253915.894,253919.6899998933,253932.561,255184.264,,,,
choice_sequence,flow.Sequence,2_4_3_6_1_0_1_0_0_1,2021-01-14T18:52:16.560Z,,,blank.png,"[""bretzel.png""]",blank.png,blank.png,blank.png,blank.png,blank.png,blank.png,blank.png,blank.png,blank.png,blank.png,blank.png,,,,,,,,,,,,,,,,,,,,,,,,,,,,,"[""bretzel.png""]","[""walnut.png""]",PB12.png,,,,,,,,,,,0,6,"[""walnut.png""]","[""walnut.png""]","[""walnut.png""]","[""walnut.png""]","[""walnut.png""]","[""walnut.png""]",blank.png,PB18.png,PB18.png,"[""walnut.png""]","[""walnut.png""]",blank.png,blank.png,blank.png,blank.png,"[""walnut.png""]","[""walnut.png""]","[""walnut.png""]","[""walnut.png""]","[""walnut.png""]","[""walnut.png""]",1,"[""bretzel.png""]",blank.png,blank.png,blank.png,2,"[""walnut.png""]","[""walnut.png""]",blank.png,blank.png,blank.png,blank.png,PB12.png,,,,,,,,,,,1,,,,,,,,,,,,6114.262000000017,,completion,,,,,,,,,,,,,3,,,,,,,,,,,,,,,,,,,,,,,,,,,,,,,,,,,,,,,,,,,,,,,,,,,,,,,,,"[""walnut.png""]","[""bretzel.png""]",,,,4,,,false,,1,,,,,,,255169.22999965027,255167.597,249036.668,249043.22499968112,249053.335,255184.264,,,,
fixCross,canvas.Screen,2_4_3_6_1_0_1_0_0_2_0,2021-01-14T18:52:16.862Z,,,blank.png,"[""bretzel.png""]",blank.png,blank.png,blank.png,blank.png,blank.png,blank.png,blank.png,blank.png,blank.png,blank.png,blank.png,,,,,,,,,,,,,,,,,,,,,,,,,,,,,"[""bretzel.png""]","[""walnut.png""]",PB01.png,,,,,,,,,,,0,6,"[""walnut.png""]","[""walnut.png""]","[""walnut.png""]","[""walnut.png""]","[""walnut.png""]","[""walnut.png""]",blank.png,PB18.png,PB18.png,blank.png,blank.png,blank.png,blank.png,blank.png,blank.png,"[""walnut.png""]","[""walnut.png""]","[""walnut.png""]","[""walnut.png""]","[""walnut.png""]","[""walnut.png""]",1,"[""bretzel.png""]",blank.png,blank.png,blank.png,0,blank.png,blank.png,blank.png,blank.png,blank.png,blank.png,PB01.png,,,,,,,,,,,1,,,,,,,,,,,,902.3120000000054,,timeout,,,,,,,,,,,,,3,,,,,,,,,,,,,,,,,,,,,,,,,,,,,,,,,,,,,,,,,,,,,,,,,,,,,,,,,"[""walnut.png""]","[""bretzel.png""]",,,,4,,,false,,1,,,,,,,255471.52499994263,255469.897,255167.597,255176.4749996364,255184.264,256086.576,10,,,
timeout,canvas.Screen,2_4_3_6_1_0_1_0_0_2_1,2021-01-14T18:52:17.964Z,,,blank.png,"[""bretzel.png""]",blank.png,blank.png,blank.png,blank.png,blank.png,blank.png,blank.png,blank.png,blank.png,blank.png,blank.png,,,,,,,,,,,,,,,,,,,,,,,,,,,,,"[""bretzel.png""]","[""walnut.png""]",PB01.png,,,,,,,,,,,0,6,"[""walnut.png""]","[""walnut.png""]","[""walnut.png""]","[""walnut.png""]","[""walnut.png""]","[""walnut.png""]",blank.png,PB18.png,PB18.png,blank.png,blank.png,blank.png,blank.png,blank.png,blank.png,"[""walnut.png""]","[""walnut.png""]","[""walnut.png""]","[""walnut.png""]","[""walnut.png""]","[""walnut.png""]",1,"[""bretzel.png""]",blank.png,blank.png,blank.png,0,blank.png,blank.png,blank.png,blank.png,blank.png,blank.png,PB01.png,,,,,,,,,,,1,,,,,,,,,,,,1086.2889999999898,,timeout,,,,,,,,,,,,,3,,,,,,,,,,,,,,,,,,,,,,,,,,,,,,,,,,,,,,,,,,,,,,,,,,,,,,,,,"[""walnut.png""]","[""bretzel.png""]",,,,4,,,false,,1,,,,,,,256573.81999958307,256572.853,255469.897,256052.32499958947,256086.576,257172.865,,,,
choice,canvas.Screen,2_4_3_6_1_0_1_0_0_2_2,2021-01-14T18:52:19.034Z,,,blank.png,"[""bretzel.png""]",blank.png,blank.png,blank.png,blank.png,blank.png,blank.png,blank.png,blank.png,blank.png,blank.png,blank.png,,,,,,,,,,,,,,,,,,,,,,,,,,,,,"[""bretzel.png""]","[""walnut.png""]",PB01.png,,,,,,,,,,,0,6,"[""walnut.png""]","[""walnut.png""]","[""walnut.png""]","[""walnut.png""]","[""walnut.png""]","[""walnut.png""]",blank.png,PB18.png,PB18.png,blank.png,blank.png,blank.png,blank.png,blank.png,blank.png,"[""walnut.png""]","[""walnut.png""]","[""walnut.png""]","[""walnut.png""]","[""walnut.png""]","[""walnut.png""]",1,"[""bretzel.png""]",blank.png,blank.png,blank.png,0,blank.png,blank.png,blank.png,blank.png,blank.png,blank.png,PB01.png,,,,,,,,,,,1,,,,,,,,,,,,468.8249999603722,,response,,,,,,,,,,,,,3,,,,,,,,,,,,,,,,,,,,,,,,,,,,,,,,,,,,,,,,,,,,,,,,,,,,,,,,,"[""walnut.png""]","[""bretzel.png""]",,,,4,right,keydown(ArrowRight),false,,1,,,,,,,257643.1549997069,257641.68999996036,256572.853,257172.11999977008,257172.865,258258.421,,10,,
square,canvas.Screen,2_4_3_6_1_0_1_0_0_2_3,2021-01-14T18:52:20.639Z,,,blank.png,"[""bretzel.png""]",blank.png,blank.png,blank.png,blank.png,blank.png,blank.png,blank.png,blank.png,blank.png,blank.png,blank.png,,,,,,,,,,,,,,,,,,,,,,,,,,,,,"[""bretzel.png""]","[""walnut.png""]",PB01.png,,,,,,,,,,,0,6,"[""walnut.png""]","[""walnut.png""]","[""walnut.png""]","[""walnut.png""]","[""walnut.png""]","[""walnut.png""]",blank.png,PB18.png,PB18.png,blank.png,blank.png,blank.png,blank.png,blank.png,blank.png,"[""walnut.png""]","[""walnut.png""]","[""walnut.png""]","[""walnut.png""]","[""walnut.png""]","[""walnut.png""]",1,"[""bretzel.png""]",blank.png,blank.png,blank.png,0,blank.png,blank.png,blank.png,blank.png,blank.png,blank.png,PB01.png,,,,,,,,,,,1,,#808080,#33ff3f,,,,,,,,,1005.0679999999993,,timeout,,,,,,,,,,,,,3,,,,,,,,,,,,,,,,,,,,,,,,,,,,,,,,,,,,,,,,,,,,,,,,,,,,,,,,,"[""walnut.png""]","[""bretzel.png""]",,,,4,,,false,,1,,,,,white,black,259248.1849999167,259246.822,258225.087,258224.82999973,258258.421,259263.489,,,,
ITI_late,canvas.Screen,2_4_3_6_1_0_1_0_0_2_4,2021-01-14T18:52:21.889Z,,,blank.png,"[""bretzel.png""]",blank.png,blank.png,blank.png,blank.png,blank.png,blank.png,blank.png,blank.png,blank.png,blank.png,blank.png,,,,,,,,,,,,,,,,,,,,,,,,,,,,,"[""bretzel.png""]","[""walnut.png""]",PB01.png,,,,,,,,,,,0,6,"[""walnut.png""]","[""walnut.png""]","[""walnut.png""]","[""walnut.png""]","[""walnut.png""]","[""walnut.png""]",blank.png,PB18.png,PB18.png,blank.png,blank.png,blank.png,blank.png,blank.png,blank.png,"[""walnut.png""]","[""walnut.png""]","[""walnut.png""]","[""walnut.png""]","[""walnut.png""]","[""walnut.png""]",1,"[""bretzel.png""]",blank.png,blank.png,blank.png,0,blank.png,blank.png,blank.png,blank.png,blank.png,blank.png,PB01.png,,,,,,,,,,,1,,,,,,,,,,,,1250.1050000000105,,timeout,,,,,,,,,,,,white,3,,,,,,,,,,,,,,,,,,,,,,,,,,,,,,,,,,,,,,,,,,,,,,,,,,,,,,,,,"[""walnut.png""]","[""bretzel.png""]",,,,4,,,false,,1,,,,,,,260498.399999924,260496.927,259246.822,259250.1899995841,259263.489,260513.594,,,,
