sender,sender_type,sender_id,timestamp,meta,,Blank,DownLeft1,DownLeft2,DownLeft3,DownLeft4,DownLeft5,DownLeft6,DownRight1,DownRight2,DownRight3,DownRight4,DownRight5,DownRight6,FoodHabits_Fru_item1,FoodHabits_Fru_item2,FoodHabits_Fru_item3,FoodHabits_Fru_item4,FoodHabits_Fru_item5,FoodHabits_Fru_item6,FoodHabits_Fru_item7,FoodHabits_Meat_item1,FoodHabits_Meat_item2,FoodHabits_Meat_item3,FoodHabits_Meat_item4,FoodHabits_Meat_item5,FoodHabits_Meat_item6,FoodHabits_Meat_item7,FoodHabits_Swe_item1,FoodHabits_Swe_item2,FoodHabits_Swe_item3,FoodHabits_Swe_item4,FoodHabits_Swe_item5,FoodHabits_Swe_item6,FoodHabits_Swe_item7,FoodHabits_Veg_item1,FoodHabits_Veg_item2,FoodHabits_Veg_item3,FoodHabits_Veg_item4,FoodHabits_Veg_item5,FoodHabits_Veg_item6,FoodHabits_Veg_item7,ImgA,ImgB,LeftBar,PSS_item01,PSS_item02,PSS_item03,PSS_item04,PSS_item05,PSS_item06,PSS_item07,PSS_item08,PSS_item09,PSS_item10,RefA,RefB,RefB1,RefB2,RefB3,RefB4,RefB5,RefB6,RefB7,Ref_PB,RightBar,UpLeft1,UpLeft2,UpLeft3,UpLeft4,UpLeft5,UpLeft6,UpRight1,UpRight2,UpRight3,UpRight4,UpRight5,UpRight6,VarA,VarA1,VarA2,VarA3,VarA4,VarB,VarB1,VarB2,VarB3,VarB4,VarB5,VarB6,Var_PB,attCheck_fileA,attCheck_fileB,attCheck_fileC,attCheck_fileD,attCheck_options,attCheck_valueA,attCheck_valueB,attCheck_valueC,attCheck_valueD,attention_check,block,break1,browser_name,choseL,choseR,consent_form1,consent_form2,consentconfirmation_form1,consentconfirmation_form2,correct,correctResponse,diet,disorder,duration,edu,ended_on,enjoy,full_version,gender,group,hunger,img,imgTask,input_age,input_meal,input_occ,input_remark,lateRespFeed,list,major_version,message,mixQ_item1,mixQ_item2,mixQ_item3,mixQ_item4,mixQ_item5,name,navigator_appName,navigator_userAgent,os,pracQ1_IDa,pracQ1_IDb,pracQ1_IDc,pracQ1_IDd,pracQ1_optionA,pracQ1_optionB,pracQ1_optionC,pracQ1_optionD,pracQ1_valueA,pracQ1_valueB,pracQ1_valueC,pracQ1_valueD,pracQ2_IDa,pracQ2_IDb,pracQ2_IDc,pracQ2_optionA,pracQ2_optionB,pracQ2_optionC,pracQ2_valueA,pracQ2_valueB,pracQ2_valueC,pracQ4_IDa,pracQ4_IDb,pracQ4_IDc,pracQ4_IDd,pracQ4_optionA,pracQ4_optionB,pracQ4_optionC,pracQ4_optionD,pracQ4_valueA,pracQ4_valueB,pracQ4_valueC,pracQ4_valueD,pracQ5_IDa,pracQ5_IDb,pracQ5_IDc,pracQ5_IDd,pracQ5_optionA,pracQ5_optionB,pracQ5_optionC,pracQ5_optionD,pracQ5_valueA,pracQ5_valueB,pracQ5_valueC,pracQ5_valueD,prefHealty,prefUnhealthy,prolific_ID,psessionID,pstudyID,rep,response,response_action,skip,snack,sublock,subtitle,task_difficulty,task_engagement,task_focus,textL,textR,time_commit,time_end,time_render,time_run,time_show,time_switch,trial_count,trial_countO,url,valence
Title,html.Page,0,2021-05-24T16:09:48.695Z,"{""labjs_version"":""20.2.2"",""labjs_build"":{""flavor"":""production"",""commit"":""a25486e0c714a0ae2ce03ff94b7bb6896854dcfa""},""location"":""https://run.pavlovia.org/E3lab/rebund/html/?PROLIFIC_PID=5aa1c9fe35237b000112df7d&STUDY_ID=60008f34cd719d13b0d706dd&SESSION_ID=60abcfba929609a2eedca445"",""userAgent"":""Mozilla/5.0 (Windows NT 10.0; Win64; x64) AppleWebKit/537.36 (KHTML, like Gecko) Chrome/90.0.4430.93 Safari/537.36 OPR/76.0.4017.107"",""platform"":""Win32"",""language"":""en-US"",""locale"":""en-US"",""timeZone"":""Europe/Prague"",""timezoneOffset"":-120,""screen_width"":1536,""screen_height"":864,""scroll_width"":1434,""scroll_height"":715,""window_innerWidth"":1434,""window_innerHeight"":763,""devicePixelRatio"":1.25}",,,,,,,,,,,,,,,,,,,,,,,,,,,,,,,,,,,,,,,,,,,,,,,,,,,,,,,,,,,,,,,,,,,,,,,,,,,,,,,,,,,,,,,,,,,,,,,,,,,,,,,,,,,,,,,,,,,6060.852999979511,,form submission,,,,,,,,,,,,,,,,,,,,,,,,,,,,,,,,,,,,,,,,,,,,,,,,,,,,,,,,,,,,,,,,,,,,,,,,,,,,,,,,,,,,,,,7422.144999960437,7421.749999979511,1344.184,1332.384999957867,1360.897,7425.439,,,"{""PROLIFIC_PID"":""5aa1c9fe35237b000112df7d"",""STUDY_ID"":""60008f34cd719d13b0d706dd"",""SESSION_ID"":""60abcfba929609a2eedca445""}",
get_systemInfo,canvas.Screen,1,2021-05-24T16:09:48.717Z,,,,,,,,,,,,,,,,,,,,,,,,,,,,,,,,,,,,,,,,,,,,,,,,,,,,,,,,,,,,,,,,,,,,,,,,,,,,,,,,,,,,,,,,,,,,,,,,,,,,,,,,,Opera,,,,,,,,,,,3615.4429999999993,,timeout,,76.0.4017.107,,,,,,,,,,,,76,,,,,,,,Netscape,"Mozilla/5.0 (Windows NT 10.0; Win64; x64) AppleWebKit/537.36 (KHTML, like Gecko) Chrome/90.0.4430.93 Safari/537.36 OPR/76.0.4017.107",Windows,,,,,,,,,,,,,,,,,,,,,,,,,,,,,,,,,,,,,,,,,,,,,,,,5aa1c9fe35237b000112df7d,,60008f34cd719d13b0d706dd,,,,,,,,,,,,,7443.839999963529,7443.28999996651,7409.119,7422.9749999940395,7425.439,11040.882,,,,
ConsentForm,html.Form,2_0,2021-05-24T16:10:39.166Z,,,,,,,,,,,,,,,,,,,,,,,,,,,,,,,,,,,,,,,,,,,,,,,,,,,,,,,,,,,,,,,,,,,,,,,,,,,,,,,,,,,,,,,,,,,,,,,,,,,,,,,,,,,,true,true,,,,,,,46851.57299996469,,form submission,,,,,,,,,,,,,,,,,,,,,,,,,,,,,,,,,,,,,,,,,,,,,,,,,,,,,,,,,,,,,,,,,,,,,,,,,,,,,,,,,,,,,,,57892.785000032745,57892.454999964684,7443.28999996651,11053.044999949634,11040.882,57917.777,,,,
PepTalk,html.Page,2_1,2021-05-24T16:10:53.141Z,,,,,,,,,,,,,,,,,,,,,,,,,,,,,,,,,,,,,,,,,,,,,,,,,,,,,,,,,,,,,,,,,,,,,,,,,,,,,,,,,,,,,,,,,,,,,,,,,,,,,,,,,,,,,,,,,,,,13949.78300004243,,form submission,,,,,,,,,,,,,,,,,,,,,,,,,,,,,,,,,,,,,,,,,,,,,,,,,,,,,,,,,,,,,,,,,,,,,,,,,,,,,,,,,,,,,,,71867.8249999648,71867.56000004243,57875.166,57892.94000004884,57917.777,71887.347,,,,
Demographics,html.Form,2_2,2021-05-24T16:11:38.049Z,,,,,,,,,,,,,,,,,,,,,,,,,,,,,,,,,,,,,,,,,,,,,,,,,,,,,,,,,,,,,,,,,,,,,,,,,,,,,,,,,,,,,,,,,,,,,,,,,,,,,,,,,,,,,,,,,,,,44888.55300000783,4,form submission,,,2,,,,,29,,programmer,,,,,,,,,,,,,,,,,,,,,,,,,,,,,,,,,,,,,,,,,,,,,,,,,,,,,,,,,,,,,,,,,,,,,,,,,,,,,116776.135000051,116775.90000000782,71870.303,71867.97499994282,71887.347,116788.572,,,,
InclusionCrit,html.Form,2_3,2021-05-24T16:11:50.603Z,,,,,,,,,,,,,,,,,,,,,,,,,,,,,,,,,,,,,,,,,,,,,,,,,,,,,,,,,,,,,,,,,,,,,,,,,,,,,,,,,,,,,,,,,,,,,,,,,,,,,,,,,,,,,,,,,,0,1,12540.637999996237,,form submission,1,,,,,,,,,,,,,,,,,,,,,,,,,,,,,,,,,,,,,,,,,,,,,,,,,,,,,,,,,,,,,,,,,,,,,,,,,,,,,,,,,,,,,,129329.46499995887,129329.20999999624,116771.668,116776.24499995727,116788.572,129334.114,,,,
Selection,html.Page,2_4_0,2021-05-24T16:12:02.553Z,,,,,,,,,,,,,,,,,,,,,,,,,,,,,,,,,,,,,,,,,,,,,,,,,,,,,,,,,,,,,,,,,,,,,,,,,,,,,,,,,,,,,,,,,,,,,,,,,,,,,,,,,,,,,,,,,,,,11945.55100003822,,form submission,,,,,,,,,,,,,,,,,,,,,,,,,,,,,,,,,,,,,,,,,,,,,,,,,,,,,,,,,,,,,,,,,,,,,,,,,,,,,,,0,,,,,,,,141279.88499996718,141279.66500003822,129317.472,129329.61999997497,129334.114,141310.547,,,,
Load,html.Page,2_4_1,2021-05-24T16:12:02.588Z,,,,,,,,,,,,,,,,,,,,,,,,,,,,,,,,,,,,,,,,,,,,,,,,,,,,,,,,,,,,,,,,,,,,,,,,,,,,,,,,,,,,,,,,,,,,,,,,,,,,,,,,,,,,,,,,,,,,1502.3209999999963,,timeout,,,,,,,,,,,,,,,,,,,,,,,,,,,,,,,,,,,,,,,,,,,,,,,,,,,,,,,,,,,,,,,,,,,,,,,,,,,,,,,,,,,,,,,141314.2349999398,141313.82999999914,141263.54,141279.9899999518,141310.547,142812.868,,,,
ratings_instructions,html.Screen,2_4_2_0,2021-05-24T16:12:24.362Z,,,,,,,,,,,,,,,,,,,,,,,,,,,,,,,,,,,,,,,,,,,,,,,,,,,,,,,,,,,,,,,,,,,,,,,,,,,,,,,,,,,,,,,,,,,,,,,,,,,,,,,,,,,,,,,,,,,,20273.351999939216,,response,,,,,,,,,,,,,,,,,,,,,,,,,,,,,,,,,,,,,,,,,,,,,,,,,,,,,,,,,,,,,,,,,,,,,,,,,,,,continue,keypress(Space),false,,,,,,,,,163088.6800000444,163086.2199999392,141313.82999999914,142860.80000002403,142812.868,163089.336,0,0,,
fixCross,canvas.Screen,2_4_2_1_0_0,2021-05-24T16:12:24.846Z,,,,,,,,,,,,,,,,,,,,,,,,,,,,,,,,,,,,,,,,,,,,,,,,,,,,,,,,,,,,,,,,,,,,,,,,,,,,,,,,,,,,,,,,,,,,,,,,,,,,,,,,,,,,,,,,,,,,499.7869999999821,,timeout,,,,healthy,,cherry.png,,,,,,,,,,,,,,,cherry,,,,,,,,,,,,,,,,,,,,,,,,,,,,,,,,,,,,,,,,,,,,,,,,,,,,,,,,,false,,,,,,,,,163573.3000000473,163572.522,163072.84,163088.88499997556,163089.336,163589.123,,,,
Rating,html.Form,2_4_2_1_0_1,2021-05-24T16:12:32.916Z,,,,,,,,,,,,,,,,,,,,,,,,,,,,,,,,,,,,,,,,,,,,,,,,,,,,,,,,,,,,,,,,,,,,,,,,,,,,,,,,,,,,,,,,,,,,,,,,,,,,,,,,,,,,,,,,,,,,8053.477000021056,,form submission,,,,healthy,,cherry.png,,,,,,,,,,,,,,,cherry,,,,,,,,,,,,,,,,,,,,,,,,,,,,,,,,,,,,,,,,,,,,,,,,,,,,,,,,,false,,,,,,,,,171642.8349999478,171642.60000002105,163572.522,163573.39999999385,163589.123,171653.192,,,,86
rating_sequence,flow.Sequence,2_4_2_1_0,2021-05-24T16:12:32.917Z,,,,,,,,,,,,,,,,,,,,,,,,,,,,,,,,,,,,,,,,,,,,,,,,,,,,,,,,,,,,,,,,,,,,,,,,,,,,,,,,,,,,,,,,,,,,,,,,,,,,,,,,,,,,,,,,,,,,8553.264000021038,,completion,,,,healthy,,cherry.png,,,,,,,,,,,,,,,cherry,,,,,,,,,,,,,,,,,,,,,,,,,,,,,,,,,,,,,,,,,,,,,,,,,,,,,,,,,false,,,,,,,,,171644.07000003848,171642.60000002105,163072.84,163088.85499997996,163089.336,171653.192,,,,
fixCross,canvas.Screen,2_4_2_1_1_0,2021-05-24T16:12:33.410Z,,,,,,,,,,,,,,,,,,,,,,,,,,,,,,,,,,,,,,,,,,,,,,,,,,,,,,,,,,,,,,,,,,,,,,,,,,,,,,,,,,,,,,,,,,,,,,,,,,,,,,,,,,,,,,,,,,,,499.7739999999758,,timeout,,,,healthy,,pear.png,,,,,,,,,,,,,,,pear,,,,,,,,,,,,,,,,,,,,,,,,,,,,,,,,,,,,,,,,,,,,,,,,,,,,,,,,,false,,,,,,,,,172137.40999996662,172136.527,171636.46,171644.1600000253,171653.192,172152.966,,,,
Rating,html.Form,2_4_2_1_1_1,2021-05-24T16:12:37.149Z,,,,,,,,,,,,,,,,,,,,,,,,,,,,,,,,,,,,,,,,,,,,,,,,,,,,,,,,,,,,,,,,,,,,,,,,,,,,,,,,,,,,,,,,,,,,,,,,,,,,,,,,,,,,,,,,,,,,3723.079000040918,,form submission,,,,healthy,,pear.png,,,,,,,,,,,,,,,pear,,,,,,,,,,,,,,,,,,,,,,,,,,,,,,,,,,,,,,,,,,,,,,,,,,,,,,,,,false,,,,,,,,,175876.24999997206,175876.0450000409,172136.527,172137.5199999893,172152.966,175901.867,,,,28
rating_sequence,flow.Sequence,2_4_2_1_1,2021-05-24T16:12:37.149Z,,,,,,,,,,,,,,,,,,,,,,,,,,,,,,,,,,,,,,,,,,,,,,,,,,,,,,,,,,,,,,,,,,,,,,,,,,,,,,,,,,,,,,,,,,,,,,,,,,,,,,,,,,,,,,,,,,,,4222.853000040894,,completion,,,,healthy,,pear.png,,,,,,,,,,,,,,,pear,,,,,,,,,,,,,,,,,,,,,,,,,,,,,,,,,,,,,,,,,,,,,,,,,,,,,,,,,false,,,,,,,,,175876.4749999391,175876.0450000409,171636.46,171644.13499995135,171653.192,175901.867,,,,
fixCross,canvas.Screen,2_4_2_1_2_0,2021-05-24T16:12:37.659Z,,,,,,,,,,,,,,,,,,,,,,,,,,,,,,,,,,,,,,,,,,,,,,,,,,,,,,,,,,,,,,,,,,,,,,,,,,,,,,,,,,,,,,,,,,,,,,,,,,,,,,,,,,,,,,,,,,,,499.9670000000042,,timeout,,,,unhealthy,,m&m.png,,,,,,,,,,,,,,,m&m,,,,,,,,,,,,,,,,,,,,,,,,,,,,,,,,,,,,,,,,,,,,,,,,,,,,,,,,,false,,,,,,,,,176386.02500001434,176385.058,175885.084,175876.58000004012,175901.867,176401.834,,,,
Rating,html.Form,2_4_2_1_2_1,2021-05-24T16:12:40.914Z,,,,,,,,,,,,,,,,,,,,,,,,,,,,,,,,,,,,,,,,,,,,,,,,,,,,,,,,,,,,,,,,,,,,,,,,,,,,,,,,,,,,,,,,,,,,,,,,,,,,,,,,,,,,,,,,,,,,3238.811000035872,,form submission,,,,unhealthy,,m&m.png,,,,,,,,,,,,,,,m&m,,,,,,,,,,,,,,,,,,,,,,,,,,,,,,,,,,,,,,,,,,,,,,,,,,,,,,,,,false,,,,,,,,,179640.83000004757,179640.64500003587,176385.058,176386.14499999676,176401.834,179650.738,,,,100
rating_sequence,flow.Sequence,2_4_2_1_2,2021-05-24T16:12:40.914Z,,,,,,,,,,,,,,,,,,,,,,,,,,,,,,,,,,,,,,,,,,,,,,,,,,,,,,,,,,,,,,,,,,,,,,,,,,,,,,,,,,,,,,,,,,,,,,,,,,,,,,,,,,,,,,,,,,,,3738.778000035876,,completion,,,,unhealthy,,m&m.png,,,,,,,,,,,,,,,m&m,,,,,,,,,,,,,,,,,,,,,,,,,,,,,,,,,,,,,,,,,,,,,,,,,,,,,,,,,false,,,,,,,,,179640.95000003,179640.64500003587,175885.084,175876.55499996617,175901.867,179650.738,,,,
fixCross,canvas.Screen,2_4_2_1_3_0,2021-05-24T16:12:41.409Z,,,,,,,,,,,,,,,,,,,,,,,,,,,,,,,,,,,,,,,,,,,,,,,,,,,,,,,,,,,,,,,,,,,,,,,,,,,,,,,,,,,,,,,,,,,,,,,,,,,,,,,,,,,,,,,,,,,,499.61599999998,,timeout,,,,unhealthy,,liqorice.png,,,,,,,,,,,,,,,liquorice,,,,,,,,,,,,,,,,,,,,,,,,,,,,,,,,,,,,,,,,,,,,,,,,,,,,,,,,,false,,,,,,,,,180135.9399999492,180133.64,179634.017,179641.025000019,179650.738,180150.354,,,,
Rating,html.Form,2_4_2_1_3_1,2021-05-24T16:12:45.126Z,,,,,,,,,,,,,,,,,,,,,,,,,,,,,,,,,,,,,,,,,,,,,,,,,,,,,,,,,,,,,,,,,,,,,,,,,,,,,,,,,,,,,,,,,,,,,,,,,,,,,,,,,,,,,,,,,,,,3702.6810000364785,,form submission,,,,unhealthy,,liqorice.png,,,,,,,,,,,,,,,liquorice,,,,,,,,,,,,,,,,,,,,,,,,,,,,,,,,,,,,,,,,,,,,,,,,,,,,,,,,,false,,,,,,,,,183853.23999996763,183853.03500003647,180133.64,180136.04500005022,180150.354,183865.715,,,,20
rating_sequence,flow.Sequence,2_4_2_1_3,2021-05-24T16:12:45.126Z,,,,,,,,,,,,,,,,,,,,,,,,,,,,,,,,,,,,,,,,,,,,,,,,,,,,,,,,,,,,,,,,,,,,,,,,,,,,,,,,,,,,,,,,,,,,,,,,,,,,,,,,,,,,,,,,,,,,4202.2970000364585,,completion,,,,unhealthy,,liqorice.png,,,,,,,,,,,,,,,liquorice,,,,,,,,,,,,,,,,,,,,,,,,,,,,,,,,,,,,,,,,,,,,,,,,,,,,,,,,,false,,,,,,,,,183853.43999997713,183853.03500003647,179634.017,179641.00499998312,179650.738,183865.715,,,,
fixCross,canvas.Screen,2_4_2_1_4_0,2021-05-24T16:12:45.623Z,,,,,,,,,,,,,,,,,,,,,,,,,,,,,,,,,,,,,,,,,,,,,,,,,,,,,,,,,,,,,,,,,,,,,,,,,,,,,,,,,,,,,,,,,,,,,,,,,,,,,,,,,,,,,,,,,,,,500.1790000000037,,timeout,,,,unhealthy,,maltesers.png,,,,,,,,,,,,,,,malteser,,,,,,,,,,,,,,,,,,,,,,,,,,,,,,,,,,,,,,,,,,,,,,,,,,,,,,,,,false,,,,,,,,,184349.8350000009,184349.06,183849.22,183853.52999996394,183865.715,184365.894,,,,
Rating,html.Form,2_4_2_1_4_1,2021-05-24T16:12:50.829Z,,,,,,,,,,,,,,,,,,,,,,,,,,,,,,,,,,,,,,,,,,,,,,,,,,,,,,,,,,,,,,,,,,,,,,,,,,,,,,,,,,,,,,,,,,,,,,,,,,,,,,,,,,,,,,,,,,,,5189.580999942817,,form submission,,,,unhealthy,,maltesers.png,,,,,,,,,,,,,,,malteser,,,,,,,,,,,,,,,,,,,,,,,,,,,,,,,,,,,,,,,,,,,,,,,,,,,,,,,,,false,,,,,,,,,189555.70499994792,189555.47499994282,184349.06,184349.91999994963,184365.894,189563.75,,,,26
rating_sequence,flow.Sequence,2_4_2_1_4,2021-05-24T16:12:50.829Z,,,,,,,,,,,,,,,,,,,,,,,,,,,,,,,,,,,,,,,,,,,,,,,,,,,,,,,,,,,,,,,,,,,,,,,,,,,,,,,,,,,,,,,,,,,,,,,,,,,,,,,,,,,,,,,,,,,,5689.75999994282,,completion,,,,unhealthy,,maltesers.png,,,,,,,,,,,,,,,malteser,,,,,,,,,,,,,,,,,,,,,,,,,,,,,,,,,,,,,,,,,,,,,,,,,,,,,,,,,false,,,,,,,,,189555.83500000648,189555.47499994282,183849.22,183853.49999996834,183865.715,189563.75,,,,
fixCross,canvas.Screen,2_4_2_1_5_0,2021-05-24T16:12:51.321Z,,,,,,,,,,,,,,,,,,,,,,,,,,,,,,,,,,,,,,,,,,,,,,,,,,,,,,,,,,,,,,,,,,,,,,,,,,,,,,,,,,,,,,,,,,,,,,,,,,,,,,,,,,,,,,,,,,,,499.89400000000023,,timeout,,,,healthy,,coconut.png,,,,,,,,,,,,,,,coconut,,,,,,,,,,,,,,,,,,,,,,,,,,,,,,,,,,,,,,,,,,,,,,,,,,,,,,,,,false,,,,,,,,,190047.75499994867,190047.171,189547.337,189555.91999995522,189563.75,190063.644,,,,
Rating,html.Form,2_4_2_1_5_1,2021-05-24T16:12:53.934Z,,,,,,,,,,,,,,,,,,,,,,,,,,,,,,,,,,,,,,,,,,,,,,,,,,,,,,,,,,,,,,,,,,,,,,,,,,,,,,,,,,,,,,,,,,,,,,,,,,,,,,,,,,,,,,,,,,,,2596.8760000340117,,form submission,,,,healthy,,coconut.png,,,,,,,,,,,,,,,coconut,,,,,,,,,,,,,,,,,,,,,,,,,,,,,,,,,,,,,,,,,,,,,,,,,,,,,,,,,false,,,,,,,,,192660.73999996297,192660.520000034,190047.171,190047.8600000497,190063.644,192662.663,,,,100
rating_sequence,flow.Sequence,2_4_2_1_5,2021-05-24T16:12:53.934Z,,,,,,,,,,,,,,,,,,,,,,,,,,,,,,,,,,,,,,,,,,,,,,,,,,,,,,,,,,,,,,,,,,,,,,,,,,,,,,,,,,,,,,,,,,,,,,,,,,,,,,,,,,,,,,,,,,,,3096.770000034012,,completion,,,,healthy,,coconut.png,,,,,,,,,,,,,,,coconut,,,,,,,,,,,,,,,,,,,,,,,,,,,,,,,,,,,,,,,,,,,,,,,,,,,,,,,,,false,,,,,,,,,192660.87999998126,192660.520000034,189547.337,189555.90000003576,189563.75,192662.663,,,,
fixCross,canvas.Screen,2_4_2_1_6_0,2021-05-24T16:12:54.420Z,,,,,,,,,,,,,,,,,,,,,,,,,,,,,,,,,,,,,,,,,,,,,,,,,,,,,,,,,,,,,,,,,,,,,,,,,,,,,,,,,,,,,,,,,,,,,,,,,,,,,,,,,,,,,,,,,,,,499.8660000000091,,timeout,,,,unhealthy,,chocolate.png,,,,,,,,,,,,,,,chocolate,,,,,,,,,,,,,,,,,,,,,,,,,,,,,,,,,,,,,,,,,,,,,,,,,,,,,,,,,false,,,,,,,,,193146.9999999972,193146.187,192646.273,192660.96999996807,192662.663,193162.529,,,,
Rating,html.Form,2_4_2_1_6_1,2021-05-24T16:12:57.127Z,,,,,,,,,,,,,,,,,,,,,,,,,,,,,,,,,,,,,,,,,,,,,,,,,,,,,,,,,,,,,,,,,,,,,,,,,,,,,,,,,,,,,,,,,,,,,,,,,,,,,,,,,,,,,,,,,,,,2691.3310000319907,,form submission,,,,unhealthy,,chocolate.png,,,,,,,,,,,,,,,chocolate,,,,,,,,,,,,,,,,,,,,,,,,,,,,,,,,,,,,,,,,,,,,,,,,,,,,,,,,,false,,,,,,,,,195854.0300000459,195853.860000032,193146.187,193147.08999998402,193162.529,195861.762,,,,100
rating_sequence,flow.Sequence,2_4_2_1_6,2021-05-24T16:12:57.127Z,,,,,,,,,,,,,,,,,,,,,,,,,,,,,,,,,,,,,,,,,,,,,,,,,,,,,,,,,,,,,,,,,,,,,,,,,,,,,,,,,,,,,,,,,,,,,,,,,,,,,,,,,,,,,,,,,,,,3191.197000032,,completion,,,,unhealthy,,chocolate.png,,,,,,,,,,,,,,,chocolate,,,,,,,,,,,,,,,,,,,,,,,,,,,,,,,,,,,,,,,,,,,,,,,,,,,,,,,,,false,,,,,,,,,195854.14499999024,195853.860000032,192646.273,192660.93999997247,192662.663,195861.762,,,,
fixCross,canvas.Screen,2_4_2_1_7_0,2021-05-24T16:12:57.618Z,,,,,,,,,,,,,,,,,,,,,,,,,,,,,,,,,,,,,,,,,,,,,,,,,,,,,,,,,,,,,,,,,,,,,,,,,,,,,,,,,,,,,,,,,,,,,,,,,,,,,,,,,,,,,,,,,,,,499.75400000001537,,timeout,,,,unhealthy,,chocolate_truffle.png,,,,,,,,,,,,,,,chocolate truffle,,,,,,,,,,,,,,,,,,,,,,,,,,,,,,,,,,,,,,,,,,,,,,,,,,,,,,,,,false,,,,,,,,,196345.54500004742,196344.961,195844.91,195854.23499997705,195861.762,196361.516,,,,
Rating,html.Form,2_4_2_1_7_1,2021-05-24T16:13:01.820Z,,,,,,,,,,,,,,,,,,,,,,,,,,,,,,,,,,,,,,,,,,,,,,,,,,,,,,,,,,,,,,,,,,,,,,,,,,,,,,,,,,,,,,,,,,,,,,,,,,,,,,,,,,,,,,,,,,,,4185.663999994111,,form submission,,,,unhealthy,,chocolate_truffle.png,,,,,,,,,,,,,,,chocolate truffle,,,,,,,,,,,,,,,,,,,,,,,,,,,,,,,,,,,,,,,,,,,,,,,,,,,,,,,,,false,,,,,,,,,200547.42499999702,200547.1799999941,196344.961,196345.6549999537,196361.516,200560.19,,,,90
rating_sequence,flow.Sequence,2_4_2_1_7,2021-05-24T16:13:01.820Z,,,,,,,,,,,,,,,,,,,,,,,,,,,,,,,,,,,,,,,,,,,,,,,,,,,,,,,,,,,,,,,,,,,,,,,,,,,,,,,,,,,,,,,,,,,,,,,,,,,,,,,,,,,,,,,,,,,,4685.417999994126,,completion,,,,unhealthy,,chocolate_truffle.png,,,,,,,,,,,,,,,chocolate truffle,,,,,,,,,,,,,,,,,,,,,,,,,,,,,,,,,,,,,,,,,,,,,,,,,,,,,,,,,false,,,,,,,,,200547.55999997724,200547.1799999941,195844.91,195854.20499998145,195861.762,200560.19,,,,
fixCross,canvas.Screen,2_4_2_1_8_0,2021-05-24T16:13:02.317Z,,,,,,,,,,,,,,,,,,,,,,,,,,,,,,,,,,,,,,,,,,,,,,,,,,,,,,,,,,,,,,,,,,,,,,,,,,,,,,,,,,,,,,,,,,,,,,,,,,,,,,,,,,,,,,,,,,,,499.7600000000093,,timeout,,,,healthy,,apple.png,,,,,,,,,,,,,,,apple,,,,,,,,,,,,,,,,,,,,,,,,,,,,,,,,,,,,,,,,,,,,,,,,,,,,,,,,,false,,,,,,,,,201044.1850000061,201043.408,200543.395,200547.65500000212,200560.19,201059.95,,,,
Rating,html.Form,2_4_2_1_8_1,2021-05-24T16:13:07.278Z,,,,,,,,,,,,,,,,,,,,,,,,,,,,,,,,,,,,,,,,,,,,,,,,,,,,,,,,,,,,,,,,,,,,,,,,,,,,,,,,,,,,,,,,,,,,,,,,,,,,,,,,,,,,,,,,,,,,4944.784999965865,,form submission,,,,healthy,,apple.png,,,,,,,,,,,,,,,apple,,,,,,,,,,,,,,,,,,,,,,,,,,,,,,,,,,,,,,,,,,,,,,,,,,,,,,,,,false,,,,,,,,,206005.10499998927,206004.73499996588,201043.408,201044.27499999292,201059.95,206008.286,,,,41
rating_sequence,flow.Sequence,2_4_2_1_8,2021-05-24T16:13:07.278Z,,,,,,,,,,,,,,,,,,,,,,,,,,,,,,,,,,,,,,,,,,,,,,,,,,,,,,,,,,,,,,,,,,,,,,,,,,,,,,,,,,,,,,,,,,,,,,,,,,,,,,,,,,,,,,,,,,,,5444.544999965874,,completion,,,,healthy,,apple.png,,,,,,,,,,,,,,,apple,,,,,,,,,,,,,,,,,,,,,,,,,,,,,,,,,,,,,,,,,,,,,,,,,,,,,,,,,false,,,,,,,,,206005.25000004563,206004.73499996588,200543.395,200547.62500000652,200560.19,206008.286,,,,
fixCross,canvas.Screen,2_4_2_1_9_0,2021-05-24T16:13:07.765Z,,,,,,,,,,,,,,,,,,,,,,,,,,,,,,,,,,,,,,,,,,,,,,,,,,,,,,,,,,,,,,,,,,,,,,,,,,,,,,,,,,,,,,,,,,,,,,,,,,,,,,,,,,,,,,,,,,,,499.69800000000396,,timeout,,,,unhealthy,,marshmallow.png,,,,,,,,,,,,,,,marshmallow,,,,,,,,,,,,,,,,,,,,,,,,,,,,,,,,,,,,,,,,,,,,,,,,,,,,,,,,,false,,,,,,,,,206492.45999997947,206491.479,205991.711,206005.3299999563,206008.286,206507.984,,,,
Rating,html.Form,2_4_2_1_9_1,2021-05-24T16:13:10.658Z,,,,,,,,,,,,,,,,,,,,,,,,,,,,,,,,,,,,,,,,,,,,,,,,,,,,,,,,,,,,,,,,,,,,,,,,,,,,,,,,,,,,,,,,,,,,,,,,,,,,,,,,,,,,,,,,,,,,2877.296000045899,,form submission,,,,unhealthy,,marshmallow.png,,,,,,,,,,,,,,,marshmallow,,,,,,,,,,,,,,,,,,,,,,,,,,,,,,,,,,,,,,,,,,,,,,,,,,,,,,,,,false,,,,,,,,,209385.49499993678,209385.2800000459,206491.479,206492.57000000216,206507.984,209390.412,,,,84
rating_sequence,flow.Sequence,2_4_2_1_9,2021-05-24T16:13:10.658Z,,,,,,,,,,,,,,,,,,,,,,,,,,,,,,,,,,,,,,,,,,,,,,,,,,,,,,,,,,,,,,,,,,,,,,,,,,,,,,,,,,,,,,,,,,,,,,,,,,,,,,,,,,,,,,,,,,,,3376.994000045903,,completion,,,,unhealthy,,marshmallow.png,,,,,,,,,,,,,,,marshmallow,,,,,,,,,,,,,,,,,,,,,,,,,,,,,,,,,,,,,,,,,,,,,,,,,,,,,,,,,false,,,,,,,,,209385.61999995727,209385.2800000459,205991.711,206005.30499999877,206008.286,209390.412,,,,
fixCross,canvas.Screen,2_4_2_1_10_0,2021-05-24T16:13:11.147Z,,,,,,,,,,,,,,,,,,,,,,,,,,,,,,,,,,,,,,,,,,,,,,,,,,,,,,,,,,,,,,,,,,,,,,,,,,,,,,,,,,,,,,,,,,,,,,,,,,,,,,,,,,,,,,,,,,,,499.6909999999916,,timeout,,,,healthy,,raspberry.png,,,,,,,,,,,,,,,raspberry,,,,,,,,,,,,,,,,,,,,,,,,,,,,,,,,,,,,,,,,,,,,,,,,,,,,,,,,,false,,,,,,,,,209874.3249999825,209873.48,209373.85,209385.78000001144,209390.412,209890.103,,,,
Rating,html.Form,2_4_2_1_10_1,2021-05-24T16:13:13.164Z,,,,,,,,,,,,,,,,,,,,,,,,,,,,,,,,,,,,,,,,,,,,,,,,,,,,,,,,,,,,,,,,,,,,,,,,,,,,,,,,,,,,,,,,,,,,,,,,,,,,,,,,,,,,,,,,,,,,2001.0969999545487,,form submission,,,,healthy,,raspberry.png,,,,,,,,,,,,,,,raspberry,,,,,,,,,,,,,,,,,,,,,,,,,,,,,,,,,,,,,,,,,,,,,,,,,,,,,,,,,false,,,,,,,,,211891.4100000402,211891.19999995455,209873.48,209874.42000000738,209890.103,211906.235,,,,79
rating_sequence,flow.Sequence,2_4_2_1_10,2021-05-24T16:13:13.164Z,,,,,,,,,,,,,,,,,,,,,,,,,,,,,,,,,,,,,,,,,,,,,,,,,,,,,,,,,,,,,,,,,,,,,,,,,,,,,,,,,,,,,,,,,,,,,,,,,,,,,,,,,,,,,,,,,,,,2500.7879999545403,,completion,,,,healthy,,raspberry.png,,,,,,,,,,,,,,,raspberry,,,,,,,,,,,,,,,,,,,,,,,,,,,,,,,,,,,,,,,,,,,,,,,,,,,,,,,,,false,,,,,,,,,211891.53999998234,211891.19999995455,209373.85,209385.73500001803,209390.412,211906.235,,,,
fixCross,canvas.Screen,2_4_2_1_11_0,2021-05-24T16:13:13.663Z,,,,,,,,,,,,,,,,,,,,,,,,,,,,,,,,,,,,,,,,,,,,,,,,,,,,,,,,,,,,,,,,,,,,,,,,,,,,,,,,,,,,,,,,,,,,,,,,,,,,,,,,,,,,,,,,,,,,499.7710000000079,,timeout,,,,unhealthy,,candy.png,,,,,,,,,,,,,,,candy,,,,,,,,,,,,,,,,,,,,,,,,,,,,,,,,,,,,,,,,,,,,,,,,,,,,,,,,,false,,,,,,,,,212390.1949999854,212389.374,211889.857,211891.62999996915,211906.235,212406.006,,,,
Rating,html.Form,2_4_2_1_11_1,2021-05-24T16:13:16.899Z,,,,,,,,,,,,,,,,,,,,,,,,,,,,,,,,,,,,,,,,,,,,,,,,,,,,,,,,,,,,,,,,,,,,,,,,,,,,,,,,,,,,,,,,,,,,,,,,,,,,,,,,,,,,,,,,,,,,3220.404000026232,,form submission,,,,unhealthy,,candy.png,,,,,,,,,,,,,,,candy,,,,,,,,,,,,,,,,,,,,,,,,,,,,,,,,,,,,,,,,,,,,,,,,,,,,,,,,,false,,,,,,,,,215626.63499999326,215626.41000002623,212389.374,212390.4549999861,212406.006,215638.417,,,,38
rating_sequence,flow.Sequence,2_4_2_1_11,2021-05-24T16:13:16.900Z,,,,,,,,,,,,,,,,,,,,,,,,,,,,,,,,,,,,,,,,,,,,,,,,,,,,,,,,,,,,,,,,,,,,,,,,,,,,,,,,,,,,,,,,,,,,,,,,,,,,,,,,,,,,,,,,,,,,3720.17500002624,,completion,,,,unhealthy,,candy.png,,,,,,,,,,,,,,,candy,,,,,,,,,,,,,,,,,,,,,,,,,,,,,,,,,,,,,,,,,,,,,,,,,,,,,,,,,false,,,,,,,,,215626.78000004962,215626.41000002623,211889.857,211891.59999997355,211906.235,215638.417,,,,
fixCross,canvas.Screen,2_4_2_1_12_0,2021-05-24T16:13:17.395Z,,,,,,,,,,,,,,,,,,,,,,,,,,,,,,,,,,,,,,,,,,,,,,,,,,,,,,,,,,,,,,,,,,,,,,,,,,,,,,,,,,,,,,,,,,,,,,,,,,,,,,,,,,,,,,,,,,,,499.79200000001583,,timeout,,,,unhealthy,,praline.png,,,,,,,,,,,,,,,praline,,,,,,,,,,,,,,,,,,,,,,,,,,,,,,,,,,,,,,,,,,,,,,,,,,,,,,,,,false,,,,,,,,,216122.13499995414,216121.497,215621.767,215626.8749999581,215638.417,216138.209,,,,
Rating,html.Form,2_4_2_1_12_1,2021-05-24T16:13:20.733Z,,,,,,,,,,,,,,,,,,,,,,,,,,,,,,,,,,,,,,,,,,,,,,,,,,,,,,,,,,,,,,,,,,,,,,,,,,,,,,,,,,,,,,,,,,,,,,,,,,,,,,,,,,,,,,,,,,,,3322.0110000081186,,form submission,,,,unhealthy,,praline.png,,,,,,,,,,,,,,,praline,,,,,,,,,,,,,,,,,,,,,,,,,,,,,,,,,,,,,,,,,,,,,,,,,,,,,,,,,false,,,,,,,,,219460.42999997735,219460.22000000812,216121.497,216122.2200000193,216138.209,219470.262,,,,100
rating_sequence,flow.Sequence,2_4_2_1_12,2021-05-24T16:13:20.734Z,,,,,,,,,,,,,,,,,,,,,,,,,,,,,,,,,,,,,,,,,,,,,,,,,,,,,,,,,,,,,,,,,,,,,,,,,,,,,,,,,,,,,,,,,,,,,,,,,,,,,,,,,,,,,,,,,,,,3821.8030000081344,,completion,,,,unhealthy,,praline.png,,,,,,,,,,,,,,,praline,,,,,,,,,,,,,,,,,,,,,,,,,,,,,,,,,,,,,,,,,,,,,,,,,,,,,,,,,false,,,,,,,,,219460.65000002272,219460.22000000812,215621.767,215626.8449999625,215638.417,219470.262,,,,
fixCross,canvas.Screen,2_4_2_1_13_0,2021-05-24T16:13:21.228Z,,,,,,,,,,,,,,,,,,,,,,,,,,,,,,,,,,,,,,,,,,,,,,,,,,,,,,,,,,,,,,,,,,,,,,,,,,,,,,,,,,,,,,,,,,,,,,,,,,,,,,,,,,,,,,,,,,,,499.75900000002,,timeout,,,,unhealthy,,gummybear.png,,,,,,,,,,,,,,,gummybear,,,,,,,,,,,,,,,,,,,,,,,,,,,,,,,,,,,,,,,,,,,,,,,,,,,,,,,,,false,,,,,,,,,219954.73999995738,219953.814,219453.894,219460.77000000514,219470.262,219970.021,,,,
Rating,html.Form,2_4_2_1_13_1,2021-05-24T16:13:23.713Z,,,,,,,,,,,,,,,,,,,,,,,,,,,,,,,,,,,,,,,,,,,,,,,,,,,,,,,,,,,,,,,,,,,,,,,,,,,,,,,,,,,,,,,,,,,,,,,,,,,,,,,,,,,,,,,,,,,,2469.8340000041644,,form submission,,,,unhealthy,,gummybear.png,,,,,,,,,,,,,,,gummybear,,,,,,,,,,,,,,,,,,,,,,,,,,,,,,,,,,,,,,,,,,,,,,,,,,,,,,,,,false,,,,,,,,,222440.13000000268,222439.85500000417,219953.814,219954.95499996468,219970.021,222452.87,,,,100
rating_sequence,flow.Sequence,2_4_2_1_13,2021-05-24T16:13:23.713Z,,,,,,,,,,,,,,,,,,,,,,,,,,,,,,,,,,,,,,,,,,,,,,,,,,,,,,,,,,,,,,,,,,,,,,,,,,,,,,,,,,,,,,,,,,,,,,,,,,,,,,,,,,,,,,,,,,,,2969.5930000041844,,completion,,,,unhealthy,,gummybear.png,,,,,,,,,,,,,,,gummybear,,,,,,,,,,,,,,,,,,,,,,,,,,,,,,,,,,,,,,,,,,,,,,,,,,,,,,,,,false,,,,,,,,,222440.27000002097,222439.85500000417,219453.894,219460.7450000476,219470.262,222452.87,,,,
fixCross,canvas.Screen,2_4_2_1_14_0,2021-05-24T16:13:24.209Z,,,,,,,,,,,,,,,,,,,,,,,,,,,,,,,,,,,,,,,,,,,,,,,,,,,,,,,,,,,,,,,,,,,,,,,,,,,,,,,,,,,,,,,,,,,,,,,,,,,,,,,,,,,,,,,,,,,,499.7700000000186,,timeout,,,,healthy,,blueberry.png,,,,,,,,,,,,,,,blueberry,,,,,,,,,,,,,,,,,,,,,,,,,,,,,,,,,,,,,,,,,,,,,,,,,,,,,,,,,false,,,,,,,,,222936.4249999635,222935.831,222436.003,222440.3600000078,222452.87,222952.64,,,,
Rating,html.Form,2_4_2_1_14_1,2021-05-24T16:13:27.378Z,,,,,,,,,,,,,,,,,,,,,,,,,,,,,,,,,,,,,,,,,,,,,,,,,,,,,,,,,,,,,,,,,,,,,,,,,,,,,,,,,,,,,,,,,,,,,,,,,,,,,,,,,,,,,,,,,,,,3151.25999998732,,form submission,,,,healthy,,blueberry.png,,,,,,,,,,,,,,,blueberry,,,,,,,,,,,,,,,,,,,,,,,,,,,,,,,,,,,,,,,,,,,,,,,,,,,,,,,,,false,,,,,,,,,226104.1200000327,226103.89999998733,222935.831,222936.50499999058,222952.64,226118.312,,,,100
rating_sequence,flow.Sequence,2_4_2_1_14,2021-05-24T16:13:27.378Z,,,,,,,,,,,,,,,,,,,,,,,,,,,,,,,,,,,,,,,,,,,,,,,,,,,,,,,,,,,,,,,,,,,,,,,,,,,,,,,,,,,,,,,,,,,,,,,,,,,,,,,,,,,,,,,,,,,,3651.0299999873387,,completion,,,,healthy,,blueberry.png,,,,,,,,,,,,,,,blueberry,,,,,,,,,,,,,,,,,,,,,,,,,,,,,,,,,,,,,,,,,,,,,,,,,,,,,,,,,false,,,,,,,,,226104.24000001512,226103.89999998733,222436.003,222440.33500005025,222452.87,226118.312,,,,
fixCross,canvas.Screen,2_4_2_1_15_0,2021-05-24T16:13:27.876Z,,,,,,,,,,,,,,,,,,,,,,,,,,,,,,,,,,,,,,,,,,,,,,,,,,,,,,,,,,,,,,,,,,,,,,,,,,,,,,,,,,,,,,,,,,,,,,,,,,,,,,,,,,,,,,,,,,,,499.8649999999907,,timeout,,,,healthy,,grape.png,,,,,,,,,,,,,,,grape,,,,,,,,,,,,,,,,,,,,,,,,,,,,,,,,,,,,,,,,,,,,,,,,,,,,,,,,,false,,,,,,,,,226601.95999999996,226601.398,226101.314,226104.32499996386,226118.312,226618.177,,,,
Rating,html.Form,2_4_2_1_15_1,2021-05-24T16:13:31.458Z,,,,,,,,,,,,,,,,,,,,,,,,,,,,,,,,,,,,,,,,,,,,,,,,,,,,,,,,,,,,,,,,,,,,,,,,,,,,,,,,,,,,,,,,,,,,,,,,,,,,,,,,,,,,,,,,,,,,3566.367999967333,,form submission,,,,healthy,,grape.png,,,,,,,,,,,,,,,grape,,,,,,,,,,,,,,,,,,,,,,,,,,,,,,,,,,,,,,,,,,,,,,,,,,,,,,,,,false,,,,,,,,,230184.73999993876,230184.54499996733,226601.398,226602.13000001386,226618.177,230200.032,,,,68
rating_sequence,flow.Sequence,2_4_2_1_15,2021-05-24T16:13:31.458Z,,,,,,,,,,,,,,,,,,,,,,,,,,,,,,,,,,,,,,,,,,,,,,,,,,,,,,,,,,,,,,,,,,,,,,,,,,,,,,,,,,,,,,,,,,,,,,,,,,,,,,,,,,,,,,,,,,,,4066.232999967324,,completion,,,,healthy,,grape.png,,,,,,,,,,,,,,,grape,,,,,,,,,,,,,,,,,,,,,,,,,,,,,,,,,,,,,,,,,,,,,,,,,,,,,,,,,false,,,,,,,,,230184.86999999732,230184.54499996733,226101.314,226104.30000000633,226118.312,230200.032,,,,
fixCross,canvas.Screen,2_4_2_1_16_0,2021-05-24T16:13:31.957Z,,,,,,,,,,,,,,,,,,,,,,,,,,,,,,,,,,,,,,,,,,,,,,,,,,,,,,,,,,,,,,,,,,,,,,,,,,,,,,,,,,,,,,,,,,,,,,,,,,,,,,,,,,,,,,,,,,,,499.8209999999963,,timeout,,,,healthy,,orange.png,,,,,,,,,,,,,,,orange,,,,,,,,,,,,,,,,,,,,,,,,,,,,,,,,,,,,,,,,,,,,,,,,,,,,,,,,,false,,,,,,,,,230683.63500002306,230683.076,230183.217,230185.03499997314,230200.032,230699.853,,,,
Rating,html.Form,2_4_2_1_16_1,2021-05-24T16:13:35.286Z,,,,,,,,,,,,,,,,,,,,,,,,,,,,,,,,,,,,,,,,,,,,,,,,,,,,,,,,,,,,,,,,,,,,,,,,,,,,,,,,,,,,,,,,,,,,,,,,,,,,,,,,,,,,,,,,,,,,3312.577000002493,,form submission,,,,healthy,,orange.png,,,,,,,,,,,,,,,orange,,,,,,,,,,,,,,,,,,,,,,,,,,,,,,,,,,,,,,,,,,,,,,,,,,,,,,,,,false,,,,,,,,,234012.63500005007,234012.4300000025,230683.076,230683.72500000987,230699.853,234015.283,,,,26
rating_sequence,flow.Sequence,2_4_2_1_16,2021-05-24T16:13:35.286Z,,,,,,,,,,,,,,,,,,,,,,,,,,,,,,,,,,,,,,,,,,,,,,,,,,,,,,,,,,,,,,,,,,,,,,,,,,,,,,,,,,,,,,,,,,,,,,,,,,,,,,,,,,,,,,,,,,,,3812.3980000024894,,completion,,,,healthy,,orange.png,,,,,,,,,,,,,,,orange,,,,,,,,,,,,,,,,,,,,,,,,,,,,,,,,,,,,,,,,,,,,,,,,,,,,,,,,,false,,,,,,,,,234012.75500003248,234012.4300000025,230183.217,230184.97499998193,230200.032,234015.283,,,,
fixCross,canvas.Screen,2_4_2_1_17_0,2021-05-24T16:13:35.773Z,,,,,,,,,,,,,,,,,,,,,,,,,,,,,,,,,,,,,,,,,,,,,,,,,,,,,,,,,,,,,,,,,,,,,,,,,,,,,,,,,,,,,,,,,,,,,,,,,,,,,,,,,,,,,,,,,,,,499.8380000000179,,timeout,,,,healthy,,strawberry.png,,,,,,,,,,,,,,,strawberry,,,,,,,,,,,,,,,,,,,,,,,,,,,,,,,,,,,,,,,,,,,,,,,,,,,,,,,,,false,,,,,,,,,234499.6149999788,234498.747,233998.869,234012.83499994315,234015.283,234515.121,,,,
Rating,html.Form,2_4_2_1_17_1,2021-05-24T16:13:38.443Z,,,,,,,,,,,,,,,,,,,,,,,,,,,,,,,,,,,,,,,,,,,,,,,,,,,,,,,,,,,,,,,,,,,,,,,,,,,,,,,,,,,,,,,,,,,,,,,,,,,,,,,,,,,,,,,,,,,,2654.3090000090015,,form submission,,,,healthy,,strawberry.png,,,,,,,,,,,,,,,strawberry,,,,,,,,,,,,,,,,,,,,,,,,,,,,,,,,,,,,,,,,,,,,,,,,,,,,,,,,,false,,,,,,,,,237169.6650000522,237169.43000000902,234498.747,234499.73000003956,234515.121,237180.898,,,,91
rating_sequence,flow.Sequence,2_4_2_1_17,2021-05-24T16:13:38.443Z,,,,,,,,,,,,,,,,,,,,,,,,,,,,,,,,,,,,,,,,,,,,,,,,,,,,,,,,,,,,,,,,,,,,,,,,,,,,,,,,,,,,,,,,,,,,,,,,,,,,,,,,,,,,,,,,,,,,3154.1470000090194,,completion,,,,healthy,,strawberry.png,,,,,,,,,,,,,,,strawberry,,,,,,,,,,,,,,,,,,,,,,,,,,,,,,,,,,,,,,,,,,,,,,,,,,,,,,,,,false,,,,,,,,,237169.79499999434,237169.43000000902,233998.869,234012.80999998562,234015.283,237180.898,,,,
rating_loop,flow.Loop,2_4_2_1,2021-05-24T16:13:38.444Z,,,,,,,,,,,,,,,,,,,,,,,,,,,,,,,,,,,,,,,,,,,,,,,,,,,,,,,,,,,,,,,,,,,,,,,,,,,,,,,,,,,,,,,,,,,,,,,,,,,,,,,,,,,,,,,,,,,,74080.094000009,,completion,,,,,,,,,,,,,,,,,,,,,,,,,,,,,,,,,,,,,,,,,,,,,,,,,,,,,,,,,,,,,,,,,,,,,,,,,,,,,,false,,,,,,,,,237169.91499997675,237169.43000000902,163072.84,163088.81500002462,163089.336,237180.898,,,,
data_transmission,html.Screen,2_4_2_2,2021-05-24T16:13:38.453Z,,,,,,,,,,,,,,,,,,,,,,,,,,,,,,,,,,,,,,,,,,,,,,,,,,,,,,,,,,,,,,,,,,,,,,,,,,,,,,,,,,,,,,,,,,,,,,,,,,,,,,,,,,,,,,,,,,,,NaN,,no compatible backend,,,,,,,,,,,,,,,Transferring data,,,,,,,,,,,,,,,,,,,,,,,,,,,,,,,,,,,,,,,,,,,,,,,,,,,,,,,,,,,,,,,false,,,Please wait a second…,,,,,,237179.00999996345,237178.8350000279,,237169.98000000603,,237180.898,,,,
instructions,html.Screen,2_4_2_3,2021-05-24T16:15:33.549Z,,,,,,,,,,,,,,,,,,,,,,,,,,,,,,,,,,,,,,,,,,,,,,,,,,,,,,,,,,,,,,,,,,,,,,,,,,,,,,,,,,,,,,,,,,,,,,,,,,,,,,,,,,,,,,,,,,,,115095.02699996537,,done,,,,,,,,,,,,,,,,,,,,,,,,,,,,,,,,,,,,,,,,,,,,,,,,,,,,,,,,,,,,,,,,,,,,,,,,,,,,,,false,,,,,,,,,352276.0899999412,352275.92499996535,237164.43,237179.11999998614,237180.898,352291.837,,,,
Q1,html.Screen,2_4_2_4_0,2021-05-24T16:15:45.492Z,,,,,,,,,,,,,,,,,,,,,,,,,,,,,,,,,,,,,,,,,,,,,,,,,,,,,,,,,,,,,,,,,,,,,,,,,,,,,,,,,,,,,,,,,,,,,,,,,,,,,,,,,,,,,,,,false,input_Q1==3,,,11924.253000001714,,response,,,,,,,,,,,,,,,,,,,,,,,,,Q1_i3,Q1_i1,Q1_i4,Q1_i2,3,1,4,2,correct,false,false,false,,,,,,,,,,,,,,,,,,,,,,,,,,,,,,,,,,,,,,,,,click #Q1_i3,false,,,,,,,,,364218.40500005055,364216.0900000017,352274.946,352276.19999996386,352291.837,364221.166,,,,
Q1_correct,html.Screen,2_4_2_4_1,2021-05-24T16:15:47.943Z,,,,,,,,,,,,,,,,,,,,,,,,,,,,,,,,,,,,,,,,,,,,,,,,,,,,,,,,,,,,,,,,,,,,,,,,,,,,,,,,,,,,,,,,,,,,,,,,,,,,,,,,,,,,,,,,,,,,2447.7040000522393,,response,,,,,,,,,,,,,,,,,,,,,,,,,,,,,,,,,,,,,,,,,,,,,,,,,,,,,,,,,,,,,,,,,,,,,,,,,,,,,keypress,false,,,,,,,,,366669.51499995776,366668.87000005227,364204.553,364218.5449999524,364221.166,366670.344,,,,
Q2,html.Screen,2_4_2_4_2,2021-05-24T16:15:56.533Z,,,,,,,,,,,,,,,,,,,,,,,,,,,,,,,,,,,,,,,,,,,,,,,,,,,,,,,,,,,,,,,,,,,,,,,,,,,,,,,,,,,,,,,,,,,,,,,,,,,,,,,,,,,,,,,,,,,,8588.135999960417,,response,,,,,,,,,,,,,,,,,,,,,,,,,,,,,,,,,,,,,Q2_i2,Q2_i1,Q2_i3,Option 2,Option 1,Same amount,opt2,correct,same,,,,,,,,,,,,,,,,,,,,,,,,,,,,,,,,click #Q2_i1,false,,,,,,,,,375259.50499996543,375258.4799999604,366653.709,366669.60499994457,366670.344,375267.757,,,,
Q2_correct,html.Screen,2_4_2_4_3,2021-05-24T16:15:59.449Z,,,,,,,,,,,,,,,,,,,,,,,,,,,,,,,,,,,,,,,,,,,,,,,,,,,,,,,,,,,,,,,,,,,,,,,,,,,,,,,,,,,,,,,,,,,,,,,,,,,,,,,,,,,,,,,,,,,,2907.6980000187177,,response,,,,,,,,,,,,,,,,,,,,,,,,,,,,,,,,,,,,,,,,,,,,,,,,,,,,,,,,,,,,,,,,,,,,,,,,,,,,,keypress,false,,,,,,,,,378176.1900000274,378175.4550000187,375250.939,375259.62499994785,375267.757,378183.097,,,,
Q4,html.Screen,2_4_2_4_4,2021-05-24T16:16:21.263Z,,,,,,,,,,,,,,,,,,,,,,,,,,,,,,,,,,,,,,,,,,,,,,,,,,,,,,,,,,,,,,,,,,,,,,,,,,,,,,,,,,,,,,,,,,,,,,,,,,,,,,,,,,,,,,,,,,,,21805.322999950557,,response,,,,,,,,,,,,,,,,,,,,,,,,,,,,,,,,,,,,,,,,,,,,,,Q4_i1,Q4_i4,Q4_i3,Q4_i2,Press the arrow key that corresponds with the snack option I prefer,Press the space key,Press the arrow key that corresponds with the snack option with more food items,Indicate the number of food items in each snack option,correct,pressspace,morefood,indicate,,,,,,,,,,,,,,,,,,,,click #Q4_i1,false,,,,,,,,,399989.50000002515,399988.41999995057,378166.414,378176.2699999381,378183.097,399992.385,,,,
Q4_correct,html.Screen,2_4_2_4_5,2021-05-24T16:16:22.801Z,,,,,,,,,,,,,,,,,,,,,,,,,,,,,,,,,,,,,,,,,,,,,,,,,,,,,,,,,,,,,,,,,,,,,,,,,,,,,,,,,,,,,,,,,,,,,,,,,,,,,,,,,,,,,,,,,,,,1534.7899999374058,,response,,,,,,,,,,,,,,,,,,,,,,,,,,,,,,,,,,,,,,,,,,,,,,,,,,,,,,,,,,,,,,,,,,,,,,,,,,,,,keypress,false,,,,,,,,,401527.705000015,401527.1749999374,399975.724,399989.62500004563,399992.385,401558.553,,,,
Q5,html.Screen,2_4_2_4_6,2021-05-24T16:17:05.927Z,,,,,,,,,,,,,,,,,,,,,,,,,,,,,,,,,,,,,,,,,,,,,,,,,,,,,,,,,,,,,,,,,,,,,,,,,,,,,,,,,,,,,,,,,,,,,,,,,,,,,,,,,,,,,,,,,,,,43093.97699996299,,response,,,,,,,,,,,,,,,,,,,,,,,,,,,,,,,,,,,,,,,,,,,,,,,,,,,,,,,,,,Q5_i2,Q5_i1,Q5_i3,Q5_i4,There are more pieces of chocolate in snack Option 2,Snack Option 2 has been chosen,There are more slices of kiwi in snack Option 1,Snack Option 1 has been chosen,morechoc2,correct,morekiwi1,chose1,,,,,,,,click #Q5_i1,false,,,,,,,,,444653.50499993656,444652.529999963,401541.832,401527.81500003766,401558.553,444660.88,,,,
Q5_correct,html.Screen,2_4_2_4_7,2021-05-24T16:17:08.057Z,,,,,,,,,,,,,,,,,,,,,,,,,,,,,,,,,,,,,,,,,,,,,,,,,,,,,,,,,,,,,,,,,,,,,,,,,,,,,,,,,,,,,,,,,,,,,,,,,,,,,,,,,,,,,,,,,,,,2122.010000031325,,response,,,,,,,,,,,,,,,,,,,,,,,,,,,,,,,,,,,,,,,,,,,,,,,,,,,,,,,,,,,,,,,,,,,,,,,,,,,,,keypress,false,,,,,,,,,446783.519999939,446782.89000003133,444644.076,444653.6949999863,444660.88,446793.397,,,,
practice_sequence,flow.Sequence,2_4_2_4,2021-05-24T16:17:08.057Z,,,,,,,,,,,,,,,,,,,,,,,,,,,,,,,,,,,,,,,,,,,,,,,,,,,,,,,,,,,,,,,,,,,,,,,,,,,,,,,,,,,,,,,,,,,,,,,,,,,,,,,,,,,,,,,,,,,,94491.05300003133,,completion,,,,,,,,,,,,,,,,,,,,,,,,,,,,,,,,,,,,,,,,,,,,,,,,,,,,,,,,,,,,,,,,,,,,,,,,,,,,,,false,,,,,,,,,446783.6599999573,446782.89000003133,352274.946,352276.17500000633,352291.837,446793.397,,,,
final_instru,html.Screen,2_4_2_5,2021-05-24T16:17:45.733Z,,,,,,,,,,,,,,,,,,,,,,,,,,,,,,,,,,,,,,,,,,,,,,,,,,,,,,,,,,,,,,,,,,,,,,,,,,,,,,,,,,,,,,,,,,,,,,,,,,,,,,,,,,,,,,,,,,,,37666.222999979625,,done,,,,,,,,,,,,,,,,,,,,,,,,,,,,,,,,,,,,,,,,,,,,,,,,,,,,,,,,,,,,,,,,,,,,,,,,,,,,,,false,,,,,,,,,484459.8250000272,484459.6199999796,446776.479,446783.76000002027,446793.397,484463.69,,,,
blank_screen,canvas.Screen,2_4_2_6_0,2021-05-24T16:17:47.720Z,,,,,,,,,,,,,,,,,,,,,,,,,,,,,,,,,,,,,,,,,,,,,,,,,,,,,,,,,,,,,,,,,,,,,,,,,,,,,,,,,,,,,,,,,,,,,,,,,,,,,,,,,,,,,,,,,,,,2015.9760000000242,,timeout,,,,,,,,,,,,,,,,,,,,,,,,,,,,,,,,,,,,,,,,,,,,,,,,,,,,,,,,,,,,,,,,,,,,,,,,,,,,,,false,,,,,,,,,486447.1599999815,486446.578,484446.469,484459.9350000499,484463.69,486479.666,,,,
fixCross,canvas.Screen,2_4_2_6_1_0_0_0_0_0_0,2021-05-24T16:17:48.089Z,,,blank.png,"[""m&m.png""]",blank.png,blank.png,blank.png,blank.png,blank.png,blank.png,blank.png,blank.png,blank.png,blank.png,blank.png,,,,,,,,,,,,,,,,,,,,,,,,,,,,,"[""m&m.png""]","[""coconut.png""]",PB17.png,,,,,,,,,,,0,6,"[""coconut.png""]","[""coconut.png""]","[""coconut.png""]","[""coconut.png""]","[""coconut.png""]","[""coconut.png""]",blank.png,PB18.png,PB18.png,"[""coconut.png""]","[""coconut.png""]","[""coconut.png""]","[""coconut.png""]","[""coconut.png""]","[""coconut.png""]","[""coconut.png""]","[""coconut.png""]","[""coconut.png""]","[""coconut.png""]","[""coconut.png""]","[""coconut.png""]",1,"[""m&m.png""]",blank.png,blank.png,blank.png,6,"[""coconut.png""]","[""coconut.png""]","[""coconut.png""]","[""coconut.png""]","[""coconut.png""]","[""coconut.png""]",PB17.png,,,,,,,,,,,1,,,,,,,,,,,,,550.1199999999953,,timeout,,,,,,,,,,,,,3,,,,,,,,,,,,,,,,,,,,,,,,,,,,,,,,,,,,,,,,,,,,,,,,,,,,,,,,,"[""coconut.png""]","[""m&m.png""]",,,,1,,,false,,1,,,,,,,486816.10499997623,486812.923,486446.578,486486.8049999932,486479.666,487029.786,1,,,
timeout,canvas.Screen,2_4_2_6_1_0_0_0_0_0_1,2021-05-24T16:17:48.786Z,,,blank.png,"[""m&m.png""]",blank.png,blank.png,blank.png,blank.png,blank.png,blank.png,blank.png,blank.png,blank.png,blank.png,blank.png,,,,,,,,,,,,,,,,,,,,,,,,,,,,,"[""m&m.png""]","[""coconut.png""]",PB17.png,,,,,,,,,,,0,6,"[""coconut.png""]","[""coconut.png""]","[""coconut.png""]","[""coconut.png""]","[""coconut.png""]","[""coconut.png""]",blank.png,PB18.png,PB18.png,"[""coconut.png""]","[""coconut.png""]","[""coconut.png""]","[""coconut.png""]","[""coconut.png""]","[""coconut.png""]","[""coconut.png""]","[""coconut.png""]","[""coconut.png""]","[""coconut.png""]","[""coconut.png""]","[""coconut.png""]",1,"[""m&m.png""]",blank.png,blank.png,blank.png,6,"[""coconut.png""]","[""coconut.png""]","[""coconut.png""]","[""coconut.png""]","[""coconut.png""]","[""coconut.png""]",PB17.png,,,,,,,,,,,1,,,,,,,,,,,,,816.4510000000009,,timeout,,,,,,,,,,,,,3,,,,,,,,,,,,,,,,,,,,,,,,,,,,,,,,,,,,,,,,,,,,,,,,,,,,,,,,,"[""coconut.png""]","[""m&m.png""]",,,,1,,,false,,1,,,,,,,487513.6749999365,487512.97,486812.923,487148.765000049,487029.786,487846.237,,,,
choice,canvas.Screen,2_4_2_6_1_0_0_0_0_0_2,2021-05-24T16:17:50.237Z,,,blank.png,"[""m&m.png""]",blank.png,blank.png,blank.png,blank.png,blank.png,blank.png,blank.png,blank.png,blank.png,blank.png,blank.png,,,,,,,,,,,,,,,,,,,,,,,,,,,,,"[""m&m.png""]","[""coconut.png""]",PB17.png,,,,,,,,,,,0,6,"[""coconut.png""]","[""coconut.png""]","[""coconut.png""]","[""coconut.png""]","[""coconut.png""]","[""coconut.png""]",blank.png,PB18.png,PB18.png,"[""coconut.png""]","[""coconut.png""]","[""coconut.png""]","[""coconut.png""]","[""coconut.png""]","[""coconut.png""]","[""coconut.png""]","[""coconut.png""]","[""coconut.png""]","[""coconut.png""]","[""coconut.png""]","[""coconut.png""]",1,"[""m&m.png""]",blank.png,blank.png,blank.png,6,"[""coconut.png""]","[""coconut.png""]","[""coconut.png""]","[""coconut.png""]","[""coconut.png""]","[""coconut.png""]",PB17.png,,,,,,,,,,,1,,,,,,,,,,,,,1117.5729999865289,,response,,,,,,,,,,,,,3,,,,,,,,,,,,,,,,,,,,,,,,,,,,,,,,,,,,,,,,,,,,,,,,,,,,,,,,,"[""coconut.png""]","[""m&m.png""]",,,,1,left,keydown(ArrowLeft),false,,1,,,,,,,488964.4499999704,488963.80999998655,487512.97,487850.4350000294,487846.237,489295.436,,1,,
square,canvas.Screen,2_4_2_6_1_0_0_0_0_0_3,2021-05-24T16:17:51.552Z,,,blank.png,"[""m&m.png""]",blank.png,blank.png,blank.png,blank.png,blank.png,blank.png,blank.png,blank.png,blank.png,blank.png,blank.png,,,,,,,,,,,,,,,,,,,,,,,,,,,,,"[""m&m.png""]","[""coconut.png""]",PB17.png,,,,,,,,,,,0,6,"[""coconut.png""]","[""coconut.png""]","[""coconut.png""]","[""coconut.png""]","[""coconut.png""]","[""coconut.png""]",blank.png,PB18.png,PB18.png,"[""coconut.png""]","[""coconut.png""]","[""coconut.png""]","[""coconut.png""]","[""coconut.png""]","[""coconut.png""]","[""coconut.png""]","[""coconut.png""]","[""coconut.png""]","[""coconut.png""]","[""coconut.png""]","[""coconut.png""]",1,"[""m&m.png""]",blank.png,blank.png,blank.png,6,"[""coconut.png""]","[""coconut.png""]","[""coconut.png""]","[""coconut.png""]","[""coconut.png""]","[""coconut.png""]",PB17.png,,,,,,,,,,,1,,,#33ff3f,#808080,,,,,,,,,999.6369999999879,,timeout,,,,,,,,,,,,,3,,,,,,,,,,,,,,,,,,,,,,,,,,,,,,,,,,,,,,,,,,,,,,,,,,,,,,,,,"[""coconut.png""]","[""m&m.png""]",,,,1,,,false,,1,,,,,black,white,490278.99999998044,490278.394,489278.966,489272.7100000484,489295.436,490295.073,,,,
ITI_late,canvas.Screen,2_4_2_6_1_0_0_0_0_0_4,2021-05-24T16:17:52.052Z,,,blank.png,"[""m&m.png""]",blank.png,blank.png,blank.png,blank.png,blank.png,blank.png,blank.png,blank.png,blank.png,blank.png,blank.png,,,,,,,,,,,,,,,,,,,,,,,,,,,,,"[""m&m.png""]","[""coconut.png""]",PB17.png,,,,,,,,,,,0,6,"[""coconut.png""]","[""coconut.png""]","[""coconut.png""]","[""coconut.png""]","[""coconut.png""]","[""coconut.png""]",blank.png,PB18.png,PB18.png,"[""coconut.png""]","[""coconut.png""]","[""coconut.png""]","[""coconut.png""]","[""coconut.png""]","[""coconut.png""]","[""coconut.png""]","[""coconut.png""]","[""coconut.png""]","[""coconut.png""]","[""coconut.png""]","[""coconut.png""]",1,"[""m&m.png""]",blank.png,blank.png,blank.png,6,"[""coconut.png""]","[""coconut.png""]","[""coconut.png""]","[""coconut.png""]","[""coconut.png""]","[""coconut.png""]",PB17.png,,,,,,,,,,,1,,,,,,,,,,,,,500.1240000000107,,timeout,,,,,,,,,,,,white,3,,,,,,,,,,,,,,,,,,,,,,,,,,,,,,,,,,,,,,,,,,,,,,,,,,,,,,,,,"[""coconut.png""]","[""m&m.png""]",,,,1,,,false,,1,,,,,,,490779.11999996286,490778.47,490278.394,490280.55000002496,490295.073,490795.197,,,,
choice_sequence,flow.Sequence,2_4_2_6_1_0_0_0_0_0,2021-05-24T16:17:52.052Z,,,blank.png,"[""m&m.png""]",blank.png,blank.png,blank.png,blank.png,blank.png,blank.png,blank.png,blank.png,blank.png,blank.png,blank.png,,,,,,,,,,,,,,,,,,,,,,,,,,,,,"[""m&m.png""]","[""coconut.png""]",PB17.png,,,,,,,,,,,0,6,"[""coconut.png""]","[""coconut.png""]","[""coconut.png""]","[""coconut.png""]","[""coconut.png""]","[""coconut.png""]",blank.png,PB18.png,PB18.png,"[""coconut.png""]","[""coconut.png""]","[""coconut.png""]","[""coconut.png""]","[""coconut.png""]","[""coconut.png""]","[""coconut.png""]","[""coconut.png""]","[""coconut.png""]","[""coconut.png""]","[""coconut.png""]","[""coconut.png""]",1,"[""m&m.png""]",blank.png,blank.png,blank.png,6,"[""coconut.png""]","[""coconut.png""]","[""coconut.png""]","[""coconut.png""]","[""coconut.png""]","[""coconut.png""]",PB17.png,,,,,,,,,,,1,,,,,,,,,,,,,4298.8039999999455,,completion,,,,,,,,,,,,,3,,,,,,,,,,,,,,,,,,,,,,,,,,,,,,,,,,,,,,,,,,,,,,,,,,,,,,,,,"[""coconut.png""]","[""m&m.png""]",,,,1,,,false,,1,,,,,,,490779.48999998625,490778.47,486446.578,486485.5299999472,486479.666,490795.197,,,,
fixCross,canvas.Screen,2_4_2_6_1_0_0_0_0_1_0,2021-05-24T16:17:52.352Z,,,blank.png,blank.png,blank.png,blank.png,blank.png,blank.png,blank.png,"[""m&m.png""]",blank.png,blank.png,blank.png,blank.png,blank.png,,,,,,,,,,,,,,,,,,,,,,,,,,,,,"[""m&m.png""]","[""coconut.png""]",PB18.png,,,,,,,,,,,0,6,"[""coconut.png""]","[""coconut.png""]","[""coconut.png""]","[""coconut.png""]","[""coconut.png""]","[""coconut.png""]",blank.png,PB18.png,PB01.png,"[""coconut.png""]","[""coconut.png""]","[""coconut.png""]","[""coconut.png""]","[""coconut.png""]","[""coconut.png""]",blank.png,blank.png,blank.png,blank.png,blank.png,blank.png,1,"[""m&m.png""]",blank.png,blank.png,blank.png,0,blank.png,blank.png,blank.png,blank.png,blank.png,blank.png,PB01.png,,,,,,,,,,,1,,,,,,,,,,,,,583.0250000000233,,timeout,,,,,,,,,,,,,4,,,,,,,,,,,,,,,,,,,,,,,,,,,,,,,,,,,,,,,,,,,,,,,,,,,,,,,,,"[""coconut.png""]","[""m&m.png""]",,,,1,,,false,,1,,,,,,,491078.92999995966,491078.368,490778.47,490783.4349999903,490795.197,491378.222,2,,,
timeout,canvas.Screen,2_4_2_6_1_0_0_0_0_1_1,2021-05-24T16:17:53.135Z,,,blank.png,blank.png,blank.png,blank.png,blank.png,blank.png,blank.png,"[""m&m.png""]",blank.png,blank.png,blank.png,blank.png,blank.png,,,,,,,,,,,,,,,,,,,,,,,,,,,,,"[""m&m.png""]","[""coconut.png""]",PB18.png,,,,,,,,,,,0,6,"[""coconut.png""]","[""coconut.png""]","[""coconut.png""]","[""coconut.png""]","[""coconut.png""]","[""coconut.png""]",blank.png,PB18.png,PB01.png,"[""coconut.png""]","[""coconut.png""]","[""coconut.png""]","[""coconut.png""]","[""coconut.png""]","[""coconut.png""]",blank.png,blank.png,blank.png,blank.png,blank.png,blank.png,1,"[""m&m.png""]",blank.png,blank.png,blank.png,0,blank.png,blank.png,blank.png,blank.png,blank.png,blank.png,PB01.png,,,,,,,,,,,1,,,,,,,,,,,,,799.5469999999623,,timeout,,,,,,,,,,,,,4,,,,,,,,,,,,,,,,,,,,,,,,,,,,,,,,,,,,,,,,,,,,,,,,,,,,,,,,,"[""coconut.png""]","[""m&m.png""]",,,,1,,,false,,1,,,,,,,491862.1099999873,491861.463,491078.368,491381.65999995545,491378.222,492177.769,,,,
choice,canvas.Screen,2_4_2_6_1_0_0_0_0_1_2,2021-05-24T16:17:53.930Z,,,blank.png,blank.png,blank.png,blank.png,blank.png,blank.png,blank.png,"[""m&m.png""]",blank.png,blank.png,blank.png,blank.png,blank.png,,,,,,,,,,,,,,,,,,,,,,,,,,,,,"[""m&m.png""]","[""coconut.png""]",PB18.png,,,,,,,,,,,0,6,"[""coconut.png""]","[""coconut.png""]","[""coconut.png""]","[""coconut.png""]","[""coconut.png""]","[""coconut.png""]",blank.png,PB18.png,PB01.png,"[""coconut.png""]","[""coconut.png""]","[""coconut.png""]","[""coconut.png""]","[""coconut.png""]","[""coconut.png""]",blank.png,blank.png,blank.png,blank.png,blank.png,blank.png,1,"[""m&m.png""]",blank.png,blank.png,blank.png,0,blank.png,blank.png,blank.png,blank.png,blank.png,blank.png,PB01.png,,,,,,,,,,,1,,,,,,,,,,,,,478.2309999590507,,response,,,,,,,,,,,,,4,,,,,,,,,,,,,,,,,,,,,,,,,,,,,,,,,,,,,,,,,,,,,,,,,,,,,,,,,"[""coconut.png""]","[""m&m.png""]",,,,1,left,keydown(ArrowLeft),false,,1,,,,,,,492657.0350000402,492655.999999959,491861.463,492162.03500004485,492177.769,492944.158,,2,,
square,canvas.Screen,2_4_2_6_1_0_0_0_0_1_3,2021-05-24T16:17:55.201Z,,,blank.png,blank.png,blank.png,blank.png,blank.png,blank.png,blank.png,"[""m&m.png""]",blank.png,blank.png,blank.png,blank.png,blank.png,,,,,,,,,,,,,,,,,,,,,,,,,,,,,"[""m&m.png""]","[""coconut.png""]",PB18.png,,,,,,,,,,,0,6,"[""coconut.png""]","[""coconut.png""]","[""coconut.png""]","[""coconut.png""]","[""coconut.png""]","[""coconut.png""]",blank.png,PB18.png,PB01.png,"[""coconut.png""]","[""coconut.png""]","[""coconut.png""]","[""coconut.png""]","[""coconut.png""]","[""coconut.png""]",blank.png,blank.png,blank.png,blank.png,blank.png,blank.png,1,"[""m&m.png""]",blank.png,blank.png,blank.png,0,blank.png,blank.png,blank.png,blank.png,blank.png,blank.png,PB01.png,,,,,,,,,,,1,,,#33ff3f,#808080,,,,,,,,,999.7519999999786,,timeout,,,,,,,,,,,,,4,,,,,,,,,,,,,,,,,,,,,,,,,,,,,,,,,,,,,,,,,,,,,,,,,,,,,,,,,"[""coconut.png""]","[""m&m.png""]",,,,1,,,false,,1,,,,,black,white,493927.9249999672,493927.25,492927.612,492939.13499999326,492944.158,493943.91,,,,
ITI_late,canvas.Screen,2_4_2_6_1_0_0_0_0_1_4,2021-05-24T16:17:55.951Z,,,blank.png,blank.png,blank.png,blank.png,blank.png,blank.png,blank.png,"[""m&m.png""]",blank.png,blank.png,blank.png,blank.png,blank.png,,,,,,,,,,,,,,,,,,,,,,,,,,,,,"[""m&m.png""]","[""coconut.png""]",PB18.png,,,,,,,,,,,0,6,"[""coconut.png""]","[""coconut.png""]","[""coconut.png""]","[""coconut.png""]","[""coconut.png""]","[""coconut.png""]",blank.png,PB18.png,PB01.png,"[""coconut.png""]","[""coconut.png""]","[""coconut.png""]","[""coconut.png""]","[""coconut.png""]","[""coconut.png""]",blank.png,blank.png,blank.png,blank.png,blank.png,blank.png,1,"[""m&m.png""]",blank.png,blank.png,blank.png,0,blank.png,blank.png,blank.png,blank.png,blank.png,blank.png,PB01.png,,,,,,,,,,,1,,,,,,,,,,,,,749.7110000000102,,timeout,,,,,,,,,,,,white,4,,,,,,,,,,,,,,,,,,,,,,,,,,,,,,,,,,,,,,,,,,,,,,,,,,,,,,,,,"[""coconut.png""]","[""m&m.png""]",,,,1,,,false,,1,,,,,,,494677.8049999848,494677.225,493927.25,493929.3250000337,493943.91,494693.621,,,,
choice_sequence,flow.Sequence,2_4_2_6_1_0_0_0_0_1,2021-05-24T16:17:55.951Z,,,blank.png,blank.png,blank.png,blank.png,blank.png,blank.png,blank.png,"[""m&m.png""]",blank.png,blank.png,blank.png,blank.png,blank.png,,,,,,,,,,,,,,,,,,,,,,,,,,,,,"[""m&m.png""]","[""coconut.png""]",PB18.png,,,,,,,,,,,0,6,"[""coconut.png""]","[""coconut.png""]","[""coconut.png""]","[""coconut.png""]","[""coconut.png""]","[""coconut.png""]",blank.png,PB18.png,PB01.png,"[""coconut.png""]","[""coconut.png""]","[""coconut.png""]","[""coconut.png""]","[""coconut.png""]","[""coconut.png""]",blank.png,blank.png,blank.png,blank.png,blank.png,blank.png,1,"[""m&m.png""]",blank.png,blank.png,blank.png,0,blank.png,blank.png,blank.png,blank.png,blank.png,blank.png,PB01.png,,,,,,,,,,,1,,,,,,,,,,,,,3882.027999999991,,completion,,,,,,,,,,,,,4,,,,,,,,,,,,,,,,,,,,,,,,,,,,,,,,,,,,,,,,,,,,,,,,,,,,,,,,,"[""coconut.png""]","[""m&m.png""]",,,,1,,,false,,1,,,,,,,494678.18000004627,494677.225,490778.47,490782.6150000328,490795.197,494693.621,,,,
fixCross,canvas.Screen,2_4_2_6_1_0_0_0_0_2_0,2021-05-24T16:17:56.601Z,,,blank.png,blank.png,blank.png,blank.png,blank.png,blank.png,blank.png,"[""m&m.png""]",blank.png,blank.png,blank.png,blank.png,blank.png,,,,,,,,,,,,,,,,,,,,,,,,,,,,,"[""m&m.png""]","[""coconut.png""]",PB18.png,,,,,,,,,,,0,6,"[""coconut.png""]","[""coconut.png""]","[""coconut.png""]","[""coconut.png""]","[""coconut.png""]","[""coconut.png""]",blank.png,PB18.png,PB14.png,"[""coconut.png""]","[""coconut.png""]","[""coconut.png""]","[""coconut.png""]","[""coconut.png""]","[""coconut.png""]","[""coconut.png""]","[""coconut.png""]","[""coconut.png""]",blank.png,blank.png,blank.png,1,"[""m&m.png""]",blank.png,blank.png,blank.png,3,"[""coconut.png""]","[""coconut.png""]","[""coconut.png""]",blank.png,blank.png,blank.png,PB14.png,,,,,,,,,,,1,,,,,,,,,,,,,933.2280000000028,,timeout,,,,,,,,,,,,,4,,,,,,,,,,,,,,,,,,,,,,,,,,,,,,,,,,,,,,,,,,,,,,,,,,,,,,,,,"[""coconut.png""]","[""m&m.png""]",,,,1,,,false,,1,,,,,,,495327.6749999495,495326.976,494677.225,494682.23499995656,494693.621,495626.849,3,,,
timeout,canvas.Screen,2_4_2_6_1_0_0_0_0_2_1,2021-05-24T16:17:57.384Z,,,blank.png,blank.png,blank.png,blank.png,blank.png,blank.png,blank.png,"[""m&m.png""]",blank.png,blank.png,blank.png,blank.png,blank.png,,,,,,,,,,,,,,,,,,,,,,,,,,,,,"[""m&m.png""]","[""coconut.png""]",PB18.png,,,,,,,,,,,0,6,"[""coconut.png""]","[""coconut.png""]","[""coconut.png""]","[""coconut.png""]","[""coconut.png""]","[""coconut.png""]",blank.png,PB18.png,PB14.png,"[""coconut.png""]","[""coconut.png""]","[""coconut.png""]","[""coconut.png""]","[""coconut.png""]","[""coconut.png""]","[""coconut.png""]","[""coconut.png""]","[""coconut.png""]",blank.png,blank.png,blank.png,1,"[""m&m.png""]",blank.png,blank.png,blank.png,3,"[""coconut.png""]","[""coconut.png""]","[""coconut.png""]",blank.png,blank.png,blank.png,PB14.png,,,,,,,,,,,1,,,,,,,,,,,,,799.4789999999921,,timeout,,,,,,,,,,,,,4,,,,,,,,,,,,,,,,,,,,,,,,,,,,,,,,,,,,,,,,,,,,,,,,,,,,,,,,,"[""coconut.png""]","[""m&m.png""]",,,,1,,,false,,1,,,,,,,496110.7149999589,496109.921,495326.976,495630.1499999827,495626.849,496426.328,,,,
choice,canvas.Screen,2_4_2_6_1_0_0_0_0_2_2,2021-05-24T16:17:57.768Z,,,blank.png,blank.png,blank.png,blank.png,blank.png,blank.png,blank.png,"[""m&m.png""]",blank.png,blank.png,blank.png,blank.png,blank.png,,,,,,,,,,,,,,,,,,,,,,,,,,,,,"[""m&m.png""]","[""coconut.png""]",PB18.png,,,,,,,,,,,0,6,"[""coconut.png""]","[""coconut.png""]","[""coconut.png""]","[""coconut.png""]","[""coconut.png""]","[""coconut.png""]",blank.png,PB18.png,PB14.png,"[""coconut.png""]","[""coconut.png""]","[""coconut.png""]","[""coconut.png""]","[""coconut.png""]","[""coconut.png""]","[""coconut.png""]","[""coconut.png""]","[""coconut.png""]",blank.png,blank.png,blank.png,1,"[""m&m.png""]",blank.png,blank.png,blank.png,3,"[""coconut.png""]","[""coconut.png""]","[""coconut.png""]",blank.png,blank.png,blank.png,PB14.png,,,,,,,,,,,1,,,,,,,,,,,,,67.69700002181344,,response,,,,,,,,,,,,,4,,,,,,,,,,,,,,,,,,,,,,,,,,,,,,,,,,,,,,,,,,,,,,,,,,,,,,,,,"[""coconut.png""]","[""m&m.png""]",,,,1,right,keydown(ArrowRight),false,,1,,,,,,,496495.2099999646,496494.0250000218,496109.921,496425.29499996454,496426.328,496809.514,,3,,
square,canvas.Screen,2_4_2_6_1_0_0_0_0_2_3,2021-05-24T16:17:59.066Z,,,blank.png,blank.png,blank.png,blank.png,blank.png,blank.png,blank.png,"[""m&m.png""]",blank.png,blank.png,blank.png,blank.png,blank.png,,,,,,,,,,,,,,,,,,,,,,,,,,,,,"[""m&m.png""]","[""coconut.png""]",PB18.png,,,,,,,,,,,0,6,"[""coconut.png""]","[""coconut.png""]","[""coconut.png""]","[""coconut.png""]","[""coconut.png""]","[""coconut.png""]",blank.png,PB18.png,PB14.png,"[""coconut.png""]","[""coconut.png""]","[""coconut.png""]","[""coconut.png""]","[""coconut.png""]","[""coconut.png""]","[""coconut.png""]","[""coconut.png""]","[""coconut.png""]",blank.png,blank.png,blank.png,1,"[""m&m.png""]",blank.png,blank.png,blank.png,3,"[""coconut.png""]","[""coconut.png""]","[""coconut.png""]",blank.png,blank.png,blank.png,PB14.png,,,,,,,,,,,1,,,#808080,#33ff3f,,,,,,,,,1000.0359999999637,,timeout,,,,,,,,,,,,,4,,,,,,,,,,,,,,,,,,,,,,,,,,,,,,,,,,,,,,,,,,,,,,,,,,,,,,,,,"[""coconut.png""]","[""m&m.png""]",,,,1,,,false,,1,,,,,white,black,497793.405000004,497792.803,496792.889,496792.9449999938,496809.514,497809.55,,,,
ITI_late,canvas.Screen,2_4_2_6_1_0_0_0_0_2_4,2021-05-24T16:17:59.567Z,,,blank.png,blank.png,blank.png,blank.png,blank.png,blank.png,blank.png,"[""m&m.png""]",blank.png,blank.png,blank.png,blank.png,blank.png,,,,,,,,,,,,,,,,,,,,,,,,,,,,,"[""m&m.png""]","[""coconut.png""]",PB18.png,,,,,,,,,,,0,6,"[""coconut.png""]","[""coconut.png""]","[""coconut.png""]","[""coconut.png""]","[""coconut.png""]","[""coconut.png""]",blank.png,PB18.png,PB14.png,"[""coconut.png""]","[""coconut.png""]","[""coconut.png""]","[""coconut.png""]","[""coconut.png""]","[""coconut.png""]","[""coconut.png""]","[""coconut.png""]","[""coconut.png""]",blank.png,blank.png,blank.png,1,"[""m&m.png""]",blank.png,blank.png,blank.png,3,"[""coconut.png""]","[""coconut.png""]","[""coconut.png""]",blank.png,blank.png,blank.png,PB14.png,,,,,,,,,,,1,,,,,,,,,,,,,499.8040000000037,,timeout,,,,,,,,,,,,white,4,,,,,,,,,,,,,,,,,,,,,,,,,,,,,,,,,,,,,,,,,,,,,,,,,,,,,,,,,"[""coconut.png""]","[""m&m.png""]",,,,1,,,false,,1,,,,,,,498293.8650000142,498292.464,497792.803,497794.9850000441,497809.55,498309.354,,,,
choice_sequence,flow.Sequence,2_4_2_6_1_0_0_0_0_2,2021-05-24T16:17:59.567Z,,,blank.png,blank.png,blank.png,blank.png,blank.png,blank.png,blank.png,"[""m&m.png""]",blank.png,blank.png,blank.png,blank.png,blank.png,,,,,,,,,,,,,,,,,,,,,,,,,,,,,"[""m&m.png""]","[""coconut.png""]",PB18.png,,,,,,,,,,,0,6,"[""coconut.png""]","[""coconut.png""]","[""coconut.png""]","[""coconut.png""]","[""coconut.png""]","[""coconut.png""]",blank.png,PB18.png,PB14.png,"[""coconut.png""]","[""coconut.png""]","[""coconut.png""]","[""coconut.png""]","[""coconut.png""]","[""coconut.png""]","[""coconut.png""]","[""coconut.png""]","[""coconut.png""]",blank.png,blank.png,blank.png,1,"[""m&m.png""]",blank.png,blank.png,blank.png,3,"[""coconut.png""]","[""coconut.png""]","[""coconut.png""]",blank.png,blank.png,blank.png,PB14.png,,,,,,,,,,,1,,,,,,,,,,,,,3598.8429999999935,,completion,,,,,,,,,,,,,4,,,,,,,,,,,,,,,,,,,,,,,,,,,,,,,,,,,,,,,,,,,,,,,,,,,,,,,,,"[""coconut.png""]","[""m&m.png""]",,,,1,,,false,,1,,,,,,,498294.2950000288,498292.464,494677.225,494681.4299999969,494693.621,498309.354,,,,
fixCross,canvas.Screen,2_4_2_6_1_0_0_0_0_3_0,2021-05-24T16:17:59.866Z,,,blank.png,blank.png,blank.png,blank.png,blank.png,blank.png,blank.png,"[""m&m.png""]",blank.png,blank.png,blank.png,blank.png,blank.png,,,,,,,,,,,,,,,,,,,,,,,,,,,,,"[""m&m.png""]","[""coconut.png""]",PB18.png,,,,,,,,,,,0,6,"[""coconut.png""]","[""coconut.png""]","[""coconut.png""]","[""coconut.png""]","[""coconut.png""]","[""coconut.png""]",blank.png,PB18.png,PB12.png,"[""coconut.png""]","[""coconut.png""]","[""coconut.png""]","[""coconut.png""]","[""coconut.png""]","[""coconut.png""]","[""coconut.png""]","[""coconut.png""]",blank.png,blank.png,blank.png,blank.png,1,"[""m&m.png""]",blank.png,blank.png,blank.png,2,"[""coconut.png""]","[""coconut.png""]",blank.png,blank.png,blank.png,blank.png,PB12.png,,,,,,,,,,,1,,,,,,,,,,,,,582.9710000000196,,timeout,,,,,,,,,,,,,4,,,,,,,,,,,,,,,,,,,,,,,,,,,,,,,,,,,,,,,,,,,,,,,,,,,,,,,,,"[""coconut.png""]","[""m&m.png""]",,,,1,,,false,,1,,,,,,,498593.2849999517,498592.611,498292.464,498299.2399999639,498309.354,498892.325,4,,,
timeout,canvas.Screen,2_4_2_6_1_0_0_0_0_3_1,2021-05-24T16:18:00.649Z,,,blank.png,blank.png,blank.png,blank.png,blank.png,blank.png,blank.png,"[""m&m.png""]",blank.png,blank.png,blank.png,blank.png,blank.png,,,,,,,,,,,,,,,,,,,,,,,,,,,,,"[""m&m.png""]","[""coconut.png""]",PB18.png,,,,,,,,,,,0,6,"[""coconut.png""]","[""coconut.png""]","[""coconut.png""]","[""coconut.png""]","[""coconut.png""]","[""coconut.png""]",blank.png,PB18.png,PB12.png,"[""coconut.png""]","[""coconut.png""]","[""coconut.png""]","[""coconut.png""]","[""coconut.png""]","[""coconut.png""]","[""coconut.png""]","[""coconut.png""]",blank.png,blank.png,blank.png,blank.png,1,"[""m&m.png""]",blank.png,blank.png,blank.png,2,"[""coconut.png""]","[""coconut.png""]",blank.png,blank.png,blank.png,blank.png,PB12.png,,,,,,,,,,,1,,,,,,,,,,,,,799.6319999999832,,timeout,,,,,,,,,,,,,4,,,,,,,,,,,,,,,,,,,,,,,,,,,,,,,,,,,,,,,,,,,,,,,,,,,,,,,,,"[""coconut.png""]","[""m&m.png""]",,,,1,,,false,,1,,,,,,,499375.94499997795,499375.335,498592.611,498895.7299999893,498892.325,499691.957,,,,
choice,canvas.Screen,2_4_2_6_1_0_0_0_0_3_2,2021-05-24T16:18:01.055Z,,,blank.png,blank.png,blank.png,blank.png,blank.png,blank.png,blank.png,"[""m&m.png""]",blank.png,blank.png,blank.png,blank.png,blank.png,,,,,,,,,,,,,,,,,,,,,,,,,,,,,"[""m&m.png""]","[""coconut.png""]",PB18.png,,,,,,,,,,,0,6,"[""coconut.png""]","[""coconut.png""]","[""coconut.png""]","[""coconut.png""]","[""coconut.png""]","[""coconut.png""]",blank.png,PB18.png,PB12.png,"[""coconut.png""]","[""coconut.png""]","[""coconut.png""]","[""coconut.png""]","[""coconut.png""]","[""coconut.png""]","[""coconut.png""]","[""coconut.png""]",blank.png,blank.png,blank.png,blank.png,1,"[""m&m.png""]",blank.png,blank.png,blank.png,2,"[""coconut.png""]","[""coconut.png""]",blank.png,blank.png,blank.png,blank.png,PB12.png,,,,,,,,,,,1,,,,,,,,,,,,,89.20800005126512,,response,,,,,,,,,,,,,4,,,,,,,,,,,,,,,,,,,,,,,,,,,,,,,,,,,,,,,,,,,,,,,,,,,,,,,,,"[""coconut.png""]","[""m&m.png""]",,,,1,right,keydown(ArrowRight),false,,1,,,,,,,499782.49999997206,499781.16500005126,499375.335,499686.24499998987,499691.957,500091.762,,4,,
square,canvas.Screen,2_4_2_6_1_0_0_0_0_3_3,2021-05-24T16:18:02.348Z,,,blank.png,blank.png,blank.png,blank.png,blank.png,blank.png,blank.png,"[""m&m.png""]",blank.png,blank.png,blank.png,blank.png,blank.png,,,,,,,,,,,,,,,,,,,,,,,,,,,,,"[""m&m.png""]","[""coconut.png""]",PB18.png,,,,,,,,,,,0,6,"[""coconut.png""]","[""coconut.png""]","[""coconut.png""]","[""coconut.png""]","[""coconut.png""]","[""coconut.png""]",blank.png,PB18.png,PB12.png,"[""coconut.png""]","[""coconut.png""]","[""coconut.png""]","[""coconut.png""]","[""coconut.png""]","[""coconut.png""]","[""coconut.png""]","[""coconut.png""]",blank.png,blank.png,blank.png,blank.png,1,"[""m&m.png""]",blank.png,blank.png,blank.png,2,"[""coconut.png""]","[""coconut.png""]",blank.png,blank.png,blank.png,blank.png,PB12.png,,,,,,,,,,,1,,,#808080,#33ff3f,,,,,,,,,999.9780000000028,,timeout,,,,,,,,,,,,,4,,,,,,,,,,,,,,,,,,,,,,,,,,,,,,,,,,,,,,,,,,,,,,,,,,,,,,,,,"[""coconut.png""]","[""m&m.png""]",,,,1,,,false,,1,,,,,white,black,501075.60999994166,501074.957,500075.158,500079.87000001594,500091.762,501091.74,,,,
ITI_late,canvas.Screen,2_4_2_6_1_0_0_0_0_3_4,2021-05-24T16:18:03.598Z,,,blank.png,blank.png,blank.png,blank.png,blank.png,blank.png,blank.png,"[""m&m.png""]",blank.png,blank.png,blank.png,blank.png,blank.png,,,,,,,,,,,,,,,,,,,,,,,,,,,,,"[""m&m.png""]","[""coconut.png""]",PB18.png,,,,,,,,,,,0,6,"[""coconut.png""]","[""coconut.png""]","[""coconut.png""]","[""coconut.png""]","[""coconut.png""]","[""coconut.png""]",blank.png,PB18.png,PB12.png,"[""coconut.png""]","[""coconut.png""]","[""coconut.png""]","[""coconut.png""]","[""coconut.png""]","[""coconut.png""]","[""coconut.png""]","[""coconut.png""]",blank.png,blank.png,blank.png,blank.png,1,"[""m&m.png""]",blank.png,blank.png,blank.png,2,"[""coconut.png""]","[""coconut.png""]",blank.png,blank.png,blank.png,blank.png,PB12.png,,,,,,,,,,,1,,,,,,,,,,,,,1249.5709999999963,,timeout,,,,,,,,,,,,white,4,,,,,,,,,,,,,,,,,,,,,,,,,,,,,,,,,,,,,,,,,,,,,,,,,,,,,,,,,"[""coconut.png""]","[""m&m.png""]",,,,1,,,false,,1,,,,,,,502325.2349999966,502324.643,501074.957,501077.0049999701,501091.74,502341.311,,,,
choice_sequence,flow.Sequence,2_4_2_6_1_0_0_0_0_3,2021-05-24T16:18:03.599Z,,,blank.png,blank.png,blank.png,blank.png,blank.png,blank.png,blank.png,"[""m&m.png""]",blank.png,blank.png,blank.png,blank.png,blank.png,,,,,,,,,,,,,,,,,,,,,,,,,,,,,"[""m&m.png""]","[""coconut.png""]",PB18.png,,,,,,,,,,,0,6,"[""coconut.png""]","[""coconut.png""]","[""coconut.png""]","[""coconut.png""]","[""coconut.png""]","[""coconut.png""]",blank.png,PB18.png,PB12.png,"[""coconut.png""]","[""coconut.png""]","[""coconut.png""]","[""coconut.png""]","[""coconut.png""]","[""coconut.png""]","[""coconut.png""]","[""coconut.png""]",blank.png,blank.png,blank.png,blank.png,1,"[""m&m.png""]",blank.png,blank.png,blank.png,2,"[""coconut.png""]","[""coconut.png""]",blank.png,blank.png,blank.png,blank.png,PB12.png,,,,,,,,,,,1,,,,,,,,,,,,,4015.2889999999898,,completion,,,,,,,,,,,,,4,,,,,,,,,,,,,,,,,,,,,,,,,,,,,,,,,,,,,,,,,,,,,,,,,,,,,,,,,"[""coconut.png""]","[""m&m.png""]",,,,1,,,false,,1,,,,,,,502325.7250000024,502324.643,498292.464,498298.3950000489,498309.354,502341.311,,,,
fixCross,canvas.Screen,2_4_2_6_1_0_0_0_0_4_0,2021-05-24T16:18:04.248Z,,,blank.png,"[""m&m.png""]",blank.png,blank.png,blank.png,blank.png,blank.png,blank.png,blank.png,blank.png,blank.png,blank.png,blank.png,,,,,,,,,,,,,,,,,,,,,,,,,,,,,"[""m&m.png""]","[""coconut.png""]",PB16.png,,,,,,,,,,,0,6,"[""coconut.png""]","[""coconut.png""]","[""coconut.png""]","[""coconut.png""]","[""coconut.png""]","[""coconut.png""]",blank.png,PB18.png,PB18.png,"[""coconut.png""]","[""coconut.png""]","[""coconut.png""]","[""coconut.png""]","[""coconut.png""]",blank.png,"[""coconut.png""]","[""coconut.png""]","[""coconut.png""]","[""coconut.png""]","[""coconut.png""]","[""coconut.png""]",1,"[""m&m.png""]",blank.png,blank.png,blank.png,5,"[""coconut.png""]","[""coconut.png""]","[""coconut.png""]","[""coconut.png""]","[""coconut.png""]",blank.png,PB16.png,,,,,,,,,,,1,,,,,,,,,,,,,933.005999999994,,timeout,,,,,,,,,,,,,3,,,,,,,,,,,,,,,,,,,,,,,,,,,,,,,,,,,,,,,,,,,,,,,,,,,,,,,,,"[""coconut.png""]","[""m&m.png""]",,,,1,,,false,,1,,,,,,,502975.0599999679,502974.307,502324.643,502329.43499996327,502341.311,503274.317,5,,,
timeout,canvas.Screen,2_4_2_6_1_0_0_0_0_4_1,2021-05-24T16:18:05.031Z,,,blank.png,"[""m&m.png""]",blank.png,blank.png,blank.png,blank.png,blank.png,blank.png,blank.png,blank.png,blank.png,blank.png,blank.png,,,,,,,,,,,,,,,,,,,,,,,,,,,,,"[""m&m.png""]","[""coconut.png""]",PB16.png,,,,,,,,,,,0,6,"[""coconut.png""]","[""coconut.png""]","[""coconut.png""]","[""coconut.png""]","[""coconut.png""]","[""coconut.png""]",blank.png,PB18.png,PB18.png,"[""coconut.png""]","[""coconut.png""]","[""coconut.png""]","[""coconut.png""]","[""coconut.png""]",blank.png,"[""coconut.png""]","[""coconut.png""]","[""coconut.png""]","[""coconut.png""]","[""coconut.png""]","[""coconut.png""]",1,"[""m&m.png""]",blank.png,blank.png,blank.png,5,"[""coconut.png""]","[""coconut.png""]","[""coconut.png""]","[""coconut.png""]","[""coconut.png""]",blank.png,PB16.png,,,,,,,,,,,1,,,,,,,,,,,,,799.3950000000186,,timeout,,,,,,,,,,,,,3,,,,,,,,,,,,,,,,,,,,,,,,,,,,,,,,,,,,,,,,,,,,,,,,,,,,,,,,,"[""coconut.png""]","[""m&m.png""]",,,,1,,,false,,1,,,,,,,503757.8650000505,503757.206,502974.307,503277.604999952,503274.317,504073.712,,,,
choice,canvas.Screen,2_4_2_6_1_0_0_0_0_4_2,2021-05-24T16:18:05.358Z,,,blank.png,"[""m&m.png""]",blank.png,blank.png,blank.png,blank.png,blank.png,blank.png,blank.png,blank.png,blank.png,blank.png,blank.png,,,,,,,,,,,,,,,,,,,,,,,,,,,,,"[""m&m.png""]","[""coconut.png""]",PB16.png,,,,,,,,,,,0,6,"[""coconut.png""]","[""coconut.png""]","[""coconut.png""]","[""coconut.png""]","[""coconut.png""]","[""coconut.png""]",blank.png,PB18.png,PB18.png,"[""coconut.png""]","[""coconut.png""]","[""coconut.png""]","[""coconut.png""]","[""coconut.png""]",blank.png,"[""coconut.png""]","[""coconut.png""]","[""coconut.png""]","[""coconut.png""]","[""coconut.png""]","[""coconut.png""]",1,"[""m&m.png""]",blank.png,blank.png,blank.png,5,"[""coconut.png""]","[""coconut.png""]","[""coconut.png""]","[""coconut.png""]","[""coconut.png""]",blank.png,PB16.png,,,,,,,,,,,1,,,,,,,,,,,,,10.793000035278965,,response,,,,,,,,,,,,,3,,,,,,,,,,,,,,,,,,,,,,,,,,,,,,,,,,,,,,,,,,,,,,,,,,,,,,,,,"[""coconut.png""]","[""m&m.png""]",,,,1,left,keydown(ArrowLeft),false,,1,,,,,,,504085.4700000491,504084.5050000353,503757.206,504063.50499996915,504073.712,504423.583,,5,,
square,canvas.Screen,2_4_2_6_1_0_0_0_0_4_3,2021-05-24T16:18:06.681Z,,,blank.png,"[""m&m.png""]",blank.png,blank.png,blank.png,blank.png,blank.png,blank.png,blank.png,blank.png,blank.png,blank.png,blank.png,,,,,,,,,,,,,,,,,,,,,,,,,,,,,"[""m&m.png""]","[""coconut.png""]",PB16.png,,,,,,,,,,,0,6,"[""coconut.png""]","[""coconut.png""]","[""coconut.png""]","[""coconut.png""]","[""coconut.png""]","[""coconut.png""]",blank.png,PB18.png,PB18.png,"[""coconut.png""]","[""coconut.png""]","[""coconut.png""]","[""coconut.png""]","[""coconut.png""]",blank.png,"[""coconut.png""]","[""coconut.png""]","[""coconut.png""]","[""coconut.png""]","[""coconut.png""]","[""coconut.png""]",1,"[""m&m.png""]",blank.png,blank.png,blank.png,5,"[""coconut.png""]","[""coconut.png""]","[""coconut.png""]","[""coconut.png""]","[""coconut.png""]",blank.png,PB16.png,,,,,,,,,,,1,,,#33ff3f,#808080,,,,,,,,,999.7239999999874,,timeout,,,,,,,,,,,,,3,,,,,,,,,,,,,,,,,,,,,,,,,,,,,,,,,,,,,,,,,,,,,,,,,,,,,,,,,"[""coconut.png""]","[""m&m.png""]",,,,1,,,false,,1,,,,,black,white,505408.3549999632,505406.656,504390.263,504394.53499997035,504423.583,505423.307,,,,
ITI_late,canvas.Screen,2_4_2_6_1_0_0_0_0_4_4,2021-05-24T16:18:07.182Z,,,blank.png,"[""m&m.png""]",blank.png,blank.png,blank.png,blank.png,blank.png,blank.png,blank.png,blank.png,blank.png,blank.png,blank.png,,,,,,,,,,,,,,,,,,,,,,,,,,,,,"[""m&m.png""]","[""coconut.png""]",PB16.png,,,,,,,,,,,0,6,"[""coconut.png""]","[""coconut.png""]","[""coconut.png""]","[""coconut.png""]","[""coconut.png""]","[""coconut.png""]",blank.png,PB18.png,PB18.png,"[""coconut.png""]","[""coconut.png""]","[""coconut.png""]","[""coconut.png""]","[""coconut.png""]",blank.png,"[""coconut.png""]","[""coconut.png""]","[""coconut.png""]","[""coconut.png""]","[""coconut.png""]","[""coconut.png""]",1,"[""m&m.png""]",blank.png,blank.png,blank.png,5,"[""coconut.png""]","[""coconut.png""]","[""coconut.png""]","[""coconut.png""]","[""coconut.png""]",blank.png,PB16.png,,,,,,,,,,,1,,,,,,,,,,,,,499.86000000004424,,timeout,,,,,,,,,,,,white,3,,,,,,,,,,,,,,,,,,,,,,,,,,,,,,,,,,,,,,,,,,,,,,,,,,,,,,,,,"[""coconut.png""]","[""m&m.png""]",,,,1,,,false,,1,,,,,,,505908.7649999419,505906.449,505406.656,505410.0099999923,505423.307,505923.167,,,,
choice_sequence,flow.Sequence,2_4_2_6_1_0_0_0_0_4,2021-05-24T16:18:07.182Z,,,blank.png,"[""m&m.png""]",blank.png,blank.png,blank.png,blank.png,blank.png,blank.png,blank.png,blank.png,blank.png,blank.png,blank.png,,,,,,,,,,,,,,,,,,,,,,,,,,,,,"[""m&m.png""]","[""coconut.png""]",PB16.png,,,,,,,,,,,0,6,"[""coconut.png""]","[""coconut.png""]","[""coconut.png""]","[""coconut.png""]","[""coconut.png""]","[""coconut.png""]",blank.png,PB18.png,PB18.png,"[""coconut.png""]","[""coconut.png""]","[""coconut.png""]","[""coconut.png""]","[""coconut.png""]",blank.png,"[""coconut.png""]","[""coconut.png""]","[""coconut.png""]","[""coconut.png""]","[""coconut.png""]","[""coconut.png""]",1,"[""m&m.png""]",blank.png,blank.png,blank.png,5,"[""coconut.png""]","[""coconut.png""]","[""coconut.png""]","[""coconut.png""]","[""coconut.png""]",blank.png,PB16.png,,,,,,,,,,,1,,,,,,,,,,,,,3565.1380000000354,,completion,,,,,,,,,,,,,3,,,,,,,,,,,,,,,,,,,,,,,,,,,,,,,,,,,,,,,,,,,,,,,,,,,,,,,,,"[""coconut.png""]","[""m&m.png""]",,,,1,,,false,,1,,,,,,,505909.1499999631,505906.449,502324.643,502328.69999995455,502341.311,505923.167,,,,
fixCross,canvas.Screen,2_4_2_6_1_0_0_0_0_5_0,2021-05-24T16:18:07.930Z,,,blank.png,blank.png,blank.png,blank.png,blank.png,blank.png,blank.png,"[""m&m.png""]",blank.png,blank.png,blank.png,blank.png,blank.png,,,,,,,,,,,,,,,,,,,,,,,,,,,,,"[""m&m.png""]","[""coconut.png""]",PB18.png,,,,,,,,,,,0,6,"[""coconut.png""]","[""coconut.png""]","[""coconut.png""]","[""coconut.png""]","[""coconut.png""]","[""coconut.png""]",blank.png,PB18.png,PB07.png,"[""coconut.png""]","[""coconut.png""]","[""coconut.png""]","[""coconut.png""]","[""coconut.png""]","[""coconut.png""]","[""coconut.png""]",blank.png,blank.png,blank.png,blank.png,blank.png,1,"[""m&m.png""]",blank.png,blank.png,blank.png,1,"[""coconut.png""]",blank.png,blank.png,blank.png,blank.png,blank.png,PB07.png,,,,,,,,,,,1,,,,,,,,,,,,,1032.9639999999781,,timeout,,,,,,,,,,,,,4,,,,,,,,,,,,,,,,,,,,,,,,,,,,,,,,,,,,,,,,,,,,,,,,,,,,,,,,,"[""coconut.png""]","[""m&m.png""]",,,,1,,,false,,1,,,,,,,506656.8599999882,506656.189,505906.449,505912.93999995105,505923.167,506956.131,6,,,
timeout,canvas.Screen,2_4_2_6_1_0_0_0_0_5_1,2021-05-24T16:18:08.713Z,,,blank.png,blank.png,blank.png,blank.png,blank.png,blank.png,blank.png,"[""m&m.png""]",blank.png,blank.png,blank.png,blank.png,blank.png,,,,,,,,,,,,,,,,,,,,,,,,,,,,,"[""m&m.png""]","[""coconut.png""]",PB18.png,,,,,,,,,,,0,6,"[""coconut.png""]","[""coconut.png""]","[""coconut.png""]","[""coconut.png""]","[""coconut.png""]","[""coconut.png""]",blank.png,PB18.png,PB07.png,"[""coconut.png""]","[""coconut.png""]","[""coconut.png""]","[""coconut.png""]","[""coconut.png""]","[""coconut.png""]","[""coconut.png""]",blank.png,blank.png,blank.png,blank.png,blank.png,1,"[""m&m.png""]",blank.png,blank.png,blank.png,1,"[""coconut.png""]",blank.png,blank.png,blank.png,blank.png,blank.png,PB07.png,,,,,,,,,,,1,,,,,,,,,,,,,816.4189999999944,,timeout,,,,,,,,,,,,,4,,,,,,,,,,,,,,,,,,,,,,,,,,,,,,,,,,,,,,,,,,,,,,,,,,,,,,,,,"[""coconut.png""]","[""m&m.png""]",,,,1,,,false,,1,,,,,,,507440.244999947,507439.584,506656.189,506959.5050000353,506956.131,507772.55,,,,
choice,canvas.Screen,2_4_2_6_1_0_0_0_0_5_2,2021-05-24T16:18:09.056Z,,,blank.png,blank.png,blank.png,blank.png,blank.png,blank.png,blank.png,"[""m&m.png""]",blank.png,blank.png,blank.png,blank.png,blank.png,,,,,,,,,,,,,,,,,,,,,,,,,,,,,"[""m&m.png""]","[""coconut.png""]",PB18.png,,,,,,,,,,,0,6,"[""coconut.png""]","[""coconut.png""]","[""coconut.png""]","[""coconut.png""]","[""coconut.png""]","[""coconut.png""]",blank.png,PB18.png,PB07.png,"[""coconut.png""]","[""coconut.png""]","[""coconut.png""]","[""coconut.png""]","[""coconut.png""]","[""coconut.png""]","[""coconut.png""]",blank.png,blank.png,blank.png,blank.png,blank.png,1,"[""m&m.png""]",blank.png,blank.png,blank.png,1,"[""coconut.png""]",blank.png,blank.png,blank.png,blank.png,blank.png,PB07.png,,,,,,,,,,,1,,,,,,,,,,,,,207.32099997234764,,response,,,,,,,,,,,,,4,,,,,,,,,,,,,,,,,,,,,,,,,,,,,,,,,,,,,,,,,,,,,,,,,,,,,,,,,"[""coconut.png""]","[""m&m.png""]",,,,1,left,keydown(ArrowLeft),false,,1,,,,,,,507783.0949999625,507646.9049999723,507439.584,507752.7949999785,,508105.699,,6,,
square,canvas.Screen,2_4_2_6_1_0_0_0_0_5_3,2021-05-24T16:18:10.363Z,,,blank.png,blank.png,blank.png,blank.png,blank.png,blank.png,blank.png,"[""m&m.png""]",blank.png,blank.png,blank.png,blank.png,blank.png,,,,,,,,,,,,,,,,,,,,,,,,,,,,,"[""m&m.png""]","[""coconut.png""]",PB18.png,,,,,,,,,,,0,6,"[""coconut.png""]","[""coconut.png""]","[""coconut.png""]","[""coconut.png""]","[""coconut.png""]","[""coconut.png""]",blank.png,PB18.png,PB07.png,"[""coconut.png""]","[""coconut.png""]","[""coconut.png""]","[""coconut.png""]","[""coconut.png""]","[""coconut.png""]","[""coconut.png""]",blank.png,blank.png,blank.png,blank.png,blank.png,1,"[""m&m.png""]",blank.png,blank.png,blank.png,1,"[""coconut.png""]",blank.png,blank.png,blank.png,blank.png,blank.png,PB07.png,,,,,,,,,,,1,,,#33ff3f,#808080,,,,,,,,,999.6609999999637,,timeout,,,,,,,,,,,,,4,,,,,,,,,,,,,,,,,,,,,,,,,,,,,,,,,,,,,,,,,,,,,,,,,,,,,,,,,"[""coconut.png""]","[""m&m.png""]",,,,1,,,false,,1,,,,,black,white,509090.104999952,509088.705,507772.55,508092.5399999833,508105.699,509105.36,,,,
ITI_late,canvas.Screen,2_4_2_6_1_0_0_0_0_5_4,2021-05-24T16:18:11.612Z,,,blank.png,blank.png,blank.png,blank.png,blank.png,blank.png,blank.png,"[""m&m.png""]",blank.png,blank.png,blank.png,blank.png,blank.png,,,,,,,,,,,,,,,,,,,,,,,,,,,,,"[""m&m.png""]","[""coconut.png""]",PB18.png,,,,,,,,,,,0,6,"[""coconut.png""]","[""coconut.png""]","[""coconut.png""]","[""coconut.png""]","[""coconut.png""]","[""coconut.png""]",blank.png,PB18.png,PB07.png,"[""coconut.png""]","[""coconut.png""]","[""coconut.png""]","[""coconut.png""]","[""coconut.png""]","[""coconut.png""]","[""coconut.png""]",blank.png,blank.png,blank.png,blank.png,blank.png,1,"[""m&m.png""]",blank.png,blank.png,blank.png,1,"[""coconut.png""]",blank.png,blank.png,blank.png,blank.png,blank.png,PB07.png,,,,,,,,,,,1,,,,,,,,,,,,,1249.8269999999902,,timeout,,,,,,,,,,,,white,4,,,,,,,,,,,,,,,,,,,,,,,,,,,,,,,,,,,,,,,,,,,,,,,,,,,,,,,,,"[""coconut.png""]","[""m&m.png""]",,,,1,,,false,,1,,,,,,,510339.09999998286,510338.404,509088.705,509091.68499999214,509105.36,510355.187,,,,
choice_sequence,flow.Sequence,2_4_2_6_1_0_0_0_0_5,2021-05-24T16:18:11.612Z,,,blank.png,blank.png,blank.png,blank.png,blank.png,blank.png,blank.png,"[""m&m.png""]",blank.png,blank.png,blank.png,blank.png,blank.png,,,,,,,,,,,,,,,,,,,,,,,,,,,,,"[""m&m.png""]","[""coconut.png""]",PB18.png,,,,,,,,,,,0,6,"[""coconut.png""]","[""coconut.png""]","[""coconut.png""]","[""coconut.png""]","[""coconut.png""]","[""coconut.png""]",blank.png,PB18.png,PB07.png,"[""coconut.png""]","[""coconut.png""]","[""coconut.png""]","[""coconut.png""]","[""coconut.png""]","[""coconut.png""]","[""coconut.png""]",blank.png,blank.png,blank.png,blank.png,blank.png,1,"[""m&m.png""]",blank.png,blank.png,blank.png,1,"[""coconut.png""]",blank.png,blank.png,blank.png,blank.png,blank.png,PB07.png,,,,,,,,,,,1,,,,,,,,,,,,,4415.236999999965,,completion,,,,,,,,,,,,,4,,,,,,,,,,,,,,,,,,,,,,,,,,,,,,,,,,,,,,,,,,,,,,,,,,,,,,,,,"[""coconut.png""]","[""m&m.png""]",,,,1,,,false,,1,,,,,,,510339.49000004213,510338.404,505906.449,505912.12500003166,505923.167,510355.187,,,,
fixCross,canvas.Screen,2_4_2_6_1_0_0_0_0_6_0,2021-05-24T16:18:12.313Z,,,blank.png,"[""m&m.png""]",blank.png,blank.png,blank.png,blank.png,blank.png,blank.png,blank.png,blank.png,blank.png,blank.png,blank.png,,,,,,,,,,,,,,,,,,,,,,,,,,,,,"[""m&m.png""]","[""coconut.png""]",PB15.png,,,,,,,,,,,0,6,"[""coconut.png""]","[""coconut.png""]","[""coconut.png""]","[""coconut.png""]","[""coconut.png""]","[""coconut.png""]",blank.png,PB18.png,PB18.png,"[""coconut.png""]","[""coconut.png""]","[""coconut.png""]","[""coconut.png""]",blank.png,blank.png,"[""coconut.png""]","[""coconut.png""]","[""coconut.png""]","[""coconut.png""]","[""coconut.png""]","[""coconut.png""]",1,"[""m&m.png""]",blank.png,blank.png,blank.png,4,"[""coconut.png""]","[""coconut.png""]","[""coconut.png""]","[""coconut.png""]",blank.png,blank.png,PB15.png,,,,,,,,,,,1,,,,,,,,,,,,,999.4010000000126,,timeout,,,,,,,,,,,,,3,,,,,,,,,,,,,,,,,,,,,,,,,,,,,,,,,,,,,,,,,,,,,,,,,,,,,,,,,"[""coconut.png""]","[""m&m.png""]",,,,1,,,false,,1,,,,,,,511040.1500000153,511038.019,510338.404,510343.5299999546,510355.187,511354.588,7,,,
timeout,canvas.Screen,2_4_2_6_1_0_0_0_0_6_1,2021-05-24T16:18:13.111Z,,,blank.png,"[""m&m.png""]",blank.png,blank.png,blank.png,blank.png,blank.png,blank.png,blank.png,blank.png,blank.png,blank.png,blank.png,,,,,,,,,,,,,,,,,,,,,,,,,,,,,"[""m&m.png""]","[""coconut.png""]",PB15.png,,,,,,,,,,,0,6,"[""coconut.png""]","[""coconut.png""]","[""coconut.png""]","[""coconut.png""]","[""coconut.png""]","[""coconut.png""]",blank.png,PB18.png,PB18.png,"[""coconut.png""]","[""coconut.png""]","[""coconut.png""]","[""coconut.png""]",blank.png,blank.png,"[""coconut.png""]","[""coconut.png""]","[""coconut.png""]","[""coconut.png""]","[""coconut.png""]","[""coconut.png""]",1,"[""m&m.png""]",blank.png,blank.png,blank.png,4,"[""coconut.png""]","[""coconut.png""]","[""coconut.png""]","[""coconut.png""]",blank.png,blank.png,PB15.png,,,,,,,,,,,1,,,,,,,,,,,,,816.4000000000233,,timeout,,,,,,,,,,,,,3,,,,,,,,,,,,,,,,,,,,,,,,,,,,,,,,,,,,,,,,,,,,,,,,,,,,,,,,,"[""coconut.png""]","[""m&m.png""]",,,,1,,,false,,1,,,,,,,511838.38500001,511837.737,511038.019,511358.08000003453,511354.588,512170.988,,,,
choice,canvas.Screen,2_4_2_6_1_0_0_0_0_6_2,2021-05-24T16:18:13.458Z,,,blank.png,"[""m&m.png""]",blank.png,blank.png,blank.png,blank.png,blank.png,blank.png,blank.png,blank.png,blank.png,blank.png,blank.png,,,,,,,,,,,,,,,,,,,,,,,,,,,,,"[""m&m.png""]","[""coconut.png""]",PB15.png,,,,,,,,,,,0,6,"[""coconut.png""]","[""coconut.png""]","[""coconut.png""]","[""coconut.png""]","[""coconut.png""]","[""coconut.png""]",blank.png,PB18.png,PB18.png,"[""coconut.png""]","[""coconut.png""]","[""coconut.png""]","[""coconut.png""]",blank.png,blank.png,"[""coconut.png""]","[""coconut.png""]","[""coconut.png""]","[""coconut.png""]","[""coconut.png""]","[""coconut.png""]",1,"[""m&m.png""]",blank.png,blank.png,blank.png,4,"[""coconut.png""]","[""coconut.png""]","[""coconut.png""]","[""coconut.png""]",blank.png,blank.png,PB15.png,,,,,,,,,,,1,,,,,,,,,,,,,290.2030000348459,,response,,,,,,,,,,,,,3,,,,,,,,,,,,,,,,,,,,,,,,,,,,,,,,,,,,,,,,,,,,,,,,,,,,,,,,,"[""coconut.png""]","[""m&m.png""]",,,,1,left,keydown(ArrowLeft),false,,1,,,,,,,512185.6550000375,512127.94000003487,511837.737,512153.40499999,,512520.894,,7,,
square,canvas.Screen,2_4_2_6_1_0_0_0_0_6_3,2021-05-24T16:18:14.778Z,,,blank.png,"[""m&m.png""]",blank.png,blank.png,blank.png,blank.png,blank.png,blank.png,blank.png,blank.png,blank.png,blank.png,blank.png,,,,,,,,,,,,,,,,,,,,,,,,,,,,,"[""m&m.png""]","[""coconut.png""]",PB15.png,,,,,,,,,,,0,6,"[""coconut.png""]","[""coconut.png""]","[""coconut.png""]","[""coconut.png""]","[""coconut.png""]","[""coconut.png""]",blank.png,PB18.png,PB18.png,"[""coconut.png""]","[""coconut.png""]","[""coconut.png""]","[""coconut.png""]",blank.png,blank.png,"[""coconut.png""]","[""coconut.png""]","[""coconut.png""]","[""coconut.png""]","[""coconut.png""]","[""coconut.png""]",1,"[""m&m.png""]",blank.png,blank.png,blank.png,4,"[""coconut.png""]","[""coconut.png""]","[""coconut.png""]","[""coconut.png""]",blank.png,blank.png,PB15.png,,,,,,,,,,,1,,,#33ff3f,#808080,,,,,,,,,1000.0210000000079,,timeout,,,,,,,,,,,,,3,,,,,,,,,,,,,,,,,,,,,,,,,,,,,,,,,,,,,,,,,,,,,,,,,,,,,,,,,"[""coconut.png""]","[""m&m.png""]",,,,1,,,false,,1,,,,,black,white,513504.80500003323,513504.181,512170.988,512503.64999996964,512520.894,513520.915,,,,
ITI_late,canvas.Screen,2_4_2_6_1_0_0_0_0_6_4,2021-05-24T16:18:15.028Z,,,blank.png,"[""m&m.png""]",blank.png,blank.png,blank.png,blank.png,blank.png,blank.png,blank.png,blank.png,blank.png,blank.png,blank.png,,,,,,,,,,,,,,,,,,,,,,,,,,,,,"[""m&m.png""]","[""coconut.png""]",PB15.png,,,,,,,,,,,0,6,"[""coconut.png""]","[""coconut.png""]","[""coconut.png""]","[""coconut.png""]","[""coconut.png""]","[""coconut.png""]",blank.png,PB18.png,PB18.png,"[""coconut.png""]","[""coconut.png""]","[""coconut.png""]","[""coconut.png""]",blank.png,blank.png,"[""coconut.png""]","[""coconut.png""]","[""coconut.png""]","[""coconut.png""]","[""coconut.png""]","[""coconut.png""]",1,"[""m&m.png""]",blank.png,blank.png,blank.png,4,"[""coconut.png""]","[""coconut.png""]","[""coconut.png""]","[""coconut.png""]",blank.png,blank.png,PB15.png,,,,,,,,,,,1,,,,,,,,,,,,,249.49100000003818,,timeout,,,,,,,,,,,,white,3,,,,,,,,,,,,,,,,,,,,,,,,,,,,,,,,,,,,,,,,,,,,,,,,,,,,,,,,,"[""coconut.png""]","[""m&m.png""]",,,,1,,,false,,1,,,,,,,513754.75500000175,513754.069,513504.181,513506.2349999789,513520.915,513770.406,,,,
choice_sequence,flow.Sequence,2_4_2_6_1_0_0_0_0_6,2021-05-24T16:18:15.028Z,,,blank.png,"[""m&m.png""]",blank.png,blank.png,blank.png,blank.png,blank.png,blank.png,blank.png,blank.png,blank.png,blank.png,blank.png,,,,,,,,,,,,,,,,,,,,,,,,,,,,,"[""m&m.png""]","[""coconut.png""]",PB15.png,,,,,,,,,,,0,6,"[""coconut.png""]","[""coconut.png""]","[""coconut.png""]","[""coconut.png""]","[""coconut.png""]","[""coconut.png""]",blank.png,PB18.png,PB18.png,"[""coconut.png""]","[""coconut.png""]","[""coconut.png""]","[""coconut.png""]",blank.png,blank.png,"[""coconut.png""]","[""coconut.png""]","[""coconut.png""]","[""coconut.png""]","[""coconut.png""]","[""coconut.png""]",1,"[""m&m.png""]",blank.png,blank.png,blank.png,4,"[""coconut.png""]","[""coconut.png""]","[""coconut.png""]","[""coconut.png""]",blank.png,blank.png,PB15.png,,,,,,,,,,,1,,,,,,,,,,,,,3398.8820000000414,,completion,,,,,,,,,,,,,3,,,,,,,,,,,,,,,,,,,,,,,,,,,,,,,,,,,,,,,,,,,,,,,,,,,,,,,,,"[""coconut.png""]","[""m&m.png""]",,,,1,,,false,,1,,,,,,,513755.114999949,513754.069,510338.404,510342.80500002205,510355.187,513770.406,,,,
choice_loop,flow.Loop,2_4_2_6_1_0_0_0_0,2021-05-24T16:18:15.028Z,,,,,,,,,,,,,,,,,,,,,,,,,,,,,,,,,,,,,,,,,,,,"[""m&m.png""]","[""coconut.png""]",,,,,,,,,,,,,,,,,,,,,,,,,,,,,,,,,,,,,,,,,,,,,,,,,,,,,,,,,,,,,,,,,,,,,,,27274.40299999999,,completion,,,,,,,,,,,,,,,,,,,,,,,,,,,,,,,,,,,,,,,,,,,,,,,,,,,,,,,,,,,,,,,,,,,,,,"[""coconut.png""]","[""m&m.png""]",,,,1,,,false,,,,,,,,,513755.3349999944,513754.069,486446.578,486481.0900000157,486479.666,513770.406,,,,
choice_frame,html.Frame,2_4_2_6_1_0_0_0,2021-05-24T16:18:15.028Z,,,,,,,,,,,,,,,,,,,,,,,,,,,,,,,,,,,,,,,,,,,,,,,,,,,,,,,,,,,,,,,,,,,,,,,,,,,,,,,,,,,,,,,,,,,,,,,,,,,,,,,,,,,,,,,,,,,,27275.728999985557,,,,,,,,,,,,,,,,,,,,,,,,,,,,,,,,,,,,,,,,,,,,,,,,,,,,,,,,,,,,,,,,,,,,,,,,,,,,,1,,,false,,,,,,,,,513755.49000001047,513755.3949999856,486446.578,486447.32499995735,486479.666,513787.401,,,,
sublock_1,flow.Sequence,2_4_2_6_1_0_0,2021-05-24T16:18:15.028Z,,,,,,,,,,,,,,,,,,,,,,,,,,,,,,,,,,,,,,,,,,,,,,,,,,,,,,,,,,,,,,,,,,,,,,,,,,,,,,,,,,,,,,,,,,,,,,,,,,,,,,,,,,,,,,,,,,,,27275.728999985557,,completion,,,,,,,,,,,,,,,,,,,,,,,,,,,,,,,,,,,,,,,,,,,,,,,,,,,,,,,,,,,,,,,,,,,,,,,,,,,1,,,false,,,,,,,,,513755.58500003535,513755.3949999856,486446.578,486447.2999999998,486479.666,513787.401,,,,
fixCross,canvas.Screen,2_4_2_6_1_0_1_0_0_0_0,2021-05-24T16:18:15.494Z,,,blank.png,"[""m&m.png""]",blank.png,blank.png,blank.png,blank.png,blank.png,blank.png,blank.png,blank.png,blank.png,blank.png,blank.png,,,,,,,,,,,,,,,,,,,,,,,,,,,,,"[""m&m.png""]","[""coconut.png""]",PB12.png,,,,,,,,,,,0,6,"[""coconut.png""]","[""coconut.png""]","[""coconut.png""]","[""coconut.png""]","[""coconut.png""]","[""coconut.png""]",blank.png,PB18.png,PB18.png,"[""coconut.png""]","[""coconut.png""]",blank.png,blank.png,blank.png,blank.png,"[""coconut.png""]","[""coconut.png""]","[""coconut.png""]","[""coconut.png""]","[""coconut.png""]","[""coconut.png""]",1,"[""m&m.png""]",blank.png,blank.png,blank.png,2,"[""coconut.png""]","[""coconut.png""]",blank.png,blank.png,blank.png,blank.png,PB12.png,,,,,,,,,,,1,,,,,,,,,,,,,749.4469999999856,,timeout,,,,,,,,,,,,,3,,,,,,,,,,,,,,,,,,,,,,,,,,,,,,,,,,,,,,,,,,,,,,,,,,,,,,,,,"[""coconut.png""]","[""m&m.png""]",,,,6,,,false,,1,,,,,,,514221.3599999668,514220.592,513770.406,513779.2099999497,513787.401,514536.848,8,,,
timeout,canvas.Screen,2_4_2_6_1_0_1_0_0_0_1,2021-05-24T16:18:16.294Z,,,blank.png,"[""m&m.png""]",blank.png,blank.png,blank.png,blank.png,blank.png,blank.png,blank.png,blank.png,blank.png,blank.png,blank.png,,,,,,,,,,,,,,,,,,,,,,,,,,,,,"[""m&m.png""]","[""coconut.png""]",PB12.png,,,,,,,,,,,0,6,"[""coconut.png""]","[""coconut.png""]","[""coconut.png""]","[""coconut.png""]","[""coconut.png""]","[""coconut.png""]",blank.png,PB18.png,PB18.png,"[""coconut.png""]","[""coconut.png""]",blank.png,blank.png,blank.png,blank.png,"[""coconut.png""]","[""coconut.png""]","[""coconut.png""]","[""coconut.png""]","[""coconut.png""]","[""coconut.png""]",1,"[""m&m.png""]",blank.png,blank.png,blank.png,2,"[""coconut.png""]","[""coconut.png""]",blank.png,blank.png,blank.png,blank.png,PB12.png,,,,,,,,,,,1,,,,,,,,,,,,,816.380999999994,,timeout,,,,,,,,,,,,,3,,,,,,,,,,,,,,,,,,,,,,,,,,,,,,,,,,,,,,,,,,,,,,,,,,,,,,,,,"[""coconut.png""]","[""m&m.png""]",,,,6,,,false,,1,,,,,,,515021.2299999548,515020.204,514220.592,514529.2999999365,514536.848,515353.229,,,,
choice,canvas.Screen,2_4_2_6_1_0_1_0_0_0_2,2021-05-24T16:18:16.641Z,,,blank.png,"[""m&m.png""]",blank.png,blank.png,blank.png,blank.png,blank.png,blank.png,blank.png,blank.png,blank.png,blank.png,blank.png,,,,,,,,,,,,,,,,,,,,,,,,,,,,,"[""m&m.png""]","[""coconut.png""]",PB12.png,,,,,,,,,,,0,6,"[""coconut.png""]","[""coconut.png""]","[""coconut.png""]","[""coconut.png""]","[""coconut.png""]","[""coconut.png""]",blank.png,PB18.png,PB18.png,"[""coconut.png""]","[""coconut.png""]",blank.png,blank.png,blank.png,blank.png,"[""coconut.png""]","[""coconut.png""]","[""coconut.png""]","[""coconut.png""]","[""coconut.png""]","[""coconut.png""]",1,"[""m&m.png""]",blank.png,blank.png,blank.png,2,"[""coconut.png""]","[""coconut.png""]",blank.png,blank.png,blank.png,blank.png,PB12.png,,,,,,,,,,,1,,,,,,,,,,,,,342.571000045049,,response,,,,,,,,,,,,,3,,,,,,,,,,,,,,,,,,,,,,,,,,,,,,,,,,,,,,,,,,,,,,,,,,,,,,,,,"[""coconut.png""]","[""m&m.png""]",,,,6,right,keydown(ArrowRight),false,,1,,,,,,,515368.1499999948,515362.7750000451,515020.204,515327.9999999795,,515686.482,,8,,
square,canvas.Screen,2_4_2_6_1_0_1_0_0_0_3,2021-05-24T16:18:17.943Z,,,blank.png,"[""m&m.png""]",blank.png,blank.png,blank.png,blank.png,blank.png,blank.png,blank.png,blank.png,blank.png,blank.png,blank.png,,,,,,,,,,,,,,,,,,,,,,,,,,,,,"[""m&m.png""]","[""coconut.png""]",PB12.png,,,,,,,,,,,0,6,"[""coconut.png""]","[""coconut.png""]","[""coconut.png""]","[""coconut.png""]","[""coconut.png""]","[""coconut.png""]",blank.png,PB18.png,PB18.png,"[""coconut.png""]","[""coconut.png""]",blank.png,blank.png,blank.png,blank.png,"[""coconut.png""]","[""coconut.png""]","[""coconut.png""]","[""coconut.png""]","[""coconut.png""]","[""coconut.png""]",1,"[""m&m.png""]",blank.png,blank.png,blank.png,2,"[""coconut.png""]","[""coconut.png""]",blank.png,blank.png,blank.png,blank.png,PB12.png,,,,,,,,,,,1,,,#808080,#33ff3f,,,,,,,,,999.6499999999651,,timeout,,,,,,,,,,,,,3,,,,,,,,,,,,,,,,,,,,,,,,,,,,,,,,,,,,,,,,,,,,,,,,,,,,,,,,,"[""coconut.png""]","[""m&m.png""]",,,,6,,,false,,1,,,,,white,black,516670.3999999445,516669.793,515353.229,515682.5549999485,515686.482,516686.132,,,,
ITI_late,canvas.Screen,2_4_2_6_1_0_1_0_0_0_4,2021-05-24T16:18:18.693Z,,,blank.png,"[""m&m.png""]",blank.png,blank.png,blank.png,blank.png,blank.png,blank.png,blank.png,blank.png,blank.png,blank.png,blank.png,,,,,,,,,,,,,,,,,,,,,,,,,,,,,"[""m&m.png""]","[""coconut.png""]",PB12.png,,,,,,,,,,,0,6,"[""coconut.png""]","[""coconut.png""]","[""coconut.png""]","[""coconut.png""]","[""coconut.png""]","[""coconut.png""]",blank.png,PB18.png,PB18.png,"[""coconut.png""]","[""coconut.png""]",blank.png,blank.png,blank.png,blank.png,"[""coconut.png""]","[""coconut.png""]","[""coconut.png""]","[""coconut.png""]","[""coconut.png""]","[""coconut.png""]",1,"[""m&m.png""]",blank.png,blank.png,blank.png,2,"[""coconut.png""]","[""coconut.png""]",blank.png,blank.png,blank.png,blank.png,PB12.png,,,,,,,,,,,1,,,,,,,,,,,,,749.7339999999967,,timeout,,,,,,,,,,,,white,3,,,,,,,,,,,,,,,,,,,,,,,,,,,,,,,,,,,,,,,,,,,,,,,,,,,,,,,,,"[""coconut.png""]","[""m&m.png""]",,,,6,,,false,,1,,,,,,,517420.1549999416,517419.568,516669.793,516672.0150000183,516686.132,517435.866,,,,
choice_sequence,flow.Sequence,2_4_2_6_1_0_1_0_0_0,2021-05-24T16:18:18.693Z,,,blank.png,"[""m&m.png""]",blank.png,blank.png,blank.png,blank.png,blank.png,blank.png,blank.png,blank.png,blank.png,blank.png,blank.png,,,,,,,,,,,,,,,,,,,,,,,,,,,,,"[""m&m.png""]","[""coconut.png""]",PB12.png,,,,,,,,,,,0,6,"[""coconut.png""]","[""coconut.png""]","[""coconut.png""]","[""coconut.png""]","[""coconut.png""]","[""coconut.png""]",blank.png,PB18.png,PB18.png,"[""coconut.png""]","[""coconut.png""]",blank.png,blank.png,blank.png,blank.png,"[""coconut.png""]","[""coconut.png""]","[""coconut.png""]","[""coconut.png""]","[""coconut.png""]","[""coconut.png""]",1,"[""m&m.png""]",blank.png,blank.png,blank.png,2,"[""coconut.png""]","[""coconut.png""]",blank.png,blank.png,blank.png,blank.png,PB12.png,,,,,,,,,,,1,,,,,,,,,,,,,3632.167000000016,,completion,,,,,,,,,,,,,3,,,,,,,,,,,,,,,,,,,,,,,,,,,,,,,,,,,,,,,,,,,,,,,,,,,,,,,,,"[""coconut.png""]","[""m&m.png""]",,,,6,,,false,,1,,,,,,,517420.6499999855,517419.568,513770.406,513778.4199999878,513787.401,517435.866,,,,
fixCross,canvas.Screen,2_4_2_6_1_0_1_0_0_1_0,2021-05-24T16:18:19.293Z,,,blank.png,"[""m&m.png""]",blank.png,blank.png,blank.png,blank.png,blank.png,blank.png,blank.png,blank.png,blank.png,blank.png,blank.png,,,,,,,,,,,,,,,,,,,,,,,,,,,,,"[""m&m.png""]","[""coconut.png""]",PB01.png,,,,,,,,,,,0,6,"[""coconut.png""]","[""coconut.png""]","[""coconut.png""]","[""coconut.png""]","[""coconut.png""]","[""coconut.png""]",blank.png,PB18.png,PB18.png,blank.png,blank.png,blank.png,blank.png,blank.png,blank.png,"[""coconut.png""]","[""coconut.png""]","[""coconut.png""]","[""coconut.png""]","[""coconut.png""]","[""coconut.png""]",1,"[""m&m.png""]",blank.png,blank.png,blank.png,0,blank.png,blank.png,blank.png,blank.png,blank.png,blank.png,PB01.png,,,,,,,,,,,1,,,,,,,,,,,,,866.3820000000414,,timeout,,,,,,,,,,,,,3,,,,,,,,,,,,,,,,,,,,,,,,,,,,,,,,,,,,,,,,,,,,,,,,,,,,,,,,,"[""coconut.png""]","[""m&m.png""]",,,,6,,,false,,1,,,,,,,518019.9400000274,518019.143,517419.568,517424.39499998,517435.866,518302.248,9,,,
timeout,canvas.Screen,2_4_2_6_1_0_1_0_0_1_1,2021-05-24T16:18:20.059Z,,,blank.png,"[""m&m.png""]",blank.png,blank.png,blank.png,blank.png,blank.png,blank.png,blank.png,blank.png,blank.png,blank.png,blank.png,,,,,,,,,,,,,,,,,,,,,,,,,,,,,"[""m&m.png""]","[""coconut.png""]",PB01.png,,,,,,,,,,,0,6,"[""coconut.png""]","[""coconut.png""]","[""coconut.png""]","[""coconut.png""]","[""coconut.png""]","[""coconut.png""]",blank.png,PB18.png,PB18.png,blank.png,blank.png,blank.png,blank.png,blank.png,blank.png,"[""coconut.png""]","[""coconut.png""]","[""coconut.png""]","[""coconut.png""]","[""coconut.png""]","[""coconut.png""]",1,"[""m&m.png""]",blank.png,blank.png,blank.png,0,blank.png,blank.png,blank.png,blank.png,blank.png,blank.png,PB01.png,,,,,,,,,,,1,,,,,,,,,,,,,816.3979999999865,,timeout,,,,,,,,,,,,,3,,,,,,,,,,,,,,,,,,,,,,,,,,,,,,,,,,,,,,,,,,,,,,,,,,,,,,,,,"[""coconut.png""]","[""m&m.png""]",,,,6,,,false,,1,,,,,,,518786.28999996,518785.681,518019.143,518303.86999994516,518302.248,519118.646,,,,
choice,canvas.Screen,2_4_2_6_1_0_1_0_0_1_2,2021-05-24T16:18:20.402Z,,,blank.png,"[""m&m.png""]",blank.png,blank.png,blank.png,blank.png,blank.png,blank.png,blank.png,blank.png,blank.png,blank.png,blank.png,,,,,,,,,,,,,,,,,,,,,,,,,,,,,"[""m&m.png""]","[""coconut.png""]",PB01.png,,,,,,,,,,,0,6,"[""coconut.png""]","[""coconut.png""]","[""coconut.png""]","[""coconut.png""]","[""coconut.png""]","[""coconut.png""]",blank.png,PB18.png,PB18.png,blank.png,blank.png,blank.png,blank.png,blank.png,blank.png,"[""coconut.png""]","[""coconut.png""]","[""coconut.png""]","[""coconut.png""]","[""coconut.png""]","[""coconut.png""]",1,"[""m&m.png""]",blank.png,blank.png,blank.png,0,blank.png,blank.png,blank.png,blank.png,blank.png,blank.png,PB01.png,,,,,,,,,,,1,,,,,,,,,,,,,93.53900000255089,,response,,,,,,,,,,,,,3,,,,,,,,,,,,,,,,,,,,,,,,,,,,,,,,,,,,,,,,,,,,,,,,,,,,,,,,,"[""coconut.png""]","[""m&m.png""]",,,,6,right,keydown(ArrowRight),false,,1,,,,,,,519129.2850000318,518879.22000000253,518785.681,519095.1799999457,,519435.21,,9,,
square,canvas.Screen,2_4_2_6_1_0_1_0_0_1_3,2021-05-24T16:18:21.692Z,,,blank.png,"[""m&m.png""]",blank.png,blank.png,blank.png,blank.png,blank.png,blank.png,blank.png,blank.png,blank.png,blank.png,blank.png,,,,,,,,,,,,,,,,,,,,,,,,,,,,,"[""m&m.png""]","[""coconut.png""]",PB01.png,,,,,,,,,,,0,6,"[""coconut.png""]","[""coconut.png""]","[""coconut.png""]","[""coconut.png""]","[""coconut.png""]","[""coconut.png""]",blank.png,PB18.png,PB18.png,blank.png,blank.png,blank.png,blank.png,blank.png,blank.png,"[""coconut.png""]","[""coconut.png""]","[""coconut.png""]","[""coconut.png""]","[""coconut.png""]","[""coconut.png""]",1,"[""m&m.png""]",blank.png,blank.png,blank.png,0,blank.png,blank.png,blank.png,blank.png,blank.png,blank.png,PB01.png,,,,,,,,,,,1,,,#808080,#33ff3f,,,,,,,,,999.6520000000019,,timeout,,,,,,,,,,,,,3,,,,,,,,,,,,,,,,,,,,,,,,,,,,,,,,,,,,,,,,,,,,,,,,,,,,,,,,,"[""coconut.png""]","[""m&m.png""]",,,,6,,,false,,1,,,,,white,black,520418.9250000054,520418.209,519118.646,519432.6750000473,519435.21,520434.862,,,,
ITI_late,canvas.Screen,2_4_2_6_1_0_1_0_0_1_4,2021-05-24T16:18:21.942Z,,,blank.png,"[""m&m.png""]",blank.png,blank.png,blank.png,blank.png,blank.png,blank.png,blank.png,blank.png,blank.png,blank.png,blank.png,,,,,,,,,,,,,,,,,,,,,,,,,,,,,"[""m&m.png""]","[""coconut.png""]",PB01.png,,,,,,,,,,,0,6,"[""coconut.png""]","[""coconut.png""]","[""coconut.png""]","[""coconut.png""]","[""coconut.png""]","[""coconut.png""]",blank.png,PB18.png,PB18.png,blank.png,blank.png,blank.png,blank.png,blank.png,blank.png,"[""coconut.png""]","[""coconut.png""]","[""coconut.png""]","[""coconut.png""]","[""coconut.png""]","[""coconut.png""]",1,"[""m&m.png""]",blank.png,blank.png,blank.png,0,blank.png,blank.png,blank.png,blank.png,blank.png,blank.png,PB01.png,,,,,,,,,,,1,,,,,,,,,,,,,249.94000000000233,,timeout,,,,,,,,,,,,white,3,,,,,,,,,,,,,,,,,,,,,,,,,,,,,,,,,,,,,,,,,,,,,,,,,,,,,,,,,"[""coconut.png""]","[""m&m.png""]",,,,6,,,false,,1,,,,,,,520669.0749999834,520668.49,520418.209,520420.3200000338,520434.862,520684.802,,,,
choice_sequence,flow.Sequence,2_4_2_6_1_0_1_0_0_1,2021-05-24T16:18:21.942Z,,,blank.png,"[""m&m.png""]",blank.png,blank.png,blank.png,blank.png,blank.png,blank.png,blank.png,blank.png,blank.png,blank.png,blank.png,,,,,,,,,,,,,,,,,,,,,,,,,,,,,"[""m&m.png""]","[""coconut.png""]",PB01.png,,,,,,,,,,,0,6,"[""coconut.png""]","[""coconut.png""]","[""coconut.png""]","[""coconut.png""]","[""coconut.png""]","[""coconut.png""]",blank.png,PB18.png,PB18.png,blank.png,blank.png,blank.png,blank.png,blank.png,blank.png,"[""coconut.png""]","[""coconut.png""]","[""coconut.png""]","[""coconut.png""]","[""coconut.png""]","[""coconut.png""]",1,"[""m&m.png""]",blank.png,blank.png,blank.png,0,blank.png,blank.png,blank.png,blank.png,blank.png,blank.png,PB01.png,,,,,,,,,,,1,,,,,,,,,,,,,3232.6240000000107,,completion,,,,,,,,,,,,,3,,,,,,,,,,,,,,,,,,,,,,,,,,,,,,,,,,,,,,,,,,,,,,,,,,,,,,,,,"[""coconut.png""]","[""m&m.png""]",,,,6,,,false,,1,,,,,,,520669.4150000112,520668.49,517419.568,517423.6449999735,517435.866,520684.802,,,,
fixCross,canvas.Screen,2_4_2_6_1_0_1_0_0_2_0,2021-05-24T16:18:22.693Z,,,blank.png,"[""m&m.png""]",blank.png,blank.png,blank.png,blank.png,blank.png,blank.png,blank.png,blank.png,blank.png,blank.png,blank.png,,,,,,,,,,,,,,,,,,,,,,,,,,,,,"[""m&m.png""]","[""coconut.png""]",PB15.png,,,,,,,,,,,0,6,"[""coconut.png""]","[""coconut.png""]","[""coconut.png""]","[""coconut.png""]","[""coconut.png""]","[""coconut.png""]",blank.png,PB18.png,PB18.png,"[""coconut.png""]","[""coconut.png""]","[""coconut.png""]","[""coconut.png""]",blank.png,blank.png,"[""coconut.png""]","[""coconut.png""]","[""coconut.png""]","[""coconut.png""]","[""coconut.png""]","[""coconut.png""]",1,"[""m&m.png""]",blank.png,blank.png,blank.png,4,"[""coconut.png""]","[""coconut.png""]","[""coconut.png""]","[""coconut.png""]",blank.png,blank.png,PB15.png,,,,,,,,,,,1,,,,,,,,,,,,,1066.2569999999832,,timeout,,,,,,,,,,,,,3,,,,,,,,,,,,,,,,,,,,,,,,,,,,,,,,,,,,,,,,,,,,,,,,,,,,,,,,,"[""coconut.png""]","[""m&m.png""]",,,,6,,,false,,1,,,,,,,521420.15000001993,521417.86,520668.49,520673.0700000189,520684.802,521751.059,10,,,
timeout,canvas.Screen,2_4_2_6_1_0_1_0_0_2_1,2021-05-24T16:18:23.508Z,,,blank.png,"[""m&m.png""]",blank.png,blank.png,blank.png,blank.png,blank.png,blank.png,blank.png,blank.png,blank.png,blank.png,blank.png,,,,,,,,,,,,,,,,,,,,,,,,,,,,,"[""m&m.png""]","[""coconut.png""]",PB15.png,,,,,,,,,,,0,6,"[""coconut.png""]","[""coconut.png""]","[""coconut.png""]","[""coconut.png""]","[""coconut.png""]","[""coconut.png""]",blank.png,PB18.png,PB18.png,"[""coconut.png""]","[""coconut.png""]","[""coconut.png""]","[""coconut.png""]",blank.png,blank.png,"[""coconut.png""]","[""coconut.png""]","[""coconut.png""]","[""coconut.png""]","[""coconut.png""]","[""coconut.png""]",1,"[""m&m.png""]",blank.png,blank.png,blank.png,4,"[""coconut.png""]","[""coconut.png""]","[""coconut.png""]","[""coconut.png""]",blank.png,blank.png,PB15.png,,,,,,,,,,,1,,,,,,,,,,,,,816.4489999999641,,timeout,,,,,,,,,,,,,3,,,,,,,,,,,,,,,,,,,,,,,,,,,,,,,,,,,,,,,,,,,,,,,,,,,,,,,,,"[""coconut.png""]","[""m&m.png""]",,,,6,,,false,,1,,,,,,,522234.9699999904,522234.284,521417.86,521740.3199999826,521751.059,522567.508,,,,
choice,canvas.Screen,2_4_2_6_1_0_1_0_0_2_2,2021-05-24T16:18:23.844Z,,,blank.png,"[""m&m.png""]",blank.png,blank.png,blank.png,blank.png,blank.png,blank.png,blank.png,blank.png,blank.png,blank.png,blank.png,,,,,,,,,,,,,,,,,,,,,,,,,,,,,"[""m&m.png""]","[""coconut.png""]",PB15.png,,,,,,,,,,,0,6,"[""coconut.png""]","[""coconut.png""]","[""coconut.png""]","[""coconut.png""]","[""coconut.png""]","[""coconut.png""]",blank.png,PB18.png,PB18.png,"[""coconut.png""]","[""coconut.png""]","[""coconut.png""]","[""coconut.png""]",blank.png,blank.png,"[""coconut.png""]","[""coconut.png""]","[""coconut.png""]","[""coconut.png""]","[""coconut.png""]","[""coconut.png""]",1,"[""m&m.png""]",blank.png,blank.png,blank.png,4,"[""coconut.png""]","[""coconut.png""]","[""coconut.png""]","[""coconut.png""]",blank.png,blank.png,PB15.png,,,,,,,,,,,1,,,,,,,,,,,,,208.67099997680634,,response,,,,,,,,,,,,,3,,,,,,,,,,,,,,,,,,,,,,,,,,,,,,,,,,,,,,,,,,,,,,,,,,,,,,,,,"[""coconut.png""]","[""m&m.png""]",,,,6,left,keydown(ArrowLeft),false,,1,,,,,,,522570.68500004243,522442.9549999768,522234.284,522556.43999995664,,522900.68,,10,,
square,canvas.Screen,2_4_2_6_1_0_1_0_0_2_3,2021-05-24T16:18:25.157Z,,,blank.png,"[""m&m.png""]",blank.png,blank.png,blank.png,blank.png,blank.png,blank.png,blank.png,blank.png,blank.png,blank.png,blank.png,,,,,,,,,,,,,,,,,,,,,,,,,,,,,"[""m&m.png""]","[""coconut.png""]",PB15.png,,,,,,,,,,,0,6,"[""coconut.png""]","[""coconut.png""]","[""coconut.png""]","[""coconut.png""]","[""coconut.png""]","[""coconut.png""]",blank.png,PB18.png,PB18.png,"[""coconut.png""]","[""coconut.png""]","[""coconut.png""]","[""coconut.png""]",blank.png,blank.png,"[""coconut.png""]","[""coconut.png""]","[""coconut.png""]","[""coconut.png""]","[""coconut.png""]","[""coconut.png""]",1,"[""m&m.png""]",blank.png,blank.png,blank.png,4,"[""coconut.png""]","[""coconut.png""]","[""coconut.png""]","[""coconut.png""]",blank.png,blank.png,PB15.png,,,,,,,,,,,1,,,#33ff3f,#808080,,,,,,,,,1000.0289999999804,,timeout,,,,,,,,,,,,,3,,,,,,,,,,,,,,,,,,,,,,,,,,,,,,,,,,,,,,,,,,,,,,,,,,,,,,,,,"[""coconut.png""]","[""m&m.png""]",,,,6,,,false,,1,,,,,black,white,523884.6299999859,523884.013,522567.508,522889.4099999452,522900.68,523900.709,,,,
