sender,sender_type,sender_id,timestamp,meta,,Blank,DownLeft1,DownLeft2,DownLeft3,DownLeft4,DownLeft5,DownLeft6,DownRight1,DownRight2,DownRight3,DownRight4,DownRight5,DownRight6,FoodHabits_Fru_item1,FoodHabits_Fru_item2,FoodHabits_Fru_item3,FoodHabits_Fru_item4,FoodHabits_Fru_item5,FoodHabits_Fru_item6,FoodHabits_Fru_item7,FoodHabits_Meat_item1,FoodHabits_Meat_item2,FoodHabits_Meat_item3,FoodHabits_Meat_item4,FoodHabits_Meat_item5,FoodHabits_Meat_item6,FoodHabits_Meat_item7,FoodHabits_Swe_item1,FoodHabits_Swe_item2,FoodHabits_Swe_item3,FoodHabits_Swe_item4,FoodHabits_Swe_item5,FoodHabits_Swe_item6,FoodHabits_Swe_item7,FoodHabits_Veg_item1,FoodHabits_Veg_item2,FoodHabits_Veg_item3,FoodHabits_Veg_item4,FoodHabits_Veg_item5,FoodHabits_Veg_item6,FoodHabits_Veg_item7,ImgA,ImgB,LeftBar,PSS_item01,PSS_item02,PSS_item03,PSS_item04,PSS_item05,PSS_item06,PSS_item07,PSS_item08,PSS_item09,PSS_item10,RefA,RefB,RefB1,RefB2,RefB3,RefB4,RefB5,RefB6,RefB7,Ref_PB,RightBar,UpLeft1,UpLeft2,UpLeft3,UpLeft4,UpLeft5,UpLeft6,UpRight1,UpRight2,UpRight3,UpRight4,UpRight5,UpRight6,VarA,VarA1,VarA2,VarA3,VarA4,VarB,VarB1,VarB2,VarB3,VarB4,VarB5,VarB6,Var_PB,attCheck_fileA,attCheck_fileB,attCheck_fileC,attCheck_fileD,attCheck_options,attCheck_valueA,attCheck_valueB,attCheck_valueC,attCheck_valueD,attention_check,block,break1,browser_name,choseL,choseR,consent_form1,consent_form2,consentconfirmation_form1,consentconfirmation_form2,correct,correctResponse,diet,disorder,duration,edu,ended_on,enjoy,full_version,gender,group,hunger,img,imgTask,input_age,input_meal,input_occ,input_remark,lateRespFeed,list,major_version,message,mixQ_item1,mixQ_item2,mixQ_item3,mixQ_item4,mixQ_item5,name,navigator_appName,navigator_userAgent,os,pracQ1_IDa,pracQ1_IDb,pracQ1_IDc,pracQ1_IDd,pracQ1_optionA,pracQ1_optionB,pracQ1_optionC,pracQ1_optionD,pracQ1_valueA,pracQ1_valueB,pracQ1_valueC,pracQ1_valueD,pracQ2_IDa,pracQ2_IDb,pracQ2_IDc,pracQ2_optionA,pracQ2_optionB,pracQ2_optionC,pracQ2_valueA,pracQ2_valueB,pracQ2_valueC,pracQ4_IDa,pracQ4_IDb,pracQ4_IDc,pracQ4_IDd,pracQ4_optionA,pracQ4_optionB,pracQ4_optionC,pracQ4_optionD,pracQ4_valueA,pracQ4_valueB,pracQ4_valueC,pracQ4_valueD,pracQ5_IDa,pracQ5_IDb,pracQ5_IDc,pracQ5_IDd,pracQ5_optionA,pracQ5_optionB,pracQ5_optionC,pracQ5_optionD,pracQ5_valueA,pracQ5_valueB,pracQ5_valueC,pracQ5_valueD,prefHealty,prefUnhealthy,prolific_ID,psessionID,pstudyID,rep,response,response_action,skip,snack,sublock,subtitle,task_difficulty,task_engagement,task_focus,textL,textR,time_commit,time_end,time_render,time_run,time_show,time_switch,trial_count,trial_countO,url,valence
Title,html.Page,0,2021-05-24T16:14:04.810Z,"{""labjs_version"":""20.2.2"",""labjs_build"":{""flavor"":""production"",""commit"":""a25486e0c714a0ae2ce03ff94b7bb6896854dcfa""},""location"":""https://run.pavlovia.org/E3lab/rebund/html/?PROLIFIC_PID=5e930386eef45e63f94b6224&STUDY_ID=60008f34cd719d13b0d706dd&SESSION_ID=60abcd859f00494363162baa"",""userAgent"":""Mozilla/5.0 (Windows NT 10.0; Win64; x64; rv:88.0) Gecko/20100101 Firefox/88.0"",""platform"":""Win32"",""language"":""pl"",""locale"":""pl-PL"",""timeZone"":""Europe/Warsaw"",""timezoneOffset"":-120,""screen_width"":1280,""screen_height"":1024,""scroll_width"":1280,""scroll_height"":872,""window_innerWidth"":1280,""window_innerHeight"":920,""devicePixelRatio"":1}",,,,,,,,,,,,,,,,,,,,,,,,,,,,,,,,,,,,,,,,,,,,,,,,,,,,,,,,,,,,,,,,,,,,,,,,,,,,,,,,,,,,,,,,,,,,,,,,,,,,,,,,,,,,,,,,,,,768602.84,,form submission,,,,,,,,,,,,,,,,,,,,,,,,,,,,,,,,,,,,,,,,,,,,,,,,,,,,,,,,,,,,,,,,,,,,,,,,,,,,,,,,,,,,,,,778382,778381,5774.08,3770,9778.16,778394.62,,,"{""PROLIFIC_PID"":""5e930386eef45e63f94b6224"",""STUDY_ID"":""60008f34cd719d13b0d706dd"",""SESSION_ID"":""60abcd859f00494363162baa""}",
get_systemInfo,canvas.Screen,1,2021-05-24T16:14:04.824Z,,,,,,,,,,,,,,,,,,,,,,,,,,,,,,,,,,,,,,,,,,,,,,,,,,,,,,,,,,,,,,,,,,,,,,,,,,,,,,,,,,,,,,,,,,,,,,,,,,,,,,,,,Firefox,,,,,,,,,,,4263.119999999995,,timeout,,88.0,,,,,,,,,,,,88,,,,,,,,Netscape,Mozilla/5.0 (Windows NT 10.0; Win64; x64; rv:88.0) Gecko/20100101 Firefox/88.0,Windows,,,,,,,,,,,,,,,,,,,,,,,,,,,,,,,,,,,,,,,,,,,,,,,,5e930386eef45e63f94b6224,,60008f34cd719d13b0d706dd,,,,,,,,,,,,,778396,778395,778381.46,778384,778394.62,782657.74,,,,
ConsentForm,html.Form,2_0,2021-05-24T16:15:50.252Z,,,,,,,,,,,,,,,,,,,,,,,,,,,,,,,,,,,,,,,,,,,,,,,,,,,,,,,,,,,,,,,,,,,,,,,,,,,,,,,,,,,,,,,,,,,,,,,,,,,,,,,,,,,,true,true,,,,,,,101166.26000000001,,form submission,,,,,,,,,,,,,,,,,,,,,,,,,,,,,,,,,,,,,,,,,,,,,,,,,,,,,,,,,,,,,,,,,,,,,,,,,,,,,,,,,,,,,,,883824,883824,778395,782653,782657.74,883842.24,,,,
PepTalk,html.Page,2_1,2021-05-24T16:16:03.004Z,,,,,,,,,,,,,,,,,,,,,,,,,,,,,,,,,,,,,,,,,,,,,,,,,,,,,,,,,,,,,,,,,,,,,,,,,,,,,,,,,,,,,,,,,,,,,,,,,,,,,,,,,,,,,,,,,,,,12731.76000000001,,form submission,,,,,,,,,,,,,,,,,,,,,,,,,,,,,,,,,,,,,,,,,,,,,,,,,,,,,,,,,,,,,,,,,,,,,,,,,,,,,,,,,,,,,,,896575,896574,883829.08,883824,883842.24,896592.34,,,,
Demographics,html.Form,2_2,2021-05-24T16:16:40.125Z,,,,,,,,,,,,,,,,,,,,,,,,,,,,,,,,,,,,,,,,,,,,,,,,,,,,,,,,,,,,,,,,,,,,,,,,,,,,,,,,,,,,,,,,,,,,,,,,,,,,,,,,,,,,,,,,,,,,37102.66000000003,2,form submission,,,2,,,,,20,,Programmer,,,,,,,,,,,,,,,,,,,,,,,,,,,,,,,,,,,,,,,,,,,,,,,,,,,,,,,,,,,,,,,,,,,,,,,,,,,,,933696,933695,896579.18,896575,896592.34,933710.72,,,,
InclusionCrit,html.Form,2_3,2021-05-24T16:16:51.300Z,,,,,,,,,,,,,,,,,,,,,,,,,,,,,,,,,,,,,,,,,,,,,,,,,,,,,,,,,,,,,,,,,,,,,,,,,,,,,,,,,,,,,,,,,,,,,,,,,,,,,,,,,,,,,,,,,,0,1,11160.280000000028,,form submission,1,,,,,,,,,,,,,,,,,,,,,,,,,,,,,,,,,,,,,,,,,,,,,,,,,,,,,,,,,,,,,,,,,,,,,,,,,,,,,,,,,,,,,,944872,944871,933697.6,933696,933710.72,944894.98,,,,
Selection,html.Page,2_4_0,2021-05-24T16:16:58.452Z,,,,,,,,,,,,,,,,,,,,,,,,,,,,,,,,,,,,,,,,,,,,,,,,,,,,,,,,,,,,,,,,,,,,,,,,,,,,,,,,,,,,,,,,,,,,,,,,,,,,,,,,,,,,,,,,,,,,7129.020000000019,,form submission,,,,,,,,,,,,,,,,,,,,,,,,,,,,,,,,,,,,,,,,,,,,,,,,,,,,,,,,,,,,,,,,,,,,,,,,,,,,,,,0,,,,,,,,952024,952024,944881.82,944872,944894.98,952039.74,,,,
Load,html.Page,2_4_1,2021-05-24T16:16:58.470Z,,,,,,,,,,,,,,,,,,,,,,,,,,,,,,,,,,,,,,,,,,,,,,,,,,,,,,,,,,,,,,,,,,,,,,,,,,,,,,,,,,,,,,,,,,,,,,,,,,,,,,,,,,,,,,,,,,,,9881.540000000037,,timeout,,,,,,,,,,,,,,,,,,,,,,,,,,,,,,,,,,,,,,,,,,,,,,,,,,,,,,,,,,,,,,,,,,,,,,,,,,,,,,,,,,,,,,,952041,952041,952026.58,952024,952039.74,961921.28,,,,
ratings_instructions,html.Screen,2_4_2_0,2021-05-24T16:18:59.960Z,,,,,,,,,,,,,,,,,,,,,,,,,,,,,,,,,,,,,,,,,,,,,,,,,,,,,,,,,,,,,,,,,,,,,,,,,,,,,,,,,,,,,,,,,,,,,,,,,,,,,,,,,,,,,,,,,,,,111590.71999999997,,response,,,,,,,,,,,,,,,,,,,,,,,,,,,,,,,,,,,,,,,,,,,,,,,,,,,,,,,,,,,,,,,,,,,,,,,,,,,,continue,keypress(Space),false,,,,,,,,,1073532,1073512,952041,961919,961921.28,1073540.76,0,0,,
fixCross,canvas.Screen,2_4_2_1_0_0,2021-05-24T16:19:00.455Z,,,,,,,,,,,,,,,,,,,,,,,,,,,,,,,,,,,,,,,,,,,,,,,,,,,,,,,,,,,,,,,,,,,,,,,,,,,,,,,,,,,,,,,,,,,,,,,,,,,,,,,,,,,,,,,,,,,,499.19999999995343,,timeout,,,,healthy,,apple.png,,,,,,,,,,,,,,,apple,,,,,,,,,,,,,,,,,,,,,,,,,,,,,,,,,,,,,,,,,,,,,,,,,,,,,,,,,false,,,,,,,,,1074027,1074026.88,1073533.46,1073533,1073540.76,1074039.96,,,,
Rating,html.Form,2_4_2_1_0_1,2021-05-24T16:19:05.389Z,,,,,,,,,,,,,,,,,,,,,,,,,,,,,,,,,,,,,,,,,,,,,,,,,,,,,,,,,,,,,,,,,,,,,,,,,,,,,,,,,,,,,,,,,,,,,,,,,,,,,,,,,,,,,,,,,,,,4920.040000000037,,form submission,,,,healthy,,apple.png,,,,,,,,,,,,,,,apple,,,,,,,,,,,,,,,,,,,,,,,,,,,,,,,,,,,,,,,,,,,,,,,,,,,,,,,,,false,,,,,,,,,1078960,1078960,1074026.88,1074027,1074039.96,1078974.26,,,,79
rating_sequence,flow.Sequence,2_4_2_1_0,2021-05-24T16:19:05.389Z,,,,,,,,,,,,,,,,,,,,,,,,,,,,,,,,,,,,,,,,,,,,,,,,,,,,,,,,,,,,,,,,,,,,,,,,,,,,,,,,,,,,,,,,,,,,,,,,,,,,,,,,,,,,,,,,,,,,5419.239999999991,,completion,,,,healthy,,apple.png,,,,,,,,,,,,,,,apple,,,,,,,,,,,,,,,,,,,,,,,,,,,,,,,,,,,,,,,,,,,,,,,,,,,,,,,,,false,,,,,,,,,1078961,1078960,1073533.46,1073533,1073540.76,1078974.26,,,,
fixCross,canvas.Screen,2_4_2_1_1_0,2021-05-24T16:19:05.891Z,,,,,,,,,,,,,,,,,,,,,,,,,,,,,,,,,,,,,,,,,,,,,,,,,,,,,,,,,,,,,,,,,,,,,,,,,,,,,,,,,,,,,,,,,,,,,,,,,,,,,,,,,,,,,,,,,,,,499.87999999988824,,timeout,,,,healthy,,grape.png,,,,,,,,,,,,,,,grape,,,,,,,,,,,,,,,,,,,,,,,,,,,,,,,,,,,,,,,,,,,,,,,,,,,,,,,,,false,,,,,,,,,1079462,1079460.98,1078961.12,1078961,1078974.26,1079474.14,,,,
Rating,html.Form,2_4_2_1_1_1,2021-05-24T16:19:09.780Z,,,,,,,,,,,,,,,,,,,,,,,,,,,,,,,,,,,,,,,,,,,,,,,,,,,,,,,,,,,,,,,,,,,,,,,,,,,,,,,,,,,,,,,,,,,,,,,,,,,,,,,,,,,,,,,,,,,,3876.8600000001024,,form submission,,,,healthy,,grape.png,,,,,,,,,,,,,,,grape,,,,,,,,,,,,,,,,,,,,,,,,,,,,,,,,,,,,,,,,,,,,,,,,,,,,,,,,,false,,,,,,,,,1083351,1083351,1079460.98,1079462,1079474.14,1083369.06,,,,32
rating_sequence,flow.Sequence,2_4_2_1_1,2021-05-24T16:19:09.780Z,,,,,,,,,,,,,,,,,,,,,,,,,,,,,,,,,,,,,,,,,,,,,,,,,,,,,,,,,,,,,,,,,,,,,,,,,,,,,,,,,,,,,,,,,,,,,,,,,,,,,,,,,,,,,,,,,,,,4376.739999999991,,completion,,,,healthy,,grape.png,,,,,,,,,,,,,,,grape,,,,,,,,,,,,,,,,,,,,,,,,,,,,,,,,,,,,,,,,,,,,,,,,,,,,,,,,,false,,,,,,,,,1083351,1083351,1078961.12,1078961,1078974.26,1083369.06,,,,
fixCross,canvas.Screen,2_4_2_1_2_0,2021-05-24T16:19:10.285Z,,,,,,,,,,,,,,,,,,,,,,,,,,,,,,,,,,,,,,,,,,,,,,,,,,,,,,,,,,,,,,,,,,,,,,,,,,,,,,,,,,,,,,,,,,,,,,,,,,,,,,,,,,,,,,,,,,,,499.87999999988824,,timeout,,,,unhealthy,,chocolate.png,,,,,,,,,,,,,,,chocolate,,,,,,,,,,,,,,,,,,,,,,,,,,,,,,,,,,,,,,,,,,,,,,,,,,,,,,,,,false,,,,,,,,,1083857,1083855.84,1083355.9,1083351,1083369.06,1083868.94,,,,
Rating,html.Form,2_4_2_1_2_1,2021-05-24T16:19:14.084Z,,,,,,,,,,,,,,,,,,,,,,,,,,,,,,,,,,,,,,,,,,,,,,,,,,,,,,,,,,,,,,,,,,,,,,,,,,,,,,,,,,,,,,,,,,,,,,,,,,,,,,,,,,,,,,,,,,,,3786.060000000056,,form submission,,,,unhealthy,,chocolate.png,,,,,,,,,,,,,,,chocolate,,,,,,,,,,,,,,,,,,,,,,,,,,,,,,,,,,,,,,,,,,,,,,,,,,,,,,,,,false,,,,,,,,,1087655,1087655,1083855.84,1083857,1083868.94,1087671.56,,,,70
rating_sequence,flow.Sequence,2_4_2_1_2,2021-05-24T16:19:14.084Z,,,,,,,,,,,,,,,,,,,,,,,,,,,,,,,,,,,,,,,,,,,,,,,,,,,,,,,,,,,,,,,,,,,,,,,,,,,,,,,,,,,,,,,,,,,,,,,,,,,,,,,,,,,,,,,,,,,,4285.939999999944,,completion,,,,unhealthy,,chocolate.png,,,,,,,,,,,,,,,chocolate,,,,,,,,,,,,,,,,,,,,,,,,,,,,,,,,,,,,,,,,,,,,,,,,,,,,,,,,,false,,,,,,,,,1087655,1087655,1083355.9,1083351,1083369.06,1087671.56,,,,
fixCross,canvas.Screen,2_4_2_1_3_0,2021-05-24T16:19:14.589Z,,,,,,,,,,,,,,,,,,,,,,,,,,,,,,,,,,,,,,,,,,,,,,,,,,,,,,,,,,,,,,,,,,,,,,,,,,,,,,,,,,,,,,,,,,,,,,,,,,,,,,,,,,,,,,,,,,,,500.04000000003725,,timeout,,,,healthy,,pear.png,,,,,,,,,,,,,,,pear,,,,,,,,,,,,,,,,,,,,,,,,,,,,,,,,,,,,,,,,,,,,,,,,,,,,,,,,,false,,,,,,,,,1088160,1088158.54,1087658.42,1087656,1087671.56,1088171.6,,,,
Rating,html.Form,2_4_2_1_3_1,2021-05-24T16:19:17.172Z,,,,,,,,,,,,,,,,,,,,,,,,,,,,,,,,,,,,,,,,,,,,,,,,,,,,,,,,,,,,,,,,,,,,,,,,,,,,,,,,,,,,,,,,,,,,,,,,,,,,,,,,,,,,,,,,,,,,2572.399999999907,,form submission,,,,healthy,,pear.png,,,,,,,,,,,,,,,pear,,,,,,,,,,,,,,,,,,,,,,,,,,,,,,,,,,,,,,,,,,,,,,,,,,,,,,,,,false,,,,,,,,,1090744,1090744,1088158.54,1088161,1088171.6,1090763.64,,,,75
rating_sequence,flow.Sequence,2_4_2_1_3,2021-05-24T16:19:17.172Z,,,,,,,,,,,,,,,,,,,,,,,,,,,,,,,,,,,,,,,,,,,,,,,,,,,,,,,,,,,,,,,,,,,,,,,,,,,,,,,,,,,,,,,,,,,,,,,,,,,,,,,,,,,,,,,,,,,,3072.439999999944,,completion,,,,healthy,,pear.png,,,,,,,,,,,,,,,pear,,,,,,,,,,,,,,,,,,,,,,,,,,,,,,,,,,,,,,,,,,,,,,,,,,,,,,,,,false,,,,,,,,,1090744,1090744,1087658.42,1087656,1087671.56,1090763.64,,,,
fixCross,canvas.Screen,2_4_2_1_4_0,2021-05-24T16:19:17.679Z,,,,,,,,,,,,,,,,,,,,,,,,,,,,,,,,,,,,,,,,,,,,,,,,,,,,,,,,,,,,,,,,,,,,,,,,,,,,,,,,,,,,,,,,,,,,,,,,,,,,,,,,,,,,,,,,,,,,500,,timeout,,,,unhealthy,,m&m.png,,,,,,,,,,,,,,,m&m,,,,,,,,,,,,,,,,,,,,,,,,,,,,,,,,,,,,,,,,,,,,,,,,,,,,,,,,,false,,,,,,,,,1091251,1091250.5,1090750.5,1090744,1090763.64,1091263.64,,,,
Rating,html.Form,2_4_2_1_4_1,2021-05-24T16:19:20.124Z,,,,,,,,,,,,,,,,,,,,,,,,,,,,,,,,,,,,,,,,,,,,,,,,,,,,,,,,,,,,,,,,,,,,,,,,,,,,,,,,,,,,,,,,,,,,,,,,,,,,,,,,,,,,,,,,,,,,2431.3600000001024,,form submission,,,,unhealthy,,m&m.png,,,,,,,,,,,,,,,m&m,,,,,,,,,,,,,,,,,,,,,,,,,,,,,,,,,,,,,,,,,,,,,,,,,,,,,,,,,false,,,,,,,,,1093696,1093695,1091250.5,1091251,1091263.64,1093711.02,,,,71
rating_sequence,flow.Sequence,2_4_2_1_4,2021-05-24T16:19:20.124Z,,,,,,,,,,,,,,,,,,,,,,,,,,,,,,,,,,,,,,,,,,,,,,,,,,,,,,,,,,,,,,,,,,,,,,,,,,,,,,,,,,,,,,,,,,,,,,,,,,,,,,,,,,,,,,,,,,,,2931.3600000001024,,completion,,,,unhealthy,,m&m.png,,,,,,,,,,,,,,,m&m,,,,,,,,,,,,,,,,,,,,,,,,,,,,,,,,,,,,,,,,,,,,,,,,,,,,,,,,,false,,,,,,,,,1093696,1093695,1090750.5,1090744,1090763.64,1093711.02,,,,
fixCross,canvas.Screen,2_4_2_1_5_0,2021-05-24T16:19:20.627Z,,,,,,,,,,,,,,,,,,,,,,,,,,,,,,,,,,,,,,,,,,,,,,,,,,,,,,,,,,,,,,,,,,,,,,,,,,,,,,,,,,,,,,,,,,,,,,,,,,,,,,,,,,,,,,,,,,,,500,,timeout,,,,unhealthy,,maltesers.png,,,,,,,,,,,,,,,malteser,,,,,,,,,,,,,,,,,,,,,,,,,,,,,,,,,,,,,,,,,,,,,,,,,,,,,,,,,false,,,,,,,,,1094199,1094197.94,1093697.88,1093696,1093711.02,1094211.02,,,,
Rating,html.Form,2_4_2_1_5_1,2021-05-24T16:19:23.443Z,,,,,,,,,,,,,,,,,,,,,,,,,,,,,,,,,,,,,,,,,,,,,,,,,,,,,,,,,,,,,,,,,,,,,,,,,,,,,,,,,,,,,,,,,,,,,,,,,,,,,,,,,,,,,,,,,,,,2803.9799999999814,,form submission,,,,unhealthy,,maltesers.png,,,,,,,,,,,,,,,malteser,,,,,,,,,,,,,,,,,,,,,,,,,,,,,,,,,,,,,,,,,,,,,,,,,,,,,,,,,false,,,,,,,,,1097015,1097015,1094197.94,1094199,1094211.02,1097040.08,,,,37
rating_sequence,flow.Sequence,2_4_2_1_5,2021-05-24T16:19:23.443Z,,,,,,,,,,,,,,,,,,,,,,,,,,,,,,,,,,,,,,,,,,,,,,,,,,,,,,,,,,,,,,,,,,,,,,,,,,,,,,,,,,,,,,,,,,,,,,,,,,,,,,,,,,,,,,,,,,,,3303.9799999999814,,completion,,,,unhealthy,,maltesers.png,,,,,,,,,,,,,,,malteser,,,,,,,,,,,,,,,,,,,,,,,,,,,,,,,,,,,,,,,,,,,,,,,,,,,,,,,,,false,,,,,,,,,1097016,1097015,1093697.88,1093696,1093711.02,1097040.08,,,,
fixCross,canvas.Screen,2_4_2_1_6_0,2021-05-24T16:19:23.956Z,,,,,,,,,,,,,,,,,,,,,,,,,,,,,,,,,,,,,,,,,,,,,,,,,,,,,,,,,,,,,,,,,,,,,,,,,,,,,,,,,,,,,,,,,,,,,,,,,,,,,,,,,,,,,,,,,,,,499.9199999999255,,timeout,,,,healthy,,strawberry.png,,,,,,,,,,,,,,,strawberry,,,,,,,,,,,,,,,,,,,,,,,,,,,,,,,,,,,,,,,,,,,,,,,,,,,,,,,,,false,,,,,,,,,1097527,1097526.86,1097026.92,1097016,1097040.08,1097540,,,,
Rating,html.Form,2_4_2_1_6_1,2021-05-24T16:19:26.172Z,,,,,,,,,,,,,,,,,,,,,,,,,,,,,,,,,,,,,,,,,,,,,,,,,,,,,,,,,,,,,,,,,,,,,,,,,,,,,,,,,,,,,,,,,,,,,,,,,,,,,,,,,,,,,,,,,,,,2203,,form submission,,,,healthy,,strawberry.png,,,,,,,,,,,,,,,strawberry,,,,,,,,,,,,,,,,,,,,,,,,,,,,,,,,,,,,,,,,,,,,,,,,,,,,,,,,,false,,,,,,,,,1099744,1099743,1097526.86,1097528,1097540,1099763.7,,,,39
rating_sequence,flow.Sequence,2_4_2_1_6,2021-05-24T16:19:26.172Z,,,,,,,,,,,,,,,,,,,,,,,,,,,,,,,,,,,,,,,,,,,,,,,,,,,,,,,,,,,,,,,,,,,,,,,,,,,,,,,,,,,,,,,,,,,,,,,,,,,,,,,,,,,,,,,,,,,,2702.9199999999255,,completion,,,,healthy,,strawberry.png,,,,,,,,,,,,,,,strawberry,,,,,,,,,,,,,,,,,,,,,,,,,,,,,,,,,,,,,,,,,,,,,,,,,,,,,,,,,false,,,,,,,,,1099744,1099743,1097026.92,1097016,1097040.08,1099763.7,,,,
fixCross,canvas.Screen,2_4_2_1_7_0,2021-05-24T16:19:26.680Z,,,,,,,,,,,,,,,,,,,,,,,,,,,,,,,,,,,,,,,,,,,,,,,,,,,,,,,,,,,,,,,,,,,,,,,,,,,,,,,,,,,,,,,,,,,,,,,,,,,,,,,,,,,,,,,,,,,,499.95999999996275,,timeout,,,,unhealthy,,chocolate_truffle.png,,,,,,,,,,,,,,,chocolate truffle,,,,,,,,,,,,,,,,,,,,,,,,,,,,,,,,,,,,,,,,,,,,,,,,,,,,,,,,,false,,,,,,,,,1100252,1100250.54,1099750.54,1099744,1099763.7,1100263.66,,,,
Rating,html.Form,2_4_2_1_7_1,2021-05-24T16:19:29.148Z,,,,,,,,,,,,,,,,,,,,,,,,,,,,,,,,,,,,,,,,,,,,,,,,,,,,,,,,,,,,,,,,,,,,,,,,,,,,,,,,,,,,,,,,,,,,,,,,,,,,,,,,,,,,,,,,,,,,2456.340000000084,,form submission,,,,unhealthy,,chocolate_truffle.png,,,,,,,,,,,,,,,chocolate truffle,,,,,,,,,,,,,,,,,,,,,,,,,,,,,,,,,,,,,,,,,,,,,,,,,,,,,,,,,false,,,,,,,,,1102720,1102720,1100250.54,1100252,1100263.66,1102737.38,,,,36
rating_sequence,flow.Sequence,2_4_2_1_7,2021-05-24T16:19:29.148Z,,,,,,,,,,,,,,,,,,,,,,,,,,,,,,,,,,,,,,,,,,,,,,,,,,,,,,,,,,,,,,,,,,,,,,,,,,,,,,,,,,,,,,,,,,,,,,,,,,,,,,,,,,,,,,,,,,,,2956.3000000000466,,completion,,,,unhealthy,,chocolate_truffle.png,,,,,,,,,,,,,,,chocolate truffle,,,,,,,,,,,,,,,,,,,,,,,,,,,,,,,,,,,,,,,,,,,,,,,,,,,,,,,,,false,,,,,,,,,1102720,1102720,1099750.54,1099744,1099763.7,1102737.38,,,,
fixCross,canvas.Screen,2_4_2_1_8_0,2021-05-24T16:19:29.654Z,,,,,,,,,,,,,,,,,,,,,,,,,,,,,,,,,,,,,,,,,,,,,,,,,,,,,,,,,,,,,,,,,,,,,,,,,,,,,,,,,,,,,,,,,,,,,,,,,,,,,,,,,,,,,,,,,,,,500,,timeout,,,,healthy,,raspberry.png,,,,,,,,,,,,,,,raspberry,,,,,,,,,,,,,,,,,,,,,,,,,,,,,,,,,,,,,,,,,,,,,,,,,,,,,,,,,false,,,,,,,,,1103225,1103224.22,1102724.22,1102720,1102737.38,1103237.38,,,,
Rating,html.Form,2_4_2_1_8_1,2021-05-24T16:19:32.860Z,,,,,,,,,,,,,,,,,,,,,,,,,,,,,,,,,,,,,,,,,,,,,,,,,,,,,,,,,,,,,,,,,,,,,,,,,,,,,,,,,,,,,,,,,,,,,,,,,,,,,,,,,,,,,,,,,,,,3193.6200000001118,,form submission,,,,healthy,,raspberry.png,,,,,,,,,,,,,,,raspberry,,,,,,,,,,,,,,,,,,,,,,,,,,,,,,,,,,,,,,,,,,,,,,,,,,,,,,,,,false,,,,,,,,,1106432,1106431,1103224.22,1103226,1103237.38,1106447.92,,,,57
rating_sequence,flow.Sequence,2_4_2_1_8,2021-05-24T16:19:32.860Z,,,,,,,,,,,,,,,,,,,,,,,,,,,,,,,,,,,,,,,,,,,,,,,,,,,,,,,,,,,,,,,,,,,,,,,,,,,,,,,,,,,,,,,,,,,,,,,,,,,,,,,,,,,,,,,,,,,,3693.6200000001118,,completion,,,,healthy,,raspberry.png,,,,,,,,,,,,,,,raspberry,,,,,,,,,,,,,,,,,,,,,,,,,,,,,,,,,,,,,,,,,,,,,,,,,,,,,,,,,false,,,,,,,,,1106432,1106431,1102724.22,1102720,1102737.38,1106447.92,,,,
fixCross,canvas.Screen,2_4_2_1_9_0,2021-05-24T16:19:33.363Z,,,,,,,,,,,,,,,,,,,,,,,,,,,,,,,,,,,,,,,,,,,,,,,,,,,,,,,,,,,,,,,,,,,,,,,,,,,,,,,,,,,,,,,,,,,,,,,,,,,,,,,,,,,,,,,,,,,,499.9799999999814,,timeout,,,,unhealthy,,liqorice.png,,,,,,,,,,,,,,,liquorice,,,,,,,,,,,,,,,,,,,,,,,,,,,,,,,,,,,,,,,,,,,,,,,,,,,,,,,,,false,,,,,,,,,1106935,1106934.76,1106434.78,1106432,1106447.92,1106947.9,,,,
Rating,html.Form,2_4_2_1_9_1,2021-05-24T16:19:37.003Z,,,,,,,,,,,,,,,,,,,,,,,,,,,,,,,,,,,,,,,,,,,,,,,,,,,,,,,,,,,,,,,,,,,,,,,,,,,,,,,,,,,,,,,,,,,,,,,,,,,,,,,,,,,,,,,,,,,,3627.100000000093,,form submission,,,,unhealthy,,liqorice.png,,,,,,,,,,,,,,,liquorice,,,,,,,,,,,,,,,,,,,,,,,,,,,,,,,,,,,,,,,,,,,,,,,,,,,,,,,,,false,,,,,,,,,1110576,1110575,1106934.76,1106935,1106947.9,1110592.62,,,,15
rating_sequence,flow.Sequence,2_4_2_1_9,2021-05-24T16:19:37.003Z,,,,,,,,,,,,,,,,,,,,,,,,,,,,,,,,,,,,,,,,,,,,,,,,,,,,,,,,,,,,,,,,,,,,,,,,,,,,,,,,,,,,,,,,,,,,,,,,,,,,,,,,,,,,,,,,,,,,4127.0800000000745,,completion,,,,unhealthy,,liqorice.png,,,,,,,,,,,,,,,liquorice,,,,,,,,,,,,,,,,,,,,,,,,,,,,,,,,,,,,,,,,,,,,,,,,,,,,,,,,,false,,,,,,,,,1110576,1110575,1106434.78,1106432,1106447.92,1110592.62,,,,
fixCross,canvas.Screen,2_4_2_1_10_0,2021-05-24T16:19:37.509Z,,,,,,,,,,,,,,,,,,,,,,,,,,,,,,,,,,,,,,,,,,,,,,,,,,,,,,,,,,,,,,,,,,,,,,,,,,,,,,,,,,,,,,,,,,,,,,,,,,,,,,,,,,,,,,,,,,,,500,,timeout,,,,unhealthy,,marshmallow.png,,,,,,,,,,,,,,,marshmallow,,,,,,,,,,,,,,,,,,,,,,,,,,,,,,,,,,,,,,,,,,,,,,,,,,,,,,,,,false,,,,,,,,,1111080,1111079.48,1110579.48,1110576,1110592.62,1111092.62,,,,
Rating,html.Form,2_4_2_1_10_1,2021-05-24T16:19:39.732Z,,,,,,,,,,,,,,,,,,,,,,,,,,,,,,,,,,,,,,,,,,,,,,,,,,,,,,,,,,,,,,,,,,,,,,,,,,,,,,,,,,,,,,,,,,,,,,,,,,,,,,,,,,,,,,,,,,,,2210.3799999998882,,form submission,,,,unhealthy,,marshmallow.png,,,,,,,,,,,,,,,marshmallow,,,,,,,,,,,,,,,,,,,,,,,,,,,,,,,,,,,,,,,,,,,,,,,,,,,,,,,,,false,,,,,,,,,1113303,1113303,1111079.48,1111080,1111092.62,1113316.3,,,,63
rating_sequence,flow.Sequence,2_4_2_1_10,2021-05-24T16:19:39.732Z,,,,,,,,,,,,,,,,,,,,,,,,,,,,,,,,,,,,,,,,,,,,,,,,,,,,,,,,,,,,,,,,,,,,,,,,,,,,,,,,,,,,,,,,,,,,,,,,,,,,,,,,,,,,,,,,,,,,2710.3799999998882,,completion,,,,unhealthy,,marshmallow.png,,,,,,,,,,,,,,,marshmallow,,,,,,,,,,,,,,,,,,,,,,,,,,,,,,,,,,,,,,,,,,,,,,,,,,,,,,,,,false,,,,,,,,,1113303,1113303,1110579.48,1110576,1110592.62,1113316.3,,,,
fixCross,canvas.Screen,2_4_2_1_11_0,2021-05-24T16:19:40.233Z,,,,,,,,,,,,,,,,,,,,,,,,,,,,,,,,,,,,,,,,,,,,,,,,,,,,,,,,,,,,,,,,,,,,,,,,,,,,,,,,,,,,,,,,,,,,,,,,,,,,,,,,,,,,,,,,,,,,500,,timeout,,,,unhealthy,,candy.png,,,,,,,,,,,,,,,candy,,,,,,,,,,,,,,,,,,,,,,,,,,,,,,,,,,,,,,,,,,,,,,,,,,,,,,,,,false,,,,,,,,,1113804,1113803.14,1113303.14,1113303,1113316.3,1113816.3,,,,
Rating,html.Form,2_4_2_1_11_1,2021-05-24T16:19:42.852Z,,,,,,,,,,,,,,,,,,,,,,,,,,,,,,,,,,,,,,,,,,,,,,,,,,,,,,,,,,,,,,,,,,,,,,,,,,,,,,,,,,,,,,,,,,,,,,,,,,,,,,,,,,,,,,,,,,,,2606.6999999999534,,form submission,,,,unhealthy,,candy.png,,,,,,,,,,,,,,,candy,,,,,,,,,,,,,,,,,,,,,,,,,,,,,,,,,,,,,,,,,,,,,,,,,,,,,,,,,false,,,,,,,,,1116424,1116423,1113803.14,1113805,1113816.3,1116447.88,,,,41
rating_sequence,flow.Sequence,2_4_2_1_11,2021-05-24T16:19:42.852Z,,,,,,,,,,,,,,,,,,,,,,,,,,,,,,,,,,,,,,,,,,,,,,,,,,,,,,,,,,,,,,,,,,,,,,,,,,,,,,,,,,,,,,,,,,,,,,,,,,,,,,,,,,,,,,,,,,,,3106.6999999999534,,completion,,,,unhealthy,,candy.png,,,,,,,,,,,,,,,candy,,,,,,,,,,,,,,,,,,,,,,,,,,,,,,,,,,,,,,,,,,,,,,,,,,,,,,,,,false,,,,,,,,,1116424,1116423,1113303.14,1113303,1113316.3,1116447.88,,,,
fixCross,canvas.Screen,2_4_2_1_12_0,2021-05-24T16:19:43.364Z,,,,,,,,,,,,,,,,,,,,,,,,,,,,,,,,,,,,,,,,,,,,,,,,,,,,,,,,,,,,,,,,,,,,,,,,,,,,,,,,,,,,,,,,,,,,,,,,,,,,,,,,,,,,,,,,,,,,500,,timeout,,,,healthy,,cherry.png,,,,,,,,,,,,,,,cherry,,,,,,,,,,,,,,,,,,,,,,,,,,,,,,,,,,,,,,,,,,,,,,,,,,,,,,,,,false,,,,,,,,,1116936,1116934.72,1116434.72,1116424,1116447.88,1116947.88,,,,
Rating,html.Form,2_4_2_1_12_1,2021-05-24T16:19:45.652Z,,,,,,,,,,,,,,,,,,,,,,,,,,,,,,,,,,,,,,,,,,,,,,,,,,,,,,,,,,,,,,,,,,,,,,,,,,,,,,,,,,,,,,,,,,,,,,,,,,,,,,,,,,,,,,,,,,,,2276.1200000001118,,form submission,,,,healthy,,cherry.png,,,,,,,,,,,,,,,cherry,,,,,,,,,,,,,,,,,,,,,,,,,,,,,,,,,,,,,,,,,,,,,,,,,,,,,,,,,false,,,,,,,,,1119224,1119224,1116934.72,1116936,1116947.88,1119237.46,,,,69
rating_sequence,flow.Sequence,2_4_2_1_12,2021-05-24T16:19:45.652Z,,,,,,,,,,,,,,,,,,,,,,,,,,,,,,,,,,,,,,,,,,,,,,,,,,,,,,,,,,,,,,,,,,,,,,,,,,,,,,,,,,,,,,,,,,,,,,,,,,,,,,,,,,,,,,,,,,,,2776.1200000001118,,completion,,,,healthy,,cherry.png,,,,,,,,,,,,,,,cherry,,,,,,,,,,,,,,,,,,,,,,,,,,,,,,,,,,,,,,,,,,,,,,,,,,,,,,,,,false,,,,,,,,,1119224,1119224,1116434.72,1116424,1116447.88,1119237.46,,,,
fixCross,canvas.Screen,2_4_2_1_13_0,2021-05-24T16:19:46.154Z,,,,,,,,,,,,,,,,,,,,,,,,,,,,,,,,,,,,,,,,,,,,,,,,,,,,,,,,,,,,,,,,,,,,,,,,,,,,,,,,,,,,,,,,,,,,,,,,,,,,,,,,,,,,,,,,,,,,499.9199999999255,,timeout,,,,unhealthy,,gummybear.png,,,,,,,,,,,,,,,gummybear,,,,,,,,,,,,,,,,,,,,,,,,,,,,,,,,,,,,,,,,,,,,,,,,,,,,,,,,,false,,,,,,,,,1119726,1119724.22,1119224.3,1119224,1119237.46,1119737.38,,,,
Rating,html.Form,2_4_2_1_13_1,2021-05-24T16:19:48.467Z,,,,,,,,,,,,,,,,,,,,,,,,,,,,,,,,,,,,,,,,,,,,,,,,,,,,,,,,,,,,,,,,,,,,,,,,,,,,,,,,,,,,,,,,,,,,,,,,,,,,,,,,,,,,,,,,,,,,2301.6200000001118,,form submission,,,,unhealthy,,gummybear.png,,,,,,,,,,,,,,,gummybear,,,,,,,,,,,,,,,,,,,,,,,,,,,,,,,,,,,,,,,,,,,,,,,,,,,,,,,,,false,,,,,,,,,1122039,1122039,1119724.22,1119726,1119737.38,1122053.18,,,,65
rating_sequence,flow.Sequence,2_4_2_1_13,2021-05-24T16:19:48.467Z,,,,,,,,,,,,,,,,,,,,,,,,,,,,,,,,,,,,,,,,,,,,,,,,,,,,,,,,,,,,,,,,,,,,,,,,,,,,,,,,,,,,,,,,,,,,,,,,,,,,,,,,,,,,,,,,,,,,2801.5400000000373,,completion,,,,unhealthy,,gummybear.png,,,,,,,,,,,,,,,gummybear,,,,,,,,,,,,,,,,,,,,,,,,,,,,,,,,,,,,,,,,,,,,,,,,,,,,,,,,,false,,,,,,,,,1122039,1122039,1119224.3,1119224,1119237.46,1122053.18,,,,
fixCross,canvas.Screen,2_4_2_1_14_0,2021-05-24T16:19:48.970Z,,,,,,,,,,,,,,,,,,,,,,,,,,,,,,,,,,,,,,,,,,,,,,,,,,,,,,,,,,,,,,,,,,,,,,,,,,,,,,,,,,,,,,,,,,,,,,,,,,,,,,,,,,,,,,,,,,,,500,,timeout,,,,healthy,,blueberry.png,,,,,,,,,,,,,,,blueberry,,,,,,,,,,,,,,,,,,,,,,,,,,,,,,,,,,,,,,,,,,,,,,,,,,,,,,,,,false,,,,,,,,,1122541,1122540.04,1122040.04,1122040,1122053.18,1122553.18,,,,
Rating,html.Form,2_4_2_1_14_1,2021-05-24T16:19:51.596Z,,,,,,,,,,,,,,,,,,,,,,,,,,,,,,,,,,,,,,,,,,,,,,,,,,,,,,,,,,,,,,,,,,,,,,,,,,,,,,,,,,,,,,,,,,,,,,,,,,,,,,,,,,,,,,,,,,,,2613.820000000065,,form submission,,,,healthy,,blueberry.png,,,,,,,,,,,,,,,blueberry,,,,,,,,,,,,,,,,,,,,,,,,,,,,,,,,,,,,,,,,,,,,,,,,,,,,,,,,,false,,,,,,,,,1125168,1125167,1122540.04,1122541,1122553.18,1125184.88,,,,67
rating_sequence,flow.Sequence,2_4_2_1_14,2021-05-24T16:19:51.596Z,,,,,,,,,,,,,,,,,,,,,,,,,,,,,,,,,,,,,,,,,,,,,,,,,,,,,,,,,,,,,,,,,,,,,,,,,,,,,,,,,,,,,,,,,,,,,,,,,,,,,,,,,,,,,,,,,,,,3113.820000000065,,completion,,,,healthy,,blueberry.png,,,,,,,,,,,,,,,blueberry,,,,,,,,,,,,,,,,,,,,,,,,,,,,,,,,,,,,,,,,,,,,,,,,,,,,,,,,,false,,,,,,,,,1125168,1125167,1122040.04,1122040,1122053.18,1125184.88,,,,
fixCross,canvas.Screen,2_4_2_1_15_0,2021-05-24T16:19:52.101Z,,,,,,,,,,,,,,,,,,,,,,,,,,,,,,,,,,,,,,,,,,,,,,,,,,,,,,,,,,,,,,,,,,,,,,,,,,,,,,,,,,,,,,,,,,,,,,,,,,,,,,,,,,,,,,,,,,,,499.8800000001211,,timeout,,,,healthy,,coconut.png,,,,,,,,,,,,,,,coconut,,,,,,,,,,,,,,,,,,,,,,,,,,,,,,,,,,,,,,,,,,,,,,,,,,,,,,,,,false,,,,,,,,,1125673,1125671.6,1125171.74,1125168,1125184.88,1125684.76,,,,
Rating,html.Form,2_4_2_1_15_1,2021-05-24T16:19:54.244Z,,,,,,,,,,,,,,,,,,,,,,,,,,,,,,,,,,,,,,,,,,,,,,,,,,,,,,,,,,,,,,,,,,,,,,,,,,,,,,,,,,,,,,,,,,,,,,,,,,,,,,,,,,,,,,,,,,,,2131.2399999999907,,form submission,,,,healthy,,coconut.png,,,,,,,,,,,,,,,coconut,,,,,,,,,,,,,,,,,,,,,,,,,,,,,,,,,,,,,,,,,,,,,,,,,,,,,,,,,false,,,,,,,,,1127816,1127816,1125671.6,1125673,1125684.76,1127829.54,,,,67
rating_sequence,flow.Sequence,2_4_2_1_15,2021-05-24T16:19:54.244Z,,,,,,,,,,,,,,,,,,,,,,,,,,,,,,,,,,,,,,,,,,,,,,,,,,,,,,,,,,,,,,,,,,,,,,,,,,,,,,,,,,,,,,,,,,,,,,,,,,,,,,,,,,,,,,,,,,,,2631.1200000001118,,completion,,,,healthy,,coconut.png,,,,,,,,,,,,,,,coconut,,,,,,,,,,,,,,,,,,,,,,,,,,,,,,,,,,,,,,,,,,,,,,,,,,,,,,,,,false,,,,,,,,,1127816,1127816,1125171.74,1125168,1125184.88,1127829.54,,,,
fixCross,canvas.Screen,2_4_2_1_16_0,2021-05-24T16:19:54.746Z,,,,,,,,,,,,,,,,,,,,,,,,,,,,,,,,,,,,,,,,,,,,,,,,,,,,,,,,,,,,,,,,,,,,,,,,,,,,,,,,,,,,,,,,,,,,,,,,,,,,,,,,,,,,,,,,,,,,500,,timeout,,,,healthy,,orange.png,,,,,,,,,,,,,,,orange,,,,,,,,,,,,,,,,,,,,,,,,,,,,,,,,,,,,,,,,,,,,,,,,,,,,,,,,,false,,,,,,,,,1128318,1128316.4,1127816.38,1127816,1127829.54,1128329.54,,,,
Rating,html.Form,2_4_2_1_16_1,2021-05-24T16:19:57.532Z,,,,,,,,,,,,,,,,,,,,,,,,,,,,,,,,,,,,,,,,,,,,,,,,,,,,,,,,,,,,,,,,,,,,,,,,,,,,,,,,,,,,,,,,,,,,,,,,,,,,,,,,,,,,,,,,,,,,2774.4599999999627,,form submission,,,,healthy,,orange.png,,,,,,,,,,,,,,,orange,,,,,,,,,,,,,,,,,,,,,,,,,,,,,,,,,,,,,,,,,,,,,,,,,,,,,,,,,false,,,,,,,,,1131104,1131104,1128316.4,1128318,1128329.54,1131118.98,,,,33
rating_sequence,flow.Sequence,2_4_2_1_16,2021-05-24T16:19:57.532Z,,,,,,,,,,,,,,,,,,,,,,,,,,,,,,,,,,,,,,,,,,,,,,,,,,,,,,,,,,,,,,,,,,,,,,,,,,,,,,,,,,,,,,,,,,,,,,,,,,,,,,,,,,,,,,,,,,,,3274.4599999999627,,completion,,,,healthy,,orange.png,,,,,,,,,,,,,,,orange,,,,,,,,,,,,,,,,,,,,,,,,,,,,,,,,,,,,,,,,,,,,,,,,,,,,,,,,,false,,,,,,,,,1131104,1131104,1127816.38,1127816,1127829.54,1131118.98,,,,
fixCross,canvas.Screen,2_4_2_1_17_0,2021-05-24T16:19:58.035Z,,,,,,,,,,,,,,,,,,,,,,,,,,,,,,,,,,,,,,,,,,,,,,,,,,,,,,,,,,,,,,,,,,,,,,,,,,,,,,,,,,,,,,,,,,,,,,,,,,,,,,,,,,,,,,,,,,,,500,,timeout,,,,unhealthy,,praline.png,,,,,,,,,,,,,,,praline,,,,,,,,,,,,,,,,,,,,,,,,,,,,,,,,,,,,,,,,,,,,,,,,,,,,,,,,,false,,,,,,,,,1131607,1131605.82,1131105.82,1131104,1131118.98,1131618.98,,,,
Rating,html.Form,2_4_2_1_17_1,2021-05-24T16:20:02.701Z,,,,,,,,,,,,,,,,,,,,,,,,,,,,,,,,,,,,,,,,,,,,,,,,,,,,,,,,,,,,,,,,,,,,,,,,,,,,,,,,,,,,,,,,,,,,,,,,,,,,,,,,,,,,,,,,,,,,4653.020000000019,,form submission,,,,unhealthy,,praline.png,,,,,,,,,,,,,,,praline,,,,,,,,,,,,,,,,,,,,,,,,,,,,,,,,,,,,,,,,,,,,,,,,,,,,,,,,,false,,,,,,,,,1136273,1136272,1131605.82,1131607,1131618.98,1136290.06,,,,63
rating_sequence,flow.Sequence,2_4_2_1_17,2021-05-24T16:20:02.702Z,,,,,,,,,,,,,,,,,,,,,,,,,,,,,,,,,,,,,,,,,,,,,,,,,,,,,,,,,,,,,,,,,,,,,,,,,,,,,,,,,,,,,,,,,,,,,,,,,,,,,,,,,,,,,,,,,,,,5153.020000000019,,completion,,,,unhealthy,,praline.png,,,,,,,,,,,,,,,praline,,,,,,,,,,,,,,,,,,,,,,,,,,,,,,,,,,,,,,,,,,,,,,,,,,,,,,,,,false,,,,,,,,,1136274,1136272,1131105.82,1131104,1131118.98,1136290.06,,,,
rating_loop,flow.Loop,2_4_2_1,2021-05-24T16:20:02.702Z,,,,,,,,,,,,,,,,,,,,,,,,,,,,,,,,,,,,,,,,,,,,,,,,,,,,,,,,,,,,,,,,,,,,,,,,,,,,,,,,,,,,,,,,,,,,,,,,,,,,,,,,,,,,,,,,,,,,62731.23999999999,,completion,,,,,,,,,,,,,,,,,,,,,,,,,,,,,,,,,,,,,,,,,,,,,,,,,,,,,,,,,,,,,,,,,,,,,,,,,,,,,,false,,,,,,,,,1136274,1136272,1073533.46,1073532,1073540.76,1136290.06,,,,
data_transmission,html.Screen,2_4_2_2,2021-05-24T16:20:02.704Z,,,,,,,,,,,,,,,,,,,,,,,,,,,,,,,,,,,,,,,,,,,,,,,,,,,,,,,,,,,,,,,,,,,,,,,,,,,,,,,,,,,,,,,,,,,,,,,,,,,,,,,,,,,,,,,,,,,,NaN,,no compatible backend,,,,,,,,,,,,,,,Transferring data,,,,,,,,,,,,,,,,,,,,,,,,,,,,,,,,,,,,,,,,,,,,,,,,,,,,,,,,,,,,,,,false,,,Please wait a second…,,,,,,1136275,1136275,,1136274,,1136290.06,,,,
instructions,html.Screen,2_4_2_3,2021-05-24T16:22:00.171Z,,,,,,,,,,,,,,,,,,,,,,,,,,,,,,,,,,,,,,,,,,,,,,,,,,,,,,,,,,,,,,,,,,,,,,,,,,,,,,,,,,,,,,,,,,,,,,,,,,,,,,,,,,,,,,,,,,,,117452.93999999994,,done,,,,,,,,,,,,,,,,,,,,,,,,,,,,,,,,,,,,,,,,,,,,,,,,,,,,,,,,,,,,,,,,,,,,,,,,,,,,,,false,,,,,,,,,1253744,1253743,1136276.9,1136276,1136290.06,1253750.9,,,,
Q1,html.Screen,2_4_2_4_0,2021-05-24T16:22:06.868Z,,,,,,,,,,,,,,,,,,,,,,,,,,,,,,,,,,,,,,,,,,,,,,,,,,,,,,,,,,,,,,,,,,,,,,,,,,,,,,,,,,,,,,,,,,,,,,,,,,,,,,,,,,,,,,,,false,input_Q1==3,,,6683.100000000093,,response,,,,,,,,,,,,,,,,,,,,,,,,,Q1_i2,Q1_i4,Q1_i1,Q1_i3,2,4,1,3,false,false,false,correct,,,,,,,,,,,,,,,,,,,,,,,,,,,,,,,,,,,,,,,,,click #Q1_i3,false,,,,,,,,,1260440,1260434,1253744.62,1253745,1253750.9,1260461.46,,,,
Q1_correct,html.Screen,2_4_2_4_1,2021-05-24T16:22:08.486Z,,,,,,,,,,,,,,,,,,,,,,,,,,,,,,,,,,,,,,,,,,,,,,,,,,,,,,,,,,,,,,,,,,,,,,,,,,,,,,,,,,,,,,,,,,,,,,,,,,,,,,,,,,,,,,,,,,,,1581.5400000000373,,response,,,,,,,,,,,,,,,,,,,,,,,,,,,,,,,,,,,,,,,,,,,,,,,,,,,,,,,,,,,,,,,,,,,,,,,,,,,,,keypress,false,,,,,,,,,1262057,1262043,1260448.42,1260440,1260461.46,1262066.66,,,,
Q2,html.Screen,2_4_2_4_2,2021-05-24T16:22:14.340Z,,,,,,,,,,,,,,,,,,,,,,,,,,,,,,,,,,,,,,,,,,,,,,,,,,,,,,,,,,,,,,,,,,,,,,,,,,,,,,,,,,,,,,,,,,,,,,,,,,,,,,,,,,,,,,,,,,,,5836.340000000084,,response,,,,,,,,,,,,,,,,,,,,,,,,,,,,,,,,,,,,,Q2_i2,Q2_i3,Q2_i1,Option 2,Same amount,Option 1,opt2,same,correct,,,,,,,,,,,,,,,,,,,,,,,,,,,,,,,,click #Q2_i1,false,,,,,,,,,1267912,1267903,1262059.08,1262058,1262066.66,1267935.16,,,,
Q2_correct,html.Screen,2_4_2_4_3,2021-05-24T16:22:16.333Z,,,,,,,,,,,,,,,,,,,,,,,,,,,,,,,,,,,,,,,,,,,,,,,,,,,,,,,,,,,,,,,,,,,,,,,,,,,,,,,,,,,,,,,,,,,,,,,,,,,,,,,,,,,,,,,,,,,,1951.8400000000838,,response,,,,,,,,,,,,,,,,,,,,,,,,,,,,,,,,,,,,,,,,,,,,,,,,,,,,,,,,,,,,,,,,,,,,,,,,,,,,,keypress,false,,,,,,,,,1269905,1269887,1267922,1267912,1267935.16,1269921.88,,,,
Q4,html.Screen,2_4_2_4_4,2021-05-24T16:22:24.747Z,,,,,,,,,,,,,,,,,,,,,,,,,,,,,,,,,,,,,,,,,,,,,,,,,,,,,,,,,,,,,,,,,,,,,,,,,,,,,,,,,,,,,,,,,,,,,,,,,,,,,,,,,,,,,,,,,,,,8388.120000000112,,response,,,,,,,,,,,,,,,,,,,,,,,,,,,,,,,,,,,,,,,,,,,,,,Q4_i2,Q4_i4,Q4_i1,Q4_i3,Indicate the number of food items in each snack option,Press the space key,Press the arrow key that corresponds with the snack option I prefer,Press the arrow key that corresponds with the snack option with more food items,indicate,pressspace,correct,morefood,,,,,,,,,,,,,,,,,,,,click #Q4_i1,false,,,,,,,,,1278320,1278310,1269908.88,1269906,1269921.88,1278343.06,,,,
Q4_correct,html.Screen,2_4_2_4_5,2021-05-24T16:22:26.012Z,,,,,,,,,,,,,,,,,,,,,,,,,,,,,,,,,,,,,,,,,,,,,,,,,,,,,,,,,,,,,,,,,,,,,,,,,,,,,,,,,,,,,,,,,,,,,,,,,,,,,,,,,,,,,,,,,,,,1231.9399999999441,,response,,,,,,,,,,,,,,,,,,,,,,,,,,,,,,,,,,,,,,,,,,,,,,,,,,,,,,,,,,,,,,,,,,,,,,,,,,,,,keypress,false,,,,,,,,,1279584,1279575,1278329.9,1278320,1278343.06,1279593.02,,,,
Q5,html.Screen,2_4_2_4_6,2021-05-24T16:22:34.724Z,,,,,,,,,,,,,,,,,,,,,,,,,,,,,,,,,,,,,,,,,,,,,,,,,,,,,,,,,,,,,,,,,,,,,,,,,,,,,,,,,,,,,,,,,,,,,,,,,,,,,,,,,,,,,,,,,,,,8683.979999999981,,response,,,,,,,,,,,,,,,,,,,,,,,,,,,,,,,,,,,,,,,,,,,,,,,,,,,,,,,,,,Q5_i2,Q5_i4,Q5_i1,Q5_i3,There are more pieces of chocolate in snack Option 2,Snack Option 1 has been chosen,Snack Option 2 has been chosen,There are more slices of kiwi in snack Option 1,morechoc2,chose1,correct,morekiwi1,,,,,,,,click #Q5_i1,false,,,,,,,,,1288295,1288277,1279584.28,1279584,1279593.02,1288316.76,,,,
Q5_correct,html.Screen,2_4_2_4_7,2021-05-24T16:22:35.414Z,,,,,,,,,,,,,,,,,,,,,,,,,,,,,,,,,,,,,,,,,,,,,,,,,,,,,,,,,,,,,,,,,,,,,,,,,,,,,,,,,,,,,,,,,,,,,,,,,,,,,,,,,,,,,,,,,,,,663.2399999999907,,response,,,,,,,,,,,,,,,,,,,,,,,,,,,,,,,,,,,,,,,,,,,,,,,,,,,,,,,,,,,,,,,,,,,,,,,,,,,,,keypress,false,,,,,,,,,1288986,1288980,1288303.6,1288295,1288316.76,1288987.84,,,,
practice_sequence,flow.Sequence,2_4_2_4,2021-05-24T16:22:35.414Z,,,,,,,,,,,,,,,,,,,,,,,,,,,,,,,,,,,,,,,,,,,,,,,,,,,,,,,,,,,,,,,,,,,,,,,,,,,,,,,,,,,,,,,,,,,,,,,,,,,,,,,,,,,,,,,,,,,,35229.10000000009,,completion,,,,,,,,,,,,,,,,,,,,,,,,,,,,,,,,,,,,,,,,,,,,,,,,,,,,,,,,,,,,,,,,,,,,,,,,,,,,,,false,,,,,,,,,1288986,1288980,1253744.62,1253745,1253750.9,1288987.84,,,,
final_instru,html.Screen,2_4_2_5,2021-05-24T16:24:12.374Z,,,,,,,,,,,,,,,,,,,,,,,,,,,,,,,,,,,,,,,,,,,,,,,,,,,,,,,,,,,,,,,,,,,,,,,,,,,,,,,,,,,,,,,,,,,,,,,,,,,,,,,,,,,,,,,,,,,,96957.15999999992,,done,,,,,,,,,,,,,,,,,,,,,,,,,,,,,,,,,,,,,,,,,,,,,,,,,,,,,,,,,,,,,,,,,,,,,,,,,,,,,,false,,,,,,,,,1385946,1385945,1288986.24,1288986,1288987.84,1385961.7,,,,
blank_screen,canvas.Screen,2_4_2_6_0,2021-05-24T16:24:14.378Z,,,,,,,,,,,,,,,,,,,,,,,,,,,,,,,,,,,,,,,,,,,,,,,,,,,,,,,,,,,,,,,,,,,,,,,,,,,,,,,,,,,,,,,,,,,,,,,,,,,,,,,,,,,,,,,,,,,,2013.1400000001304,,timeout,,,,,,,,,,,,,,,,,,,,,,,,,,,,,,,,,,,,,,,,,,,,,,,,,,,,,,,,,,,,,,,,,,,,,,,,,,,,,,false,,,,,,,,,1387949,1387948.52,1385948.54,1385947,1385961.7,1387974.84,,,,
fixCross,canvas.Screen,2_4_2_6_1_0_0_0_0_0_0,2021-05-24T16:24:14.785Z,,,blank.png,blank.png,blank.png,blank.png,blank.png,blank.png,blank.png,"[""m&m.png""]",blank.png,blank.png,blank.png,blank.png,blank.png,,,,,,,,,,,,,,,,,,,,,,,,,,,,,"[""m&m.png""]","[""apple.png""]",PB18.png,,,,,,,,,,,0,6,"[""apple.png""]","[""apple.png""]","[""apple.png""]","[""apple.png""]","[""apple.png""]","[""apple.png""]",blank.png,PB18.png,PB17.png,"[""apple.png""]","[""apple.png""]","[""apple.png""]","[""apple.png""]","[""apple.png""]","[""apple.png""]","[""apple.png""]","[""apple.png""]","[""apple.png""]","[""apple.png""]","[""apple.png""]","[""apple.png""]",1,"[""m&m.png""]",blank.png,blank.png,blank.png,6,"[""apple.png""]","[""apple.png""]","[""apple.png""]","[""apple.png""]","[""apple.png""]","[""apple.png""]",PB17.png,,,,,,,,,,,1,,,,,,,,,,,,,697.3599999998696,,timeout,,,,,,,,,,,,,4,,,,,,,,,,,,,,,,,,,,,,,,,,,,,,,,,,,,,,,,,,,,,,,,,,,,,,,,,"[""apple.png""]","[""m&m.png""]",,,,1,,,false,,1,,,,,,,1388357,1388356.42,1387948.52,1387977,1387974.84,1388672.2,1,,,
timeout,canvas.Screen,2_4_2_6_1_0_0_0_0_0_1,2021-05-24T16:24:15.589Z,,,blank.png,blank.png,blank.png,blank.png,blank.png,blank.png,blank.png,"[""m&m.png""]",blank.png,blank.png,blank.png,blank.png,blank.png,,,,,,,,,,,,,,,,,,,,,,,,,,,,,"[""m&m.png""]","[""apple.png""]",PB18.png,,,,,,,,,,,0,6,"[""apple.png""]","[""apple.png""]","[""apple.png""]","[""apple.png""]","[""apple.png""]","[""apple.png""]",blank.png,PB18.png,PB17.png,"[""apple.png""]","[""apple.png""]","[""apple.png""]","[""apple.png""]","[""apple.png""]","[""apple.png""]","[""apple.png""]","[""apple.png""]","[""apple.png""]","[""apple.png""]","[""apple.png""]","[""apple.png""]",1,"[""m&m.png""]",blank.png,blank.png,blank.png,6,"[""apple.png""]","[""apple.png""]","[""apple.png""]","[""apple.png""]","[""apple.png""]","[""apple.png""]",PB17.png,,,,,,,,,,,1,,,,,,,,,,,,,789.4000000001397,,timeout,,,,,,,,,,,,,4,,,,,,,,,,,,,,,,,,,,,,,,,,,,,,,,,,,,,,,,,,,,,,,,,,,,,,,,,"[""apple.png""]","[""m&m.png""]",,,,1,,,false,,1,,,,,,,1389160,1389159.08,1388356.42,1388666,1388672.2,1389461.6,,,,
choice,canvas.Screen,2_4_2_6_1_0_0_0_0_0_2,2021-05-24T16:24:17.517Z,,,blank.png,blank.png,blank.png,blank.png,blank.png,blank.png,blank.png,"[""m&m.png""]",blank.png,blank.png,blank.png,blank.png,blank.png,,,,,,,,,,,,,,,,,,,,,,,,,,,,,"[""m&m.png""]","[""apple.png""]",PB18.png,,,,,,,,,,,0,6,"[""apple.png""]","[""apple.png""]","[""apple.png""]","[""apple.png""]","[""apple.png""]","[""apple.png""]",blank.png,PB18.png,PB17.png,"[""apple.png""]","[""apple.png""]","[""apple.png""]","[""apple.png""]","[""apple.png""]","[""apple.png""]","[""apple.png""]","[""apple.png""]","[""apple.png""]","[""apple.png""]","[""apple.png""]","[""apple.png""]",1,"[""m&m.png""]",blank.png,blank.png,blank.png,6,"[""apple.png""]","[""apple.png""]","[""apple.png""]","[""apple.png""]","[""apple.png""]","[""apple.png""]",PB17.png,,,,,,,,,,,1,,,,,,,,,,,,,1613.3999999999069,,response,,,,,,,,,,,,,4,,,,,,,,,,,,,,,,,,,,,,,,,,,,,,,,,,,,,,,,,,,,,,,,,,,,,,,,,"[""apple.png""]","[""m&m.png""]",,,,1,right,keydown(ArrowRight),false,,1,,,,,,,1391089,1391075,1389159.08,1389461,1389461.6,1391106.38,,1,,
square,canvas.Screen,2_4_2_6_1_0_0_0_0_0_3,2021-05-24T16:24:18.522Z,,,blank.png,blank.png,blank.png,blank.png,blank.png,blank.png,blank.png,"[""m&m.png""]",blank.png,blank.png,blank.png,blank.png,blank.png,,,,,,,,,,,,,,,,,,,,,,,,,,,,,"[""m&m.png""]","[""apple.png""]",PB18.png,,,,,,,,,,,0,6,"[""apple.png""]","[""apple.png""]","[""apple.png""]","[""apple.png""]","[""apple.png""]","[""apple.png""]",blank.png,PB18.png,PB17.png,"[""apple.png""]","[""apple.png""]","[""apple.png""]","[""apple.png""]","[""apple.png""]","[""apple.png""]","[""apple.png""]","[""apple.png""]","[""apple.png""]","[""apple.png""]","[""apple.png""]","[""apple.png""]",1,"[""m&m.png""]",blank.png,blank.png,blank.png,6,"[""apple.png""]","[""apple.png""]","[""apple.png""]","[""apple.png""]","[""apple.png""]","[""apple.png""]",PB17.png,,,,,,,,,,,1,,,#808080,#33ff3f,,,,,,,,,1000.0200000000186,,timeout,,,,,,,,,,,,,4,,,,,,,,,,,,,,,,,,,,,,,,,,,,,,,,,,,,,,,,,,,,,,,,,,,,,,,,,"[""apple.png""]","[""m&m.png""]",,,,1,,,false,,1,,,,,white,black,1392094,1392093.24,1391103.4,1391103,1391106.38,1392106.4,,,,
ITI_late,canvas.Screen,2_4_2_6_1_0_0_0_0_0_4,2021-05-24T16:24:19.522Z,,,blank.png,blank.png,blank.png,blank.png,blank.png,blank.png,blank.png,"[""m&m.png""]",blank.png,blank.png,blank.png,blank.png,blank.png,,,,,,,,,,,,,,,,,,,,,,,,,,,,,"[""m&m.png""]","[""apple.png""]",PB18.png,,,,,,,,,,,0,6,"[""apple.png""]","[""apple.png""]","[""apple.png""]","[""apple.png""]","[""apple.png""]","[""apple.png""]",blank.png,PB18.png,PB17.png,"[""apple.png""]","[""apple.png""]","[""apple.png""]","[""apple.png""]","[""apple.png""]","[""apple.png""]","[""apple.png""]","[""apple.png""]","[""apple.png""]","[""apple.png""]","[""apple.png""]","[""apple.png""]",1,"[""m&m.png""]",blank.png,blank.png,blank.png,6,"[""apple.png""]","[""apple.png""]","[""apple.png""]","[""apple.png""]","[""apple.png""]","[""apple.png""]",PB17.png,,,,,,,,,,,1,,,,,,,,,,,,,1000.0200000000186,,timeout,,,,,,,,,,,,white,4,,,,,,,,,,,,,,,,,,,,,,,,,,,,,,,,,,,,,,,,,,,,,,,,,,,,,,,,,"[""apple.png""]","[""m&m.png""]",,,,1,,,false,,1,,,,,,,1393094,1393093.26,1392093.24,1392095,1392106.4,1393106.42,,,,
choice_sequence,flow.Sequence,2_4_2_6_1_0_0_0_0_0,2021-05-24T16:24:19.523Z,,,blank.png,blank.png,blank.png,blank.png,blank.png,blank.png,blank.png,"[""m&m.png""]",blank.png,blank.png,blank.png,blank.png,blank.png,,,,,,,,,,,,,,,,,,,,,,,,,,,,,"[""m&m.png""]","[""apple.png""]",PB18.png,,,,,,,,,,,0,6,"[""apple.png""]","[""apple.png""]","[""apple.png""]","[""apple.png""]","[""apple.png""]","[""apple.png""]",blank.png,PB18.png,PB17.png,"[""apple.png""]","[""apple.png""]","[""apple.png""]","[""apple.png""]","[""apple.png""]","[""apple.png""]","[""apple.png""]","[""apple.png""]","[""apple.png""]","[""apple.png""]","[""apple.png""]","[""apple.png""]",1,"[""m&m.png""]",blank.png,blank.png,blank.png,6,"[""apple.png""]","[""apple.png""]","[""apple.png""]","[""apple.png""]","[""apple.png""]","[""apple.png""]",PB17.png,,,,,,,,,,,1,,,,,,,,,,,,,5118.4199999999255,,completion,,,,,,,,,,,,,4,,,,,,,,,,,,,,,,,,,,,,,,,,,,,,,,,,,,,,,,,,,,,,,,,,,,,,,,,"[""apple.png""]","[""m&m.png""]",,,,1,,,false,,1,,,,,,,1393094,1393093.26,1387948.52,1387977,1387974.84,1393106.42,,,,
fixCross,canvas.Screen,2_4_2_6_1_0_0_0_0_1_0,2021-05-24T16:24:20.220Z,,,blank.png,blank.png,blank.png,blank.png,blank.png,blank.png,blank.png,"[""m&m.png""]",blank.png,blank.png,blank.png,blank.png,blank.png,,,,,,,,,,,,,,,,,,,,,,,,,,,,,"[""m&m.png""]","[""apple.png""]",PB18.png,,,,,,,,,,,0,6,"[""apple.png""]","[""apple.png""]","[""apple.png""]","[""apple.png""]","[""apple.png""]","[""apple.png""]",blank.png,PB18.png,PB12.png,"[""apple.png""]","[""apple.png""]","[""apple.png""]","[""apple.png""]","[""apple.png""]","[""apple.png""]","[""apple.png""]","[""apple.png""]",blank.png,blank.png,blank.png,blank.png,1,"[""m&m.png""]",blank.png,blank.png,blank.png,2,"[""apple.png""]","[""apple.png""]",blank.png,blank.png,blank.png,blank.png,PB12.png,,,,,,,,,,,1,,,,,,,,,,,,,782.6800000001676,,timeout,,,,,,,,,,,,,4,,,,,,,,,,,,,,,,,,,,,,,,,,,,,,,,,,,,,,,,,,,,,,,,,,,,,,,,,"[""apple.png""]","[""m&m.png""]",,,,1,,,false,,1,,,,,,,1393791,1393790.66,1393093.26,1393100,1393106.42,1393889.1,2,,,
timeout,canvas.Screen,2_4_2_6_1_0_0_0_0_1_1,2021-05-24T16:24:20.798Z,,,blank.png,blank.png,blank.png,blank.png,blank.png,blank.png,blank.png,"[""m&m.png""]",blank.png,blank.png,blank.png,blank.png,blank.png,,,,,,,,,,,,,,,,,,,,,,,,,,,,,"[""m&m.png""]","[""apple.png""]",PB18.png,,,,,,,,,,,0,6,"[""apple.png""]","[""apple.png""]","[""apple.png""]","[""apple.png""]","[""apple.png""]","[""apple.png""]",blank.png,PB18.png,PB12.png,"[""apple.png""]","[""apple.png""]","[""apple.png""]","[""apple.png""]","[""apple.png""]","[""apple.png""]","[""apple.png""]","[""apple.png""]",blank.png,blank.png,blank.png,blank.png,1,"[""m&m.png""]",blank.png,blank.png,blank.png,2,"[""apple.png""]","[""apple.png""]",blank.png,blank.png,blank.png,blank.png,PB12.png,,,,,,,,,,,1,,,,,,,,,,,,,493.6599999999162,,timeout,,,,,,,,,,,,,4,,,,,,,,,,,,,,,,,,,,,,,,,,,,,,,,,,,,,,,,,,,,,,,,,,,,,,,,,"[""apple.png""]","[""m&m.png""]",,,,1,,,false,,1,,,,,,,1394371,1394369.62,1393790.66,1393889,1393889.1,1394382.76,,,,
choice,canvas.Screen,2_4_2_6_1_0_0_0_0_1_2,2021-05-24T16:24:21.531Z,,,blank.png,blank.png,blank.png,blank.png,blank.png,blank.png,blank.png,"[""m&m.png""]",blank.png,blank.png,blank.png,blank.png,blank.png,,,,,,,,,,,,,,,,,,,,,,,,,,,,,"[""m&m.png""]","[""apple.png""]",PB18.png,,,,,,,,,,,0,6,"[""apple.png""]","[""apple.png""]","[""apple.png""]","[""apple.png""]","[""apple.png""]","[""apple.png""]",blank.png,PB18.png,PB12.png,"[""apple.png""]","[""apple.png""]","[""apple.png""]","[""apple.png""]","[""apple.png""]","[""apple.png""]","[""apple.png""]","[""apple.png""]",blank.png,blank.png,blank.png,blank.png,1,"[""m&m.png""]",blank.png,blank.png,blank.png,2,"[""apple.png""]","[""apple.png""]",blank.png,blank.png,blank.png,blank.png,PB12.png,,,,,,,,,,,1,,,,,,,,,,,,,707.2399999999907,,response,,,,,,,,,,,,,4,,,,,,,,,,,,,,,,,,,,,,,,,,,,,,,,,,,,,,,,,,,,,,,,,,,,,,,,,"[""apple.png""]","[""m&m.png""]",,,,1,left,keydown(ArrowLeft),false,,1,,,,,,,1395103,1395090,1394369.62,1394376,1394382.76,1395119.52,,2,,
square,canvas.Screen,2_4_2_6_1_0_0_0_0_1_3,2021-05-24T16:24:22.535Z,,,blank.png,blank.png,blank.png,blank.png,blank.png,blank.png,blank.png,"[""m&m.png""]",blank.png,blank.png,blank.png,blank.png,blank.png,,,,,,,,,,,,,,,,,,,,,,,,,,,,,"[""m&m.png""]","[""apple.png""]",PB18.png,,,,,,,,,,,0,6,"[""apple.png""]","[""apple.png""]","[""apple.png""]","[""apple.png""]","[""apple.png""]","[""apple.png""]",blank.png,PB18.png,PB12.png,"[""apple.png""]","[""apple.png""]","[""apple.png""]","[""apple.png""]","[""apple.png""]","[""apple.png""]","[""apple.png""]","[""apple.png""]",blank.png,blank.png,blank.png,blank.png,1,"[""m&m.png""]",blank.png,blank.png,blank.png,2,"[""apple.png""]","[""apple.png""]",blank.png,blank.png,blank.png,blank.png,PB12.png,,,,,,,,,,,1,,,#33ff3f,#808080,,,,,,,,,1000.1000000000931,,timeout,,,,,,,,,,,,,4,,,,,,,,,,,,,,,,,,,,,,,,,,,,,,,,,,,,,,,,,,,,,,,,,,,,,,,,,"[""apple.png""]","[""m&m.png""]",,,,1,,,false,,1,,,,,black,white,1396107,1396106.48,1395108.36,1395108,1395119.52,1396119.62,,,,
ITI_late,canvas.Screen,2_4_2_6_1_0_0_0_0_1_4,2021-05-24T16:24:22.786Z,,,blank.png,blank.png,blank.png,blank.png,blank.png,blank.png,blank.png,"[""m&m.png""]",blank.png,blank.png,blank.png,blank.png,blank.png,,,,,,,,,,,,,,,,,,,,,,,,,,,,,"[""m&m.png""]","[""apple.png""]",PB18.png,,,,,,,,,,,0,6,"[""apple.png""]","[""apple.png""]","[""apple.png""]","[""apple.png""]","[""apple.png""]","[""apple.png""]",blank.png,PB18.png,PB12.png,"[""apple.png""]","[""apple.png""]","[""apple.png""]","[""apple.png""]","[""apple.png""]","[""apple.png""]","[""apple.png""]","[""apple.png""]",blank.png,blank.png,blank.png,blank.png,1,"[""m&m.png""]",blank.png,blank.png,blank.png,2,"[""apple.png""]","[""apple.png""]",blank.png,blank.png,blank.png,blank.png,PB12.png,,,,,,,,,,,1,,,,,,,,,,,,,249.9199999999255,,timeout,,,,,,,,,,,,white,4,,,,,,,,,,,,,,,,,,,,,,,,,,,,,,,,,,,,,,,,,,,,,,,,,,,,,,,,,"[""apple.png""]","[""m&m.png""]",,,,1,,,false,,1,,,,,,,1396357,1396356.38,1396106.48,1396109,1396119.62,1396369.54,,,,
choice_sequence,flow.Sequence,2_4_2_6_1_0_0_0_0_1,2021-05-24T16:24:22.787Z,,,blank.png,blank.png,blank.png,blank.png,blank.png,blank.png,blank.png,"[""m&m.png""]",blank.png,blank.png,blank.png,blank.png,blank.png,,,,,,,,,,,,,,,,,,,,,,,,,,,,,"[""m&m.png""]","[""apple.png""]",PB18.png,,,,,,,,,,,0,6,"[""apple.png""]","[""apple.png""]","[""apple.png""]","[""apple.png""]","[""apple.png""]","[""apple.png""]",blank.png,PB18.png,PB12.png,"[""apple.png""]","[""apple.png""]","[""apple.png""]","[""apple.png""]","[""apple.png""]","[""apple.png""]","[""apple.png""]","[""apple.png""]",blank.png,blank.png,blank.png,blank.png,1,"[""m&m.png""]",blank.png,blank.png,blank.png,2,"[""apple.png""]","[""apple.png""]",blank.png,blank.png,blank.png,blank.png,PB12.png,,,,,,,,,,,1,,,,,,,,,,,,,3249.9599999999627,,completion,,,,,,,,,,,,,4,,,,,,,,,,,,,,,,,,,,,,,,,,,,,,,,,,,,,,,,,,,,,,,,,,,,,,,,,"[""apple.png""]","[""m&m.png""]",,,,1,,,false,,1,,,,,,,1396359,1396356.38,1393093.26,1393099,1393106.42,1396369.54,,,,
fixCross,canvas.Screen,2_4_2_6_1_0_0_0_0_2_0,2021-05-24T16:24:23.180Z,,,blank.png,"[""m&m.png""]",blank.png,blank.png,blank.png,blank.png,blank.png,blank.png,blank.png,blank.png,blank.png,blank.png,blank.png,,,,,,,,,,,,,,,,,,,,,,,,,,,,,"[""m&m.png""]","[""apple.png""]",PB16.png,,,,,,,,,,,0,6,"[""apple.png""]","[""apple.png""]","[""apple.png""]","[""apple.png""]","[""apple.png""]","[""apple.png""]",blank.png,PB18.png,PB18.png,"[""apple.png""]","[""apple.png""]","[""apple.png""]","[""apple.png""]","[""apple.png""]",blank.png,"[""apple.png""]","[""apple.png""]","[""apple.png""]","[""apple.png""]","[""apple.png""]","[""apple.png""]",1,"[""m&m.png""]",blank.png,blank.png,blank.png,5,"[""apple.png""]","[""apple.png""]","[""apple.png""]","[""apple.png""]","[""apple.png""]",blank.png,PB16.png,,,,,,,,,,,1,,,,,,,,,,,,,500.04000000003725,,timeout,,,,,,,,,,,,,3,,,,,,,,,,,,,,,,,,,,,,,,,,,,,,,,,,,,,,,,,,,,,,,,,,,,,,,,,"[""apple.png""]","[""m&m.png""]",,,,1,,,false,,1,,,,,,,1396752,1396751.12,1396356.38,1396366,1396369.54,1396869.58,3,,,
timeout,canvas.Screen,2_4_2_6_1_0_0_0_0_2_1,2021-05-24T16:24:23.785Z,,,blank.png,"[""m&m.png""]",blank.png,blank.png,blank.png,blank.png,blank.png,blank.png,blank.png,blank.png,blank.png,blank.png,blank.png,,,,,,,,,,,,,,,,,,,,,,,,,,,,,"[""m&m.png""]","[""apple.png""]",PB16.png,,,,,,,,,,,0,6,"[""apple.png""]","[""apple.png""]","[""apple.png""]","[""apple.png""]","[""apple.png""]","[""apple.png""]",blank.png,PB18.png,PB18.png,"[""apple.png""]","[""apple.png""]","[""apple.png""]","[""apple.png""]","[""apple.png""]",blank.png,"[""apple.png""]","[""apple.png""]","[""apple.png""]","[""apple.png""]","[""apple.png""]","[""apple.png""]",1,"[""m&m.png""]",blank.png,blank.png,blank.png,5,"[""apple.png""]","[""apple.png""]","[""apple.png""]","[""apple.png""]","[""apple.png""]",blank.png,PB16.png,,,,,,,,,,,1,,,,,,,,,,,,,500.04000000003725,,timeout,,,,,,,,,,,,,3,,,,,,,,,,,,,,,,,,,,,,,,,,,,,,,,,,,,,,,,,,,,,,,,,,,,,,,,,"[""apple.png""]","[""m&m.png""]",,,,1,,,false,,1,,,,,,,1397357,1397356.46,1396751.12,1396868,1396869.58,1397369.62,,,,
choice,canvas.Screen,2_4_2_6_1_0_0_0_0_2_2,2021-05-24T16:24:24.117Z,,,blank.png,"[""m&m.png""]",blank.png,blank.png,blank.png,blank.png,blank.png,blank.png,blank.png,blank.png,blank.png,blank.png,blank.png,,,,,,,,,,,,,,,,,,,,,,,,,,,,,"[""m&m.png""]","[""apple.png""]",PB16.png,,,,,,,,,,,0,6,"[""apple.png""]","[""apple.png""]","[""apple.png""]","[""apple.png""]","[""apple.png""]","[""apple.png""]",blank.png,PB18.png,PB18.png,"[""apple.png""]","[""apple.png""]","[""apple.png""]","[""apple.png""]","[""apple.png""]",blank.png,"[""apple.png""]","[""apple.png""]","[""apple.png""]","[""apple.png""]","[""apple.png""]","[""apple.png""]",1,"[""m&m.png""]",blank.png,blank.png,blank.png,5,"[""apple.png""]","[""apple.png""]","[""apple.png""]","[""apple.png""]","[""apple.png""]",blank.png,PB16.png,,,,,,,,,,,1,,,,,,,,,,,,,314.37999999988824,,response,,,,,,,,,,,,,3,,,,,,,,,,,,,,,,,,,,,,,,,,,,,,,,,,,,,,,,,,,,,,,,,,,,,,,,,"[""apple.png""]","[""m&m.png""]",,,,1,left,keydown(ArrowLeft),false,,1,,,,,,,1397689,1397684,1397356.46,1397363,1397369.62,1397698.5,,3,,
square,canvas.Screen,2_4_2_6_1_0_0_0_0_2_3,2021-05-24T16:24:25.115Z,,,blank.png,"[""m&m.png""]",blank.png,blank.png,blank.png,blank.png,blank.png,blank.png,blank.png,blank.png,blank.png,blank.png,blank.png,,,,,,,,,,,,,,,,,,,,,,,,,,,,,"[""m&m.png""]","[""apple.png""]",PB16.png,,,,,,,,,,,0,6,"[""apple.png""]","[""apple.png""]","[""apple.png""]","[""apple.png""]","[""apple.png""]","[""apple.png""]",blank.png,PB18.png,PB18.png,"[""apple.png""]","[""apple.png""]","[""apple.png""]","[""apple.png""]","[""apple.png""]",blank.png,"[""apple.png""]","[""apple.png""]","[""apple.png""]","[""apple.png""]","[""apple.png""]","[""apple.png""]",1,"[""m&m.png""]",blank.png,blank.png,blank.png,5,"[""apple.png""]","[""apple.png""]","[""apple.png""]","[""apple.png""]","[""apple.png""]",blank.png,PB16.png,,,,,,,,,,,1,,,#33ff3f,#808080,,,,,,,,,1000.0800000000745,,timeout,,,,,,,,,,,,,3,,,,,,,,,,,,,,,,,,,,,,,,,,,,,,,,,,,,,,,,,,,,,,,,,,,,,,,,,"[""apple.png""]","[""m&m.png""]",,,,1,,,false,,1,,,,,black,white,1398686,1398685.42,1397694.86,1397695,1397698.5,1398698.58,,,,
ITI_late,canvas.Screen,2_4_2_6_1_0_0_0_0_2_4,2021-05-24T16:24:25.865Z,,,blank.png,"[""m&m.png""]",blank.png,blank.png,blank.png,blank.png,blank.png,blank.png,blank.png,blank.png,blank.png,blank.png,blank.png,,,,,,,,,,,,,,,,,,,,,,,,,,,,,"[""m&m.png""]","[""apple.png""]",PB16.png,,,,,,,,,,,0,6,"[""apple.png""]","[""apple.png""]","[""apple.png""]","[""apple.png""]","[""apple.png""]","[""apple.png""]",blank.png,PB18.png,PB18.png,"[""apple.png""]","[""apple.png""]","[""apple.png""]","[""apple.png""]","[""apple.png""]",blank.png,"[""apple.png""]","[""apple.png""]","[""apple.png""]","[""apple.png""]","[""apple.png""]","[""apple.png""]",1,"[""m&m.png""]",blank.png,blank.png,blank.png,5,"[""apple.png""]","[""apple.png""]","[""apple.png""]","[""apple.png""]","[""apple.png""]",blank.png,PB16.png,,,,,,,,,,,1,,,,,,,,,,,,,750,,timeout,,,,,,,,,,,,white,3,,,,,,,,,,,,,,,,,,,,,,,,,,,,,,,,,,,,,,,,,,,,,,,,,,,,,,,,,"[""apple.png""]","[""m&m.png""]",,,,1,,,false,,1,,,,,,,1399436,1399435.42,1398685.42,1398691,1398698.58,1399448.58,,,,
choice_sequence,flow.Sequence,2_4_2_6_1_0_0_0_0_2,2021-05-24T16:24:25.866Z,,,blank.png,"[""m&m.png""]",blank.png,blank.png,blank.png,blank.png,blank.png,blank.png,blank.png,blank.png,blank.png,blank.png,blank.png,,,,,,,,,,,,,,,,,,,,,,,,,,,,,"[""m&m.png""]","[""apple.png""]",PB16.png,,,,,,,,,,,0,6,"[""apple.png""]","[""apple.png""]","[""apple.png""]","[""apple.png""]","[""apple.png""]","[""apple.png""]",blank.png,PB18.png,PB18.png,"[""apple.png""]","[""apple.png""]","[""apple.png""]","[""apple.png""]","[""apple.png""]",blank.png,"[""apple.png""]","[""apple.png""]","[""apple.png""]","[""apple.png""]","[""apple.png""]","[""apple.png""]",1,"[""m&m.png""]",blank.png,blank.png,blank.png,5,"[""apple.png""]","[""apple.png""]","[""apple.png""]","[""apple.png""]","[""apple.png""]",blank.png,PB16.png,,,,,,,,,,,1,,,,,,,,,,,,,3065.8799999998882,,completion,,,,,,,,,,,,,3,,,,,,,,,,,,,,,,,,,,,,,,,,,,,,,,,,,,,,,,,,,,,,,,,,,,,,,,,"[""apple.png""]","[""m&m.png""]",,,,1,,,false,,1,,,,,,,1399437,1399435.42,1396356.38,1396365,1396369.54,1399448.58,,,,
fixCross,canvas.Screen,2_4_2_6_1_0_0_0_0_3_0,2021-05-24T16:24:26.114Z,,,blank.png,blank.png,blank.png,blank.png,blank.png,blank.png,blank.png,"[""m&m.png""]",blank.png,blank.png,blank.png,blank.png,blank.png,,,,,,,,,,,,,,,,,,,,,,,,,,,,,"[""m&m.png""]","[""apple.png""]",PB18.png,,,,,,,,,,,0,6,"[""apple.png""]","[""apple.png""]","[""apple.png""]","[""apple.png""]","[""apple.png""]","[""apple.png""]",blank.png,PB18.png,PB14.png,"[""apple.png""]","[""apple.png""]","[""apple.png""]","[""apple.png""]","[""apple.png""]","[""apple.png""]","[""apple.png""]","[""apple.png""]","[""apple.png""]",blank.png,blank.png,blank.png,1,"[""m&m.png""]",blank.png,blank.png,blank.png,3,"[""apple.png""]","[""apple.png""]","[""apple.png""]",blank.png,blank.png,blank.png,PB14.png,,,,,,,,,,,1,,,,,,,,,,,,,338.6199999998789,,timeout,,,,,,,,,,,,,4,,,,,,,,,,,,,,,,,,,,,,,,,,,,,,,,,,,,,,,,,,,,,,,,,,,,,,,,,"[""apple.png""]","[""m&m.png""]",,,,1,,,false,,1,,,,,,,1399687,1399685.36,1399435.42,1399443,1399448.58,1399787.2,4,,,
timeout,canvas.Screen,2_4_2_6_1_0_0_0_0_3_1,2021-05-24T16:24:26.707Z,,,blank.png,blank.png,blank.png,blank.png,blank.png,blank.png,blank.png,"[""m&m.png""]",blank.png,blank.png,blank.png,blank.png,blank.png,,,,,,,,,,,,,,,,,,,,,,,,,,,,,"[""m&m.png""]","[""apple.png""]",PB18.png,,,,,,,,,,,0,6,"[""apple.png""]","[""apple.png""]","[""apple.png""]","[""apple.png""]","[""apple.png""]","[""apple.png""]",blank.png,PB18.png,PB14.png,"[""apple.png""]","[""apple.png""]","[""apple.png""]","[""apple.png""]","[""apple.png""]","[""apple.png""]","[""apple.png""]","[""apple.png""]","[""apple.png""]",blank.png,blank.png,blank.png,1,"[""m&m.png""]",blank.png,blank.png,blank.png,3,"[""apple.png""]","[""apple.png""]","[""apple.png""]",blank.png,blank.png,blank.png,PB14.png,,,,,,,,,,,1,,,,,,,,,,,,,503.4799999999814,,timeout,,,,,,,,,,,,,4,,,,,,,,,,,,,,,,,,,,,,,,,,,,,,,,,,,,,,,,,,,,,,,,,,,,,,,,,"[""apple.png""]","[""m&m.png""]",,,,1,,,false,,1,,,,,,,1400279,1400277.54,1399685.36,1399787,1399787.2,1400290.68,,,,
choice,canvas.Screen,2_4_2_6_1_0_0_0_0_3_2,2021-05-24T16:24:26.899Z,,,blank.png,blank.png,blank.png,blank.png,blank.png,blank.png,blank.png,"[""m&m.png""]",blank.png,blank.png,blank.png,blank.png,blank.png,,,,,,,,,,,,,,,,,,,,,,,,,,,,,"[""m&m.png""]","[""apple.png""]",PB18.png,,,,,,,,,,,0,6,"[""apple.png""]","[""apple.png""]","[""apple.png""]","[""apple.png""]","[""apple.png""]","[""apple.png""]",blank.png,PB18.png,PB14.png,"[""apple.png""]","[""apple.png""]","[""apple.png""]","[""apple.png""]","[""apple.png""]","[""apple.png""]","[""apple.png""]","[""apple.png""]","[""apple.png""]",blank.png,blank.png,blank.png,1,"[""m&m.png""]",blank.png,blank.png,blank.png,3,"[""apple.png""]","[""apple.png""]","[""apple.png""]",blank.png,blank.png,blank.png,PB14.png,,,,,,,,,,,1,,,,,,,,,,,,,174.3200000000652,,response,,,,,,,,,,,,,4,,,,,,,,,,,,,,,,,,,,,,,,,,,,,,,,,,,,,,,,,,,,,,,,,,,,,,,,,"[""apple.png""]","[""m&m.png""]",,,,1,right,keydown(ArrowRight),false,,1,,,,,,,1400471,1400465,1400277.54,1400288,1400290.68,1400487.96,,4,,
square,canvas.Screen,2_4_2_6_1_0_0_0_0_3_3,2021-05-24T16:24:27.905Z,,,blank.png,blank.png,blank.png,blank.png,blank.png,blank.png,blank.png,"[""m&m.png""]",blank.png,blank.png,blank.png,blank.png,blank.png,,,,,,,,,,,,,,,,,,,,,,,,,,,,,"[""m&m.png""]","[""apple.png""]",PB18.png,,,,,,,,,,,0,6,"[""apple.png""]","[""apple.png""]","[""apple.png""]","[""apple.png""]","[""apple.png""]","[""apple.png""]",blank.png,PB18.png,PB14.png,"[""apple.png""]","[""apple.png""]","[""apple.png""]","[""apple.png""]","[""apple.png""]","[""apple.png""]","[""apple.png""]","[""apple.png""]","[""apple.png""]",blank.png,blank.png,blank.png,1,"[""m&m.png""]",blank.png,blank.png,blank.png,3,"[""apple.png""]","[""apple.png""]","[""apple.png""]",blank.png,blank.png,blank.png,PB14.png,,,,,,,,,,,1,,,#808080,#33ff3f,,,,,,,,,1000.0200000000186,,timeout,,,,,,,,,,,,,4,,,,,,,,,,,,,,,,,,,,,,,,,,,,,,,,,,,,,,,,,,,,,,,,,,,,,,,,,"[""apple.png""]","[""m&m.png""]",,,,1,,,false,,1,,,,,white,black,1401477,1401474.84,1400476.54,1400477,1400487.96,1401487.98,,,,
ITI_late,canvas.Screen,2_4_2_6_1_0_0_0_0_3_4,2021-05-24T16:24:29.155Z,,,blank.png,blank.png,blank.png,blank.png,blank.png,blank.png,blank.png,"[""m&m.png""]",blank.png,blank.png,blank.png,blank.png,blank.png,,,,,,,,,,,,,,,,,,,,,,,,,,,,,"[""m&m.png""]","[""apple.png""]",PB18.png,,,,,,,,,,,0,6,"[""apple.png""]","[""apple.png""]","[""apple.png""]","[""apple.png""]","[""apple.png""]","[""apple.png""]",blank.png,PB18.png,PB14.png,"[""apple.png""]","[""apple.png""]","[""apple.png""]","[""apple.png""]","[""apple.png""]","[""apple.png""]","[""apple.png""]","[""apple.png""]","[""apple.png""]",blank.png,blank.png,blank.png,1,"[""m&m.png""]",blank.png,blank.png,blank.png,3,"[""apple.png""]","[""apple.png""]","[""apple.png""]",blank.png,blank.png,blank.png,PB14.png,,,,,,,,,,,1,,,,,,,,,,,,,1250.1000000000931,,timeout,,,,,,,,,,,,white,4,,,,,,,,,,,,,,,,,,,,,,,,,,,,,,,,,,,,,,,,,,,,,,,,,,,,,,,,,"[""apple.png""]","[""m&m.png""]",,,,1,,,false,,1,,,,,,,1402726,1402724.92,1401474.84,1401481,1401487.98,1402738.08,,,,
choice_sequence,flow.Sequence,2_4_2_6_1_0_0_0_0_3,2021-05-24T16:24:29.155Z,,,blank.png,blank.png,blank.png,blank.png,blank.png,blank.png,blank.png,"[""m&m.png""]",blank.png,blank.png,blank.png,blank.png,blank.png,,,,,,,,,,,,,,,,,,,,,,,,,,,,,"[""m&m.png""]","[""apple.png""]",PB18.png,,,,,,,,,,,0,6,"[""apple.png""]","[""apple.png""]","[""apple.png""]","[""apple.png""]","[""apple.png""]","[""apple.png""]",blank.png,PB18.png,PB14.png,"[""apple.png""]","[""apple.png""]","[""apple.png""]","[""apple.png""]","[""apple.png""]","[""apple.png""]","[""apple.png""]","[""apple.png""]","[""apple.png""]",blank.png,blank.png,blank.png,1,"[""m&m.png""]",blank.png,blank.png,blank.png,3,"[""apple.png""]","[""apple.png""]","[""apple.png""]",blank.png,blank.png,blank.png,PB14.png,,,,,,,,,,,1,,,,,,,,,,,,,3276.339999999851,,completion,,,,,,,,,,,,,4,,,,,,,,,,,,,,,,,,,,,,,,,,,,,,,,,,,,,,,,,,,,,,,,,,,,,,,,,"[""apple.png""]","[""m&m.png""]",,,,1,,,false,,1,,,,,,,1402727,1402724.92,1399435.42,1399443,1399448.58,1402738.08,,,,
fixCross,canvas.Screen,2_4_2_6_1_0_0_0_0_4_0,2021-05-24T16:24:29.654Z,,,blank.png,blank.png,blank.png,blank.png,blank.png,blank.png,blank.png,"[""m&m.png""]",blank.png,blank.png,blank.png,blank.png,blank.png,,,,,,,,,,,,,,,,,,,,,,,,,,,,,"[""m&m.png""]","[""apple.png""]",PB18.png,,,,,,,,,,,0,6,"[""apple.png""]","[""apple.png""]","[""apple.png""]","[""apple.png""]","[""apple.png""]","[""apple.png""]",blank.png,PB18.png,PB07.png,"[""apple.png""]","[""apple.png""]","[""apple.png""]","[""apple.png""]","[""apple.png""]","[""apple.png""]","[""apple.png""]",blank.png,blank.png,blank.png,blank.png,blank.png,1,"[""m&m.png""]",blank.png,blank.png,blank.png,1,"[""apple.png""]",blank.png,blank.png,blank.png,blank.png,blank.png,PB07.png,,,,,,,,,,,1,,,,,,,,,,,,,672.339999999851,,timeout,,,,,,,,,,,,,4,,,,,,,,,,,,,,,,,,,,,,,,,,,,,,,,,,,,,,,,,,,,,,,,,,,,,,,,,"[""apple.png""]","[""m&m.png""]",,,,1,,,false,,1,,,,,,,1403226,1403224.88,1402724.92,1402733,1402738.08,1403410.42,5,,,
timeout,canvas.Screen,2_4_2_6_1_0_0_0_0_4_1,2021-05-24T16:24:30.326Z,,,blank.png,blank.png,blank.png,blank.png,blank.png,blank.png,blank.png,"[""m&m.png""]",blank.png,blank.png,blank.png,blank.png,blank.png,,,,,,,,,,,,,,,,,,,,,,,,,,,,,"[""m&m.png""]","[""apple.png""]",PB18.png,,,,,,,,,,,0,6,"[""apple.png""]","[""apple.png""]","[""apple.png""]","[""apple.png""]","[""apple.png""]","[""apple.png""]",blank.png,PB18.png,PB07.png,"[""apple.png""]","[""apple.png""]","[""apple.png""]","[""apple.png""]","[""apple.png""]","[""apple.png""]","[""apple.png""]",blank.png,blank.png,blank.png,blank.png,blank.png,1,"[""m&m.png""]",blank.png,blank.png,blank.png,1,"[""apple.png""]",blank.png,blank.png,blank.png,blank.png,blank.png,PB07.png,,,,,,,,,,,1,,,,,,,,,,,,,498.68000000016764,,timeout,,,,,,,,,,,,,4,,,,,,,,,,,,,,,,,,,,,,,,,,,,,,,,,,,,,,,,,,,,,,,,,,,,,,,,,"[""apple.png""]","[""m&m.png""]",,,,1,,,false,,1,,,,,,,1403897,1403895.94,1403224.88,1403410,1403410.42,1403909.1,,,,
choice,canvas.Screen,2_4_2_6_1_0_0_0_0_4_2,2021-05-24T16:24:30.989Z,,,blank.png,blank.png,blank.png,blank.png,blank.png,blank.png,blank.png,"[""m&m.png""]",blank.png,blank.png,blank.png,blank.png,blank.png,,,,,,,,,,,,,,,,,,,,,,,,,,,,,"[""m&m.png""]","[""apple.png""]",PB18.png,,,,,,,,,,,0,6,"[""apple.png""]","[""apple.png""]","[""apple.png""]","[""apple.png""]","[""apple.png""]","[""apple.png""]",blank.png,PB18.png,PB07.png,"[""apple.png""]","[""apple.png""]","[""apple.png""]","[""apple.png""]","[""apple.png""]","[""apple.png""]","[""apple.png""]",blank.png,blank.png,blank.png,blank.png,blank.png,1,"[""m&m.png""]",blank.png,blank.png,blank.png,1,"[""apple.png""]",blank.png,blank.png,blank.png,blank.png,blank.png,PB07.png,,,,,,,,,,,1,,,,,,,,,,,,,634.8999999999069,,response,,,,,,,,,,,,,4,,,,,,,,,,,,,,,,,,,,,,,,,,,,,,,,,,,,,,,,,,,,,,,,,,,,,,,,,"[""apple.png""]","[""m&m.png""]",,,,1,left,keydown(ArrowLeft),false,,1,,,,,,,1404561,1404544,1403895.94,1403906,1403909.1,1404580.14,,5,,
square,canvas.Screen,2_4_2_6_1_0_0_0_0_4_3,2021-05-24T16:24:31.996Z,,,blank.png,blank.png,blank.png,blank.png,blank.png,blank.png,blank.png,"[""m&m.png""]",blank.png,blank.png,blank.png,blank.png,blank.png,,,,,,,,,,,,,,,,,,,,,,,,,,,,,"[""m&m.png""]","[""apple.png""]",PB18.png,,,,,,,,,,,0,6,"[""apple.png""]","[""apple.png""]","[""apple.png""]","[""apple.png""]","[""apple.png""]","[""apple.png""]",blank.png,PB18.png,PB07.png,"[""apple.png""]","[""apple.png""]","[""apple.png""]","[""apple.png""]","[""apple.png""]","[""apple.png""]","[""apple.png""]",blank.png,blank.png,blank.png,blank.png,blank.png,1,"[""m&m.png""]",blank.png,blank.png,blank.png,1,"[""apple.png""]",blank.png,blank.png,blank.png,blank.png,blank.png,PB07.png,,,,,,,,,,,1,,,#33ff3f,#808080,,,,,,,,,1000,,timeout,,,,,,,,,,,,,4,,,,,,,,,,,,,,,,,,,,,,,,,,,,,,,,,,,,,,,,,,,,,,,,,,,,,,,,,"[""apple.png""]","[""m&m.png""]",,,,1,,,false,,1,,,,,black,white,1405568,1405566.98,1404570.1,1404570,1404580.14,1405580.14,,,,
ITI_late,canvas.Screen,2_4_2_6_1_0_0_0_0_4_4,2021-05-24T16:24:32.246Z,,,blank.png,blank.png,blank.png,blank.png,blank.png,blank.png,blank.png,"[""m&m.png""]",blank.png,blank.png,blank.png,blank.png,blank.png,,,,,,,,,,,,,,,,,,,,,,,,,,,,,"[""m&m.png""]","[""apple.png""]",PB18.png,,,,,,,,,,,0,6,"[""apple.png""]","[""apple.png""]","[""apple.png""]","[""apple.png""]","[""apple.png""]","[""apple.png""]",blank.png,PB18.png,PB07.png,"[""apple.png""]","[""apple.png""]","[""apple.png""]","[""apple.png""]","[""apple.png""]","[""apple.png""]","[""apple.png""]",blank.png,blank.png,blank.png,blank.png,blank.png,1,"[""m&m.png""]",blank.png,blank.png,blank.png,1,"[""apple.png""]",blank.png,blank.png,blank.png,blank.png,blank.png,PB07.png,,,,,,,,,,,1,,,,,,,,,,,,,249.9800000002142,,timeout,,,,,,,,,,,,white,4,,,,,,,,,,,,,,,,,,,,,,,,,,,,,,,,,,,,,,,,,,,,,,,,,,,,,,,,,"[""apple.png""]","[""m&m.png""]",,,,1,,,false,,1,,,,,,,1405817,1405816.98,1405566.98,1405572,1405580.14,1405830.12,,,,
choice_sequence,flow.Sequence,2_4_2_6_1_0_0_0_0_4,2021-05-24T16:24:32.246Z,,,blank.png,blank.png,blank.png,blank.png,blank.png,blank.png,blank.png,"[""m&m.png""]",blank.png,blank.png,blank.png,blank.png,blank.png,,,,,,,,,,,,,,,,,,,,,,,,,,,,,"[""m&m.png""]","[""apple.png""]",PB18.png,,,,,,,,,,,0,6,"[""apple.png""]","[""apple.png""]","[""apple.png""]","[""apple.png""]","[""apple.png""]","[""apple.png""]",blank.png,PB18.png,PB07.png,"[""apple.png""]","[""apple.png""]","[""apple.png""]","[""apple.png""]","[""apple.png""]","[""apple.png""]","[""apple.png""]",blank.png,blank.png,blank.png,blank.png,blank.png,1,"[""m&m.png""]",blank.png,blank.png,blank.png,1,"[""apple.png""]",blank.png,blank.png,blank.png,blank.png,blank.png,PB07.png,,,,,,,,,,,1,,,,,,,,,,,,,3078.899999999907,,completion,,,,,,,,,,,,,4,,,,,,,,,,,,,,,,,,,,,,,,,,,,,,,,,,,,,,,,,,,,,,,,,,,,,,,,,"[""apple.png""]","[""m&m.png""]",,,,1,,,false,,1,,,,,,,1405818,1405816.98,1402724.92,1402733,1402738.08,1405830.12,,,,
fixCross,canvas.Screen,2_4_2_6_1_0_0_0_0_5_0,2021-05-24T16:24:32.496Z,,,blank.png,"[""m&m.png""]",blank.png,blank.png,blank.png,blank.png,blank.png,blank.png,blank.png,blank.png,blank.png,blank.png,blank.png,,,,,,,,,,,,,,,,,,,,,,,,,,,,,"[""m&m.png""]","[""apple.png""]",PB01.png,,,,,,,,,,,0,6,"[""apple.png""]","[""apple.png""]","[""apple.png""]","[""apple.png""]","[""apple.png""]","[""apple.png""]",blank.png,PB18.png,PB18.png,blank.png,blank.png,blank.png,blank.png,blank.png,blank.png,"[""apple.png""]","[""apple.png""]","[""apple.png""]","[""apple.png""]","[""apple.png""]","[""apple.png""]",1,"[""m&m.png""]",blank.png,blank.png,blank.png,0,blank.png,blank.png,blank.png,blank.png,blank.png,blank.png,PB01.png,,,,,,,,,,,1,,,,,,,,,,,,,332.7399999999907,,timeout,,,,,,,,,,,,,3,,,,,,,,,,,,,,,,,,,,,,,,,,,,,,,,,,,,,,,,,,,,,,,,,,,,,,,,,"[""apple.png""]","[""m&m.png""]",,,,1,,,false,,1,,,,,,,1406067,1406066.94,1405816.98,1405821,1405830.12,1406162.86,6,,,
timeout,canvas.Screen,2_4_2_6_1_0_0_0_0_5_1,2021-05-24T16:24:33.075Z,,,blank.png,"[""m&m.png""]",blank.png,blank.png,blank.png,blank.png,blank.png,blank.png,blank.png,blank.png,blank.png,blank.png,blank.png,,,,,,,,,,,,,,,,,,,,,,,,,,,,,"[""m&m.png""]","[""apple.png""]",PB01.png,,,,,,,,,,,0,6,"[""apple.png""]","[""apple.png""]","[""apple.png""]","[""apple.png""]","[""apple.png""]","[""apple.png""]",blank.png,PB18.png,PB18.png,blank.png,blank.png,blank.png,blank.png,blank.png,blank.png,"[""apple.png""]","[""apple.png""]","[""apple.png""]","[""apple.png""]","[""apple.png""]","[""apple.png""]",1,"[""m&m.png""]",blank.png,blank.png,blank.png,0,blank.png,blank.png,blank.png,blank.png,blank.png,blank.png,PB01.png,,,,,,,,,,,1,,,,,,,,,,,,,496.1799999999348,,timeout,,,,,,,,,,,,,3,,,,,,,,,,,,,,,,,,,,,,,,,,,,,,,,,,,,,,,,,,,,,,,,,,,,,,,,,"[""apple.png""]","[""m&m.png""]",,,,1,,,false,,1,,,,,,,1406647,1406645.88,1406066.94,1406163,1406162.86,1406659.04,,,,
choice,canvas.Screen,2_4_2_6_1_0_0_0_0_5_2,2021-05-24T16:24:33.469Z,,,blank.png,"[""m&m.png""]",blank.png,blank.png,blank.png,blank.png,blank.png,blank.png,blank.png,blank.png,blank.png,blank.png,blank.png,,,,,,,,,,,,,,,,,,,,,,,,,,,,,"[""m&m.png""]","[""apple.png""]",PB01.png,,,,,,,,,,,0,6,"[""apple.png""]","[""apple.png""]","[""apple.png""]","[""apple.png""]","[""apple.png""]","[""apple.png""]",blank.png,PB18.png,PB18.png,blank.png,blank.png,blank.png,blank.png,blank.png,blank.png,"[""apple.png""]","[""apple.png""]","[""apple.png""]","[""apple.png""]","[""apple.png""]","[""apple.png""]",1,"[""m&m.png""]",blank.png,blank.png,blank.png,0,blank.png,blank.png,blank.png,blank.png,blank.png,blank.png,PB01.png,,,,,,,,,,,1,,,,,,,,,,,,,367.95999999996275,,response,,,,,,,,,,,,,3,,,,,,,,,,,,,,,,,,,,,,,,,,,,,,,,,,,,,,,,,,,,,,,,,,,,,,,,,"[""apple.png""]","[""m&m.png""]",,,,1,right,keydown(ArrowRight),false,,1,,,,,,,1407041,1407027,1406645.88,1406655,1406659.04,1407053.8,,6,,
square,canvas.Screen,2_4_2_6_1_0_0_0_0_5_3,2021-05-24T16:24:34.470Z,,,blank.png,"[""m&m.png""]",blank.png,blank.png,blank.png,blank.png,blank.png,blank.png,blank.png,blank.png,blank.png,blank.png,blank.png,,,,,,,,,,,,,,,,,,,,,,,,,,,,,"[""m&m.png""]","[""apple.png""]",PB01.png,,,,,,,,,,,0,6,"[""apple.png""]","[""apple.png""]","[""apple.png""]","[""apple.png""]","[""apple.png""]","[""apple.png""]",blank.png,PB18.png,PB18.png,blank.png,blank.png,blank.png,blank.png,blank.png,blank.png,"[""apple.png""]","[""apple.png""]","[""apple.png""]","[""apple.png""]","[""apple.png""]","[""apple.png""]",1,"[""m&m.png""]",blank.png,blank.png,blank.png,0,blank.png,blank.png,blank.png,blank.png,blank.png,blank.png,PB01.png,,,,,,,,,,,1,,,#808080,#33ff3f,,,,,,,,,999.9799999999814,,timeout,,,,,,,,,,,,,3,,,,,,,,,,,,,,,,,,,,,,,,,,,,,,,,,,,,,,,,,,,,,,,,,,,,,,,,,"[""apple.png""]","[""m&m.png""]",,,,1,,,false,,1,,,,,white,black,1408042,1408040.66,1407048.92,1407048,1407053.8,1408053.78,,,,
ITI_late,canvas.Screen,2_4_2_6_1_0_0_0_0_5_4,2021-05-24T16:24:35.469Z,,,blank.png,"[""m&m.png""]",blank.png,blank.png,blank.png,blank.png,blank.png,blank.png,blank.png,blank.png,blank.png,blank.png,blank.png,,,,,,,,,,,,,,,,,,,,,,,,,,,,,"[""m&m.png""]","[""apple.png""]",PB01.png,,,,,,,,,,,0,6,"[""apple.png""]","[""apple.png""]","[""apple.png""]","[""apple.png""]","[""apple.png""]","[""apple.png""]",blank.png,PB18.png,PB18.png,blank.png,blank.png,blank.png,blank.png,blank.png,blank.png,"[""apple.png""]","[""apple.png""]","[""apple.png""]","[""apple.png""]","[""apple.png""]","[""apple.png""]",1,"[""m&m.png""]",blank.png,blank.png,blank.png,0,blank.png,blank.png,blank.png,blank.png,blank.png,blank.png,PB01.png,,,,,,,,,,,1,,,,,,,,,,,,,1000.0800000000745,,timeout,,,,,,,,,,,,white,3,,,,,,,,,,,,,,,,,,,,,,,,,,,,,,,,,,,,,,,,,,,,,,,,,,,,,,,,,"[""apple.png""]","[""m&m.png""]",,,,1,,,false,,1,,,,,,,1409041,1409040.7,1408040.66,1408045,1408053.78,1409053.86,,,,
choice_sequence,flow.Sequence,2_4_2_6_1_0_0_0_0_5,2021-05-24T16:24:35.470Z,,,blank.png,"[""m&m.png""]",blank.png,blank.png,blank.png,blank.png,blank.png,blank.png,blank.png,blank.png,blank.png,blank.png,blank.png,,,,,,,,,,,,,,,,,,,,,,,,,,,,,"[""m&m.png""]","[""apple.png""]",PB01.png,,,,,,,,,,,0,6,"[""apple.png""]","[""apple.png""]","[""apple.png""]","[""apple.png""]","[""apple.png""]","[""apple.png""]",blank.png,PB18.png,PB18.png,blank.png,blank.png,blank.png,blank.png,blank.png,blank.png,"[""apple.png""]","[""apple.png""]","[""apple.png""]","[""apple.png""]","[""apple.png""]","[""apple.png""]",1,"[""m&m.png""]",blank.png,blank.png,blank.png,0,blank.png,blank.png,blank.png,blank.png,blank.png,blank.png,PB01.png,,,,,,,,,,,1,,,,,,,,,,,,,3210.5799999998417,,completion,,,,,,,,,,,,,3,,,,,,,,,,,,,,,,,,,,,,,,,,,,,,,,,,,,,,,,,,,,,,,,,,,,,,,,,"[""apple.png""]","[""m&m.png""]",,,,1,,,false,,1,,,,,,,1409041,1409040.7,1405816.98,1405821,1405830.12,1409053.86,,,,
fixCross,canvas.Screen,2_4_2_6_1_0_0_0_0_6_0,2021-05-24T16:24:35.970Z,,,blank.png,"[""m&m.png""]",blank.png,blank.png,blank.png,blank.png,blank.png,blank.png,blank.png,blank.png,blank.png,blank.png,blank.png,,,,,,,,,,,,,,,,,,,,,,,,,,,,,"[""m&m.png""]","[""apple.png""]",PB15.png,,,,,,,,,,,0,6,"[""apple.png""]","[""apple.png""]","[""apple.png""]","[""apple.png""]","[""apple.png""]","[""apple.png""]",blank.png,PB18.png,PB18.png,"[""apple.png""]","[""apple.png""]","[""apple.png""]","[""apple.png""]",blank.png,blank.png,"[""apple.png""]","[""apple.png""]","[""apple.png""]","[""apple.png""]","[""apple.png""]","[""apple.png""]",1,"[""m&m.png""]",blank.png,blank.png,blank.png,4,"[""apple.png""]","[""apple.png""]","[""apple.png""]","[""apple.png""]",blank.png,blank.png,PB15.png,,,,,,,,,,,1,,,,,,,,,,,,,588.5199999997858,,timeout,,,,,,,,,,,,,3,,,,,,,,,,,,,,,,,,,,,,,,,,,,,,,,,,,,,,,,,,,,,,,,,,,,,,,,,"[""apple.png""]","[""m&m.png""]",,,,1,,,false,,1,,,,,,,1409542,1409540.68,1409040.7,1409045,1409053.86,1409642.38,7,,,
timeout,canvas.Screen,2_4_2_6_1_0_0_0_0_6_1,2021-05-24T16:24:36.562Z,,,blank.png,"[""m&m.png""]",blank.png,blank.png,blank.png,blank.png,blank.png,blank.png,blank.png,blank.png,blank.png,blank.png,blank.png,,,,,,,,,,,,,,,,,,,,,,,,,,,,,"[""m&m.png""]","[""apple.png""]",PB15.png,,,,,,,,,,,0,6,"[""apple.png""]","[""apple.png""]","[""apple.png""]","[""apple.png""]","[""apple.png""]","[""apple.png""]",blank.png,PB18.png,PB18.png,"[""apple.png""]","[""apple.png""]","[""apple.png""]","[""apple.png""]",blank.png,blank.png,"[""apple.png""]","[""apple.png""]","[""apple.png""]","[""apple.png""]","[""apple.png""]","[""apple.png""]",1,"[""m&m.png""]",blank.png,blank.png,blank.png,4,"[""apple.png""]","[""apple.png""]","[""apple.png""]","[""apple.png""]",blank.png,blank.png,PB15.png,,,,,,,,,,,1,,,,,,,,,,,,,503.60000000009313,,timeout,,,,,,,,,,,,,3,,,,,,,,,,,,,,,,,,,,,,,,,,,,,,,,,,,,,,,,,,,,,,,,,,,,,,,,,"[""apple.png""]","[""m&m.png""]",,,,1,,,false,,1,,,,,,,1410134,1410132.84,1409540.68,1409642,1409642.38,1410145.98,,,,
choice,canvas.Screen,2_4_2_6_1_0_0_0_0_6_2,2021-05-24T16:24:36.781Z,,,blank.png,"[""m&m.png""]",blank.png,blank.png,blank.png,blank.png,blank.png,blank.png,blank.png,blank.png,blank.png,blank.png,blank.png,,,,,,,,,,,,,,,,,,,,,,,,,,,,,"[""m&m.png""]","[""apple.png""]",PB15.png,,,,,,,,,,,0,6,"[""apple.png""]","[""apple.png""]","[""apple.png""]","[""apple.png""]","[""apple.png""]","[""apple.png""]",blank.png,PB18.png,PB18.png,"[""apple.png""]","[""apple.png""]","[""apple.png""]","[""apple.png""]",blank.png,blank.png,"[""apple.png""]","[""apple.png""]","[""apple.png""]","[""apple.png""]","[""apple.png""]","[""apple.png""]",1,"[""m&m.png""]",blank.png,blank.png,blank.png,4,"[""apple.png""]","[""apple.png""]","[""apple.png""]","[""apple.png""]",blank.png,blank.png,PB15.png,,,,,,,,,,,1,,,,,,,,,,,,,194.02000000001863,,response,,,,,,,,,,,,,3,,,,,,,,,,,,,,,,,,,,,,,,,,,,,,,,,,,,,,,,,,,,,,,,,,,,,,,,,"[""apple.png""]","[""m&m.png""]",,,,1,left,keydown(ArrowLeft),false,,1,,,,,,,1410353,1410340,1410132.84,1410142,1410145.98,1410369.62,,7,,
square,canvas.Screen,2_4_2_6_1_0_0_0_0_6_3,2021-05-24T16:24:37.785Z,,,blank.png,"[""m&m.png""]",blank.png,blank.png,blank.png,blank.png,blank.png,blank.png,blank.png,blank.png,blank.png,blank.png,blank.png,,,,,,,,,,,,,,,,,,,,,,,,,,,,,"[""m&m.png""]","[""apple.png""]",PB15.png,,,,,,,,,,,0,6,"[""apple.png""]","[""apple.png""]","[""apple.png""]","[""apple.png""]","[""apple.png""]","[""apple.png""]",blank.png,PB18.png,PB18.png,"[""apple.png""]","[""apple.png""]","[""apple.png""]","[""apple.png""]",blank.png,blank.png,"[""apple.png""]","[""apple.png""]","[""apple.png""]","[""apple.png""]","[""apple.png""]","[""apple.png""]",1,"[""m&m.png""]",blank.png,blank.png,blank.png,4,"[""apple.png""]","[""apple.png""]","[""apple.png""]","[""apple.png""]",blank.png,blank.png,PB15.png,,,,,,,,,,,1,,,#33ff3f,#808080,,,,,,,,,999.9799999999814,,timeout,,,,,,,,,,,,,3,,,,,,,,,,,,,,,,,,,,,,,,,,,,,,,,,,,,,,,,,,,,,,,,,,,,,,,,,"[""apple.png""]","[""m&m.png""]",,,,1,,,false,,1,,,,,black,white,1411357,1411356.44,1410364.8,1410365,1410369.62,1411369.6,,,,
ITI_late,canvas.Screen,2_4_2_6_1_0_0_0_0_6_4,2021-05-24T16:24:38.036Z,,,blank.png,"[""m&m.png""]",blank.png,blank.png,blank.png,blank.png,blank.png,blank.png,blank.png,blank.png,blank.png,blank.png,blank.png,,,,,,,,,,,,,,,,,,,,,,,,,,,,,"[""m&m.png""]","[""apple.png""]",PB15.png,,,,,,,,,,,0,6,"[""apple.png""]","[""apple.png""]","[""apple.png""]","[""apple.png""]","[""apple.png""]","[""apple.png""]",blank.png,PB18.png,PB18.png,"[""apple.png""]","[""apple.png""]","[""apple.png""]","[""apple.png""]",blank.png,blank.png,"[""apple.png""]","[""apple.png""]","[""apple.png""]","[""apple.png""]","[""apple.png""]","[""apple.png""]",1,"[""m&m.png""]",blank.png,blank.png,blank.png,4,"[""apple.png""]","[""apple.png""]","[""apple.png""]","[""apple.png""]",blank.png,blank.png,PB15.png,,,,,,,,,,,1,,,,,,,,,,,,,250,,timeout,,,,,,,,,,,,white,3,,,,,,,,,,,,,,,,,,,,,,,,,,,,,,,,,,,,,,,,,,,,,,,,,,,,,,,,,"[""apple.png""]","[""m&m.png""]",,,,1,,,false,,1,,,,,,,1411607,1411606.44,1411356.44,1411359,1411369.6,1411619.6,,,,
choice_sequence,flow.Sequence,2_4_2_6_1_0_0_0_0_6,2021-05-24T16:24:38.037Z,,,blank.png,"[""m&m.png""]",blank.png,blank.png,blank.png,blank.png,blank.png,blank.png,blank.png,blank.png,blank.png,blank.png,blank.png,,,,,,,,,,,,,,,,,,,,,,,,,,,,,"[""m&m.png""]","[""apple.png""]",PB15.png,,,,,,,,,,,0,6,"[""apple.png""]","[""apple.png""]","[""apple.png""]","[""apple.png""]","[""apple.png""]","[""apple.png""]",blank.png,PB18.png,PB18.png,"[""apple.png""]","[""apple.png""]","[""apple.png""]","[""apple.png""]",blank.png,blank.png,"[""apple.png""]","[""apple.png""]","[""apple.png""]","[""apple.png""]","[""apple.png""]","[""apple.png""]",1,"[""m&m.png""]",blank.png,blank.png,blank.png,4,"[""apple.png""]","[""apple.png""]","[""apple.png""]","[""apple.png""]",blank.png,blank.png,PB15.png,,,,,,,,,,,1,,,,,,,,,,,,,2552.5799999998417,,completion,,,,,,,,,,,,,3,,,,,,,,,,,,,,,,,,,,,,,,,,,,,,,,,,,,,,,,,,,,,,,,,,,,,,,,,"[""apple.png""]","[""m&m.png""]",,,,1,,,false,,1,,,,,,,1411608,1411606.44,1409040.7,1409044,1409053.86,1411619.6,,,,
choice_loop,flow.Loop,2_4_2_6_1_0_0_0_0,2021-05-24T16:24:38.038Z,,,,,,,,,,,,,,,,,,,,,,,,,,,,,,,,,,,,,,,,,,,,"[""m&m.png""]","[""apple.png""]",,,,,,,,,,,,,,,,,,,,,,,,,,,,,,,,,,,,,,,,,,,,,,,,,,,,,,,,,,,,,,,,,,,,,,,23631.59999999986,,completion,,,,,,,,,,,,,,,,,,,,,,,,,,,,,,,,,,,,,,,,,,,,,,,,,,,,,,,,,,,,,,,,,,,,,,"[""apple.png""]","[""m&m.png""]",,,,1,,,false,,,,,,,,,1411610,1411606.44,1387948.52,1387973,1387974.84,1411619.6,,,,
choice_frame,html.Frame,2_4_2_6_1_0_0_0,2021-05-24T16:24:38.040Z,,,,,,,,,,,,,,,,,,,,,,,,,,,,,,,,,,,,,,,,,,,,,,,,,,,,,,,,,,,,,,,,,,,,,,,,,,,,,,,,,,,,,,,,,,,,,,,,,,,,,,,,,,,,,,,,,,,,23635.159999999916,,,,,,,,,,,,,,,,,,,,,,,,,,,,,,,,,,,,,,,,,,,,,,,,,,,,,,,,,,,,,,,,,,,,,,,,,,,,,1,,,false,,,,,,,,,1411611,1411610,1387948.52,1387950,1387974.84,1411632.7,,,,
sublock_1,flow.Sequence,2_4_2_6_1_0_0,2021-05-24T16:24:38.041Z,,,,,,,,,,,,,,,,,,,,,,,,,,,,,,,,,,,,,,,,,,,,,,,,,,,,,,,,,,,,,,,,,,,,,,,,,,,,,,,,,,,,,,,,,,,,,,,,,,,,,,,,,,,,,,,,,,,,23635.159999999916,,completion,,,,,,,,,,,,,,,,,,,,,,,,,,,,,,,,,,,,,,,,,,,,,,,,,,,,,,,,,,,,,,,,,,,,,,,,,,,1,,,false,,,,,,,,,1411612,1411610,1387948.52,1387950,1387974.84,1411632.7,,,,
fixCross,canvas.Screen,2_4_2_6_1_0_1_0_0_0_0,2021-05-24T16:24:38.601Z,,,blank.png,"[""m&m.png""]",blank.png,blank.png,blank.png,blank.png,blank.png,blank.png,blank.png,blank.png,blank.png,blank.png,blank.png,,,,,,,,,,,,,,,,,,,,,,,,,,,,,"[""m&m.png""]","[""apple.png""]",PB07.png,,,,,,,,,,,0,6,"[""apple.png""]","[""apple.png""]","[""apple.png""]","[""apple.png""]","[""apple.png""]","[""apple.png""]",blank.png,PB18.png,PB18.png,"[""apple.png""]",blank.png,blank.png,blank.png,blank.png,blank.png,"[""apple.png""]","[""apple.png""]","[""apple.png""]","[""apple.png""]","[""apple.png""]","[""apple.png""]",1,"[""m&m.png""]",blank.png,blank.png,blank.png,1,"[""apple.png""]",blank.png,blank.png,blank.png,blank.png,blank.png,PB07.png,,,,,,,,,,,1,,,,,,,,,,,,,552.7600000000093,,timeout,,,,,,,,,,,,,3,,,,,,,,,,,,,,,,,,,,,,,,,,,,,,,,,,,,,,,,,,,,,,,,,,,,,,,,,"[""apple.png""]","[""m&m.png""]",,,,5,,,false,,1,,,,,,,1412174,1412172.3,1411619.6,1411628,1411632.7,1412185.46,8,,,
timeout,canvas.Screen,2_4_2_6_1_0_1_0_0_0_1,2021-05-24T16:24:39.102Z,,,blank.png,"[""m&m.png""]",blank.png,blank.png,blank.png,blank.png,blank.png,blank.png,blank.png,blank.png,blank.png,blank.png,blank.png,,,,,,,,,,,,,,,,,,,,,,,,,,,,,"[""m&m.png""]","[""apple.png""]",PB07.png,,,,,,,,,,,0,6,"[""apple.png""]","[""apple.png""]","[""apple.png""]","[""apple.png""]","[""apple.png""]","[""apple.png""]",blank.png,PB18.png,PB18.png,"[""apple.png""]",blank.png,blank.png,blank.png,blank.png,blank.png,"[""apple.png""]","[""apple.png""]","[""apple.png""]","[""apple.png""]","[""apple.png""]","[""apple.png""]",1,"[""m&m.png""]",blank.png,blank.png,blank.png,1,"[""apple.png""]",blank.png,blank.png,blank.png,blank.png,blank.png,PB07.png,,,,,,,,,,,1,,,,,,,,,,,,,499.86000000010245,,timeout,,,,,,,,,,,,,3,,,,,,,,,,,,,,,,,,,,,,,,,,,,,,,,,,,,,,,,,,,,,,,,,,,,,,,,,"[""apple.png""]","[""m&m.png""]",,,,5,,,false,,1,,,,,,,1412673,1412672.16,1412172.3,1412181,1412185.46,1412685.32,,,,
choice,canvas.Screen,2_4_2_6_1_0_1_0_0_0_2,2021-05-24T16:24:39.444Z,,,blank.png,"[""m&m.png""]",blank.png,blank.png,blank.png,blank.png,blank.png,blank.png,blank.png,blank.png,blank.png,blank.png,blank.png,,,,,,,,,,,,,,,,,,,,,,,,,,,,,"[""m&m.png""]","[""apple.png""]",PB07.png,,,,,,,,,,,0,6,"[""apple.png""]","[""apple.png""]","[""apple.png""]","[""apple.png""]","[""apple.png""]","[""apple.png""]",blank.png,PB18.png,PB18.png,"[""apple.png""]",blank.png,blank.png,blank.png,blank.png,blank.png,"[""apple.png""]","[""apple.png""]","[""apple.png""]","[""apple.png""]","[""apple.png""]","[""apple.png""]",1,"[""m&m.png""]",blank.png,blank.png,blank.png,1,"[""apple.png""]",blank.png,blank.png,blank.png,blank.png,blank.png,PB07.png,,,,,,,,,,,1,,,,,,,,,,,,,326.6799999999348,,response,,,,,,,,,,,,,3,,,,,,,,,,,,,,,,,,,,,,,,,,,,,,,,,,,,,,,,,,,,,,,,,,,,,,,,,"[""apple.png""]","[""m&m.png""]",,,,5,right,keydown(ArrowRight),false,,1,,,,,,,1413016,1413012,1412672.16,1412681,1412685.32,1413027.52,,8,,
square,canvas.Screen,2_4_2_6_1_0_1_0_0_0_3,2021-05-24T16:24:40.443Z,,,blank.png,"[""m&m.png""]",blank.png,blank.png,blank.png,blank.png,blank.png,blank.png,blank.png,blank.png,blank.png,blank.png,blank.png,,,,,,,,,,,,,,,,,,,,,,,,,,,,,"[""m&m.png""]","[""apple.png""]",PB07.png,,,,,,,,,,,0,6,"[""apple.png""]","[""apple.png""]","[""apple.png""]","[""apple.png""]","[""apple.png""]","[""apple.png""]",blank.png,PB18.png,PB18.png,"[""apple.png""]",blank.png,blank.png,blank.png,blank.png,blank.png,"[""apple.png""]","[""apple.png""]","[""apple.png""]","[""apple.png""]","[""apple.png""]","[""apple.png""]",1,"[""m&m.png""]",blank.png,blank.png,blank.png,1,"[""apple.png""]",blank.png,blank.png,blank.png,blank.png,blank.png,PB07.png,,,,,,,,,,,1,,,#808080,#33ff3f,,,,,,,,,1000.0600000000559,,timeout,,,,,,,,,,,,,3,,,,,,,,,,,,,,,,,,,,,,,,,,,,,,,,,,,,,,,,,,,,,,,,,,,,,,,,,"[""apple.png""]","[""m&m.png""]",,,,5,,,false,,1,,,,,white,black,1414015,1414014.42,1413020.16,1413020,1413027.52,1414027.58,,,,
ITI_late,canvas.Screen,2_4_2_6_1_0_1_0_0_0_4,2021-05-24T16:24:41.444Z,,,blank.png,"[""m&m.png""]",blank.png,blank.png,blank.png,blank.png,blank.png,blank.png,blank.png,blank.png,blank.png,blank.png,blank.png,,,,,,,,,,,,,,,,,,,,,,,,,,,,,"[""m&m.png""]","[""apple.png""]",PB07.png,,,,,,,,,,,0,6,"[""apple.png""]","[""apple.png""]","[""apple.png""]","[""apple.png""]","[""apple.png""]","[""apple.png""]",blank.png,PB18.png,PB18.png,"[""apple.png""]",blank.png,blank.png,blank.png,blank.png,blank.png,"[""apple.png""]","[""apple.png""]","[""apple.png""]","[""apple.png""]","[""apple.png""]","[""apple.png""]",1,"[""m&m.png""]",blank.png,blank.png,blank.png,1,"[""apple.png""]",blank.png,blank.png,blank.png,blank.png,blank.png,PB07.png,,,,,,,,,,,1,,,,,,,,,,,,,999.8999999999069,,timeout,,,,,,,,,,,,white,3,,,,,,,,,,,,,,,,,,,,,,,,,,,,,,,,,,,,,,,,,,,,,,,,,,,,,,,,,"[""apple.png""]","[""m&m.png""]",,,,5,,,false,,1,,,,,,,1415016,1415014.32,1414014.42,1414017,1414027.58,1415027.48,,,,
choice_sequence,flow.Sequence,2_4_2_6_1_0_1_0_0_0,2021-05-24T16:24:41.445Z,,,blank.png,"[""m&m.png""]",blank.png,blank.png,blank.png,blank.png,blank.png,blank.png,blank.png,blank.png,blank.png,blank.png,blank.png,,,,,,,,,,,,,,,,,,,,,,,,,,,,,"[""m&m.png""]","[""apple.png""]",PB07.png,,,,,,,,,,,0,6,"[""apple.png""]","[""apple.png""]","[""apple.png""]","[""apple.png""]","[""apple.png""]","[""apple.png""]",blank.png,PB18.png,PB18.png,"[""apple.png""]",blank.png,blank.png,blank.png,blank.png,blank.png,"[""apple.png""]","[""apple.png""]","[""apple.png""]","[""apple.png""]","[""apple.png""]","[""apple.png""]",1,"[""m&m.png""]",blank.png,blank.png,blank.png,1,"[""apple.png""]",blank.png,blank.png,blank.png,blank.png,blank.png,PB07.png,,,,,,,,,,,1,,,,,,,,,,,,,3381.6200000001118,,completion,,,,,,,,,,,,,3,,,,,,,,,,,,,,,,,,,,,,,,,,,,,,,,,,,,,,,,,,,,,,,,,,,,,,,,,"[""apple.png""]","[""m&m.png""]",,,,5,,,false,,1,,,,,,,1415017,1415014.32,1411619.6,1411627,1411632.7,1415027.48,,,,
fixCross,canvas.Screen,2_4_2_6_1_0_1_0_0_1_0,2021-05-24T16:24:42.140Z,,,blank.png,"[""m&m.png""]",blank.png,blank.png,blank.png,blank.png,blank.png,blank.png,blank.png,blank.png,blank.png,blank.png,blank.png,,,,,,,,,,,,,,,,,,,,,,,,,,,,,"[""m&m.png""]","[""apple.png""]",PB15.png,,,,,,,,,,,0,6,"[""apple.png""]","[""apple.png""]","[""apple.png""]","[""apple.png""]","[""apple.png""]","[""apple.png""]",blank.png,PB18.png,PB18.png,"[""apple.png""]","[""apple.png""]","[""apple.png""]","[""apple.png""]",blank.png,blank.png,"[""apple.png""]","[""apple.png""]","[""apple.png""]","[""apple.png""]","[""apple.png""]","[""apple.png""]",1,"[""m&m.png""]",blank.png,blank.png,blank.png,4,"[""apple.png""]","[""apple.png""]","[""apple.png""]","[""apple.png""]",blank.png,blank.png,PB15.png,,,,,,,,,,,1,,,,,,,,,,,,,697.3999999999069,,timeout,,,,,,,,,,,,,3,,,,,,,,,,,,,,,,,,,,,,,,,,,,,,,,,,,,,,,,,,,,,,,,,,,,,,,,,"[""apple.png""]","[""m&m.png""]",,,,5,,,false,,1,,,,,,,1415712,1415711.74,1415014.32,1415023,1415027.48,1415724.88,9,,,
timeout,canvas.Screen,2_4_2_6_1_0_1_0_0_1_1,2021-05-24T16:24:42.641Z,,,blank.png,"[""m&m.png""]",blank.png,blank.png,blank.png,blank.png,blank.png,blank.png,blank.png,blank.png,blank.png,blank.png,blank.png,,,,,,,,,,,,,,,,,,,,,,,,,,,,,"[""m&m.png""]","[""apple.png""]",PB15.png,,,,,,,,,,,0,6,"[""apple.png""]","[""apple.png""]","[""apple.png""]","[""apple.png""]","[""apple.png""]","[""apple.png""]",blank.png,PB18.png,PB18.png,"[""apple.png""]","[""apple.png""]","[""apple.png""]","[""apple.png""]",blank.png,blank.png,"[""apple.png""]","[""apple.png""]","[""apple.png""]","[""apple.png""]","[""apple.png""]","[""apple.png""]",1,"[""m&m.png""]",blank.png,blank.png,blank.png,4,"[""apple.png""]","[""apple.png""]","[""apple.png""]","[""apple.png""]",blank.png,blank.png,PB15.png,,,,,,,,,,,1,,,,,,,,,,,,,500.0600000000559,,timeout,,,,,,,,,,,,,3,,,,,,,,,,,,,,,,,,,,,,,,,,,,,,,,,,,,,,,,,,,,,,,,,,,,,,,,,"[""apple.png""]","[""m&m.png""]",,,,5,,,false,,1,,,,,,,1416212,1416211.78,1415711.74,1415719,1415724.88,1416224.94,,,,
choice,canvas.Screen,2_4_2_6_1_0_1_0_0_1_2,2021-05-24T16:24:43.021Z,,,blank.png,"[""m&m.png""]",blank.png,blank.png,blank.png,blank.png,blank.png,blank.png,blank.png,blank.png,blank.png,blank.png,blank.png,,,,,,,,,,,,,,,,,,,,,,,,,,,,,"[""m&m.png""]","[""apple.png""]",PB15.png,,,,,,,,,,,0,6,"[""apple.png""]","[""apple.png""]","[""apple.png""]","[""apple.png""]","[""apple.png""]","[""apple.png""]",blank.png,PB18.png,PB18.png,"[""apple.png""]","[""apple.png""]","[""apple.png""]","[""apple.png""]",blank.png,blank.png,"[""apple.png""]","[""apple.png""]","[""apple.png""]","[""apple.png""]","[""apple.png""]","[""apple.png""]",1,"[""m&m.png""]",blank.png,blank.png,blank.png,4,"[""apple.png""]","[""apple.png""]","[""apple.png""]","[""apple.png""]",blank.png,blank.png,PB15.png,,,,,,,,,,,1,,,,,,,,,,,,,349.0600000000559,,response,,,,,,,,,,,,,3,,,,,,,,,,,,,,,,,,,,,,,,,,,,,,,,,,,,,,,,,,,,,,,,,,,,,,,,,"[""apple.png""]","[""m&m.png""]",,,,5,right,keydown(ArrowRight),false,,1,,,,,,,1416592,1416574,1416211.78,1416220,1416224.94,1416606.44,,9,,
square,canvas.Screen,2_4_2_6_1_0_1_0_0_1_3,2021-05-24T16:24:44.021Z,,,blank.png,"[""m&m.png""]",blank.png,blank.png,blank.png,blank.png,blank.png,blank.png,blank.png,blank.png,blank.png,blank.png,blank.png,,,,,,,,,,,,,,,,,,,,,,,,,,,,,"[""m&m.png""]","[""apple.png""]",PB15.png,,,,,,,,,,,0,6,"[""apple.png""]","[""apple.png""]","[""apple.png""]","[""apple.png""]","[""apple.png""]","[""apple.png""]",blank.png,PB18.png,PB18.png,"[""apple.png""]","[""apple.png""]","[""apple.png""]","[""apple.png""]",blank.png,blank.png,"[""apple.png""]","[""apple.png""]","[""apple.png""]","[""apple.png""]","[""apple.png""]","[""apple.png""]",1,"[""m&m.png""]",blank.png,blank.png,blank.png,4,"[""apple.png""]","[""apple.png""]","[""apple.png""]","[""apple.png""]",blank.png,blank.png,PB15.png,,,,,,,,,,,1,,,#808080,#33ff3f,,,,,,,,,1000,,timeout,,,,,,,,,,,,,3,,,,,,,,,,,,,,,,,,,,,,,,,,,,,,,,,,,,,,,,,,,,,,,,,,,,,,,,,"[""apple.png""]","[""m&m.png""]",,,,5,,,false,,1,,,,,white,black,1417593,1417593.28,1416598.82,1416599,1416606.44,1417606.44,,,,
ITI_late,canvas.Screen,2_4_2_6_1_0_1_0_0_1_4,2021-05-24T16:24:45.023Z,,,blank.png,"[""m&m.png""]",blank.png,blank.png,blank.png,blank.png,blank.png,blank.png,blank.png,blank.png,blank.png,blank.png,blank.png,,,,,,,,,,,,,,,,,,,,,,,,,,,,,"[""m&m.png""]","[""apple.png""]",PB15.png,,,,,,,,,,,0,6,"[""apple.png""]","[""apple.png""]","[""apple.png""]","[""apple.png""]","[""apple.png""]","[""apple.png""]",blank.png,PB18.png,PB18.png,"[""apple.png""]","[""apple.png""]","[""apple.png""]","[""apple.png""]",blank.png,blank.png,"[""apple.png""]","[""apple.png""]","[""apple.png""]","[""apple.png""]","[""apple.png""]","[""apple.png""]",1,"[""m&m.png""]",blank.png,blank.png,blank.png,4,"[""apple.png""]","[""apple.png""]","[""apple.png""]","[""apple.png""]",blank.png,blank.png,PB15.png,,,,,,,,,,,1,,,,,,,,,,,,,999.9399999999441,,timeout,,,,,,,,,,,,white,3,,,,,,,,,,,,,,,,,,,,,,,,,,,,,,,,,,,,,,,,,,,,,,,,,,,,,,,,,"[""apple.png""]","[""m&m.png""]",,,,5,,,false,,1,,,,,,,1418594,1418593.22,1417593.28,1417594,1417606.44,1418606.38,,,,
choice_sequence,flow.Sequence,2_4_2_6_1_0_1_0_0_1,2021-05-24T16:24:45.024Z,,,blank.png,"[""m&m.png""]",blank.png,blank.png,blank.png,blank.png,blank.png,blank.png,blank.png,blank.png,blank.png,blank.png,blank.png,,,,,,,,,,,,,,,,,,,,,,,,,,,,,"[""m&m.png""]","[""apple.png""]",PB15.png,,,,,,,,,,,0,6,"[""apple.png""]","[""apple.png""]","[""apple.png""]","[""apple.png""]","[""apple.png""]","[""apple.png""]",blank.png,PB18.png,PB18.png,"[""apple.png""]","[""apple.png""]","[""apple.png""]","[""apple.png""]",blank.png,blank.png,"[""apple.png""]","[""apple.png""]","[""apple.png""]","[""apple.png""]","[""apple.png""]","[""apple.png""]",1,"[""m&m.png""]",blank.png,blank.png,blank.png,4,"[""apple.png""]","[""apple.png""]","[""apple.png""]","[""apple.png""]",blank.png,blank.png,PB15.png,,,,,,,,,,,1,,,,,,,,,,,,,3565.7399999999907,,completion,,,,,,,,,,,,,3,,,,,,,,,,,,,,,,,,,,,,,,,,,,,,,,,,,,,,,,,,,,,,,,,,,,,,,,,"[""apple.png""]","[""m&m.png""]",,,,5,,,false,,1,,,,,,,1418595,1418593.22,1415014.32,1415022,1415027.48,1418606.38,,,,
fixCross,canvas.Screen,2_4_2_6_1_0_1_0_0_2_0,2021-05-24T16:24:45.628Z,,,blank.png,"[""m&m.png""]",blank.png,blank.png,blank.png,blank.png,blank.png,blank.png,blank.png,blank.png,blank.png,blank.png,blank.png,,,,,,,,,,,,,,,,,,,,,,,,,,,,,"[""m&m.png""]","[""apple.png""]",PB17.png,,,,,,,,,,,0,6,"[""apple.png""]","[""apple.png""]","[""apple.png""]","[""apple.png""]","[""apple.png""]","[""apple.png""]",blank.png,PB18.png,PB18.png,"[""apple.png""]","[""apple.png""]","[""apple.png""]","[""apple.png""]","[""apple.png""]","[""apple.png""]","[""apple.png""]","[""apple.png""]","[""apple.png""]","[""apple.png""]","[""apple.png""]","[""apple.png""]",1,"[""m&m.png""]",blank.png,blank.png,blank.png,6,"[""apple.png""]","[""apple.png""]","[""apple.png""]","[""apple.png""]","[""apple.png""]","[""apple.png""]",PB17.png,,,,,,,,,,,1,,,,,,,,,,,,,605.3800000001211,,timeout,,,,,,,,,,,,,3,,,,,,,,,,,,,,,,,,,,,,,,,,,,,,,,,,,,,,,,,,,,,,,,,,,,,,,,,"[""apple.png""]","[""m&m.png""]",,,,5,,,false,,1,,,,,,,1419199,1419198.62,1418593.22,1418608,1418606.38,1419211.76,10,,,
timeout,canvas.Screen,2_4_2_6_1_0_1_0_0_2_1,2021-05-24T16:24:46.127Z,,,blank.png,"[""m&m.png""]",blank.png,blank.png,blank.png,blank.png,blank.png,blank.png,blank.png,blank.png,blank.png,blank.png,blank.png,,,,,,,,,,,,,,,,,,,,,,,,,,,,,"[""m&m.png""]","[""apple.png""]",PB17.png,,,,,,,,,,,0,6,"[""apple.png""]","[""apple.png""]","[""apple.png""]","[""apple.png""]","[""apple.png""]","[""apple.png""]",blank.png,PB18.png,PB18.png,"[""apple.png""]","[""apple.png""]","[""apple.png""]","[""apple.png""]","[""apple.png""]","[""apple.png""]","[""apple.png""]","[""apple.png""]","[""apple.png""]","[""apple.png""]","[""apple.png""]","[""apple.png""]",1,"[""m&m.png""]",blank.png,blank.png,blank.png,6,"[""apple.png""]","[""apple.png""]","[""apple.png""]","[""apple.png""]","[""apple.png""]","[""apple.png""]",PB17.png,,,,,,,,,,,1,,,,,,,,,,,,,499.9399999999441,,timeout,,,,,,,,,,,,,3,,,,,,,,,,,,,,,,,,,,,,,,,,,,,,,,,,,,,,,,,,,,,,,,,,,,,,,,,"[""apple.png""]","[""m&m.png""]",,,,5,,,false,,1,,,,,,,1419699,1419698.54,1419198.62,1419206,1419211.76,1419711.7,,,,
choice,canvas.Screen,2_4_2_6_1_0_1_0_0_2_2,2021-05-24T16:24:46.500Z,,,blank.png,"[""m&m.png""]",blank.png,blank.png,blank.png,blank.png,blank.png,blank.png,blank.png,blank.png,blank.png,blank.png,blank.png,,,,,,,,,,,,,,,,,,,,,,,,,,,,,"[""m&m.png""]","[""apple.png""]",PB17.png,,,,,,,,,,,0,6,"[""apple.png""]","[""apple.png""]","[""apple.png""]","[""apple.png""]","[""apple.png""]","[""apple.png""]",blank.png,PB18.png,PB18.png,"[""apple.png""]","[""apple.png""]","[""apple.png""]","[""apple.png""]","[""apple.png""]","[""apple.png""]","[""apple.png""]","[""apple.png""]","[""apple.png""]","[""apple.png""]","[""apple.png""]","[""apple.png""]",1,"[""m&m.png""]",blank.png,blank.png,blank.png,6,"[""apple.png""]","[""apple.png""]","[""apple.png""]","[""apple.png""]","[""apple.png""]","[""apple.png""]",PB17.png,,,,,,,,,,,1,,,,,,,,,,,,,348.30000000004657,,response,,,,,,,,,,,,,3,,,,,,,,,,,,,,,,,,,,,,,,,,,,,,,,,,,,,,,,,,,,,,,,,,,,,,,,,"[""apple.png""]","[""m&m.png""]",,,,5,right,keydown(ArrowRight),false,,1,,,,,,,1420071,1420060,1419698.54,1419704,1419711.7,1420080.16,,10,,
square,canvas.Screen,2_4_2_6_1_0_1_0_0_2_3,2021-05-24T16:24:47.496Z,,,blank.png,"[""m&m.png""]",blank.png,blank.png,blank.png,blank.png,blank.png,blank.png,blank.png,blank.png,blank.png,blank.png,blank.png,,,,,,,,,,,,,,,,,,,,,,,,,,,,,"[""m&m.png""]","[""apple.png""]",PB17.png,,,,,,,,,,,0,6,"[""apple.png""]","[""apple.png""]","[""apple.png""]","[""apple.png""]","[""apple.png""]","[""apple.png""]",blank.png,PB18.png,PB18.png,"[""apple.png""]","[""apple.png""]","[""apple.png""]","[""apple.png""]","[""apple.png""]","[""apple.png""]","[""apple.png""]","[""apple.png""]","[""apple.png""]","[""apple.png""]","[""apple.png""]","[""apple.png""]",1,"[""m&m.png""]",blank.png,blank.png,blank.png,6,"[""apple.png""]","[""apple.png""]","[""apple.png""]","[""apple.png""]","[""apple.png""]","[""apple.png""]",PB17.png,,,,,,,,,,,1,,,#808080,#33ff3f,,,,,,,,,1000,,timeout,,,,,,,,,,,,,3,,,,,,,,,,,,,,,,,,,,,,,,,,,,,,,,,,,,,,,,,,,,,,,,,,,,,,,,,"[""apple.png""]","[""m&m.png""]",,,,5,,,false,,1,,,,,white,black,1421068,1421067.06,1420076.86,1420076,1420080.16,1421080.16,,,,
ITI_late,canvas.Screen,2_4_2_6_1_0_1_0_0_2_4,2021-05-24T16:24:47.996Z,,,blank.png,"[""m&m.png""]",blank.png,blank.png,blank.png,blank.png,blank.png,blank.png,blank.png,blank.png,blank.png,blank.png,blank.png,,,,,,,,,,,,,,,,,,,,,,,,,,,,,"[""m&m.png""]","[""apple.png""]",PB17.png,,,,,,,,,,,0,6,"[""apple.png""]","[""apple.png""]","[""apple.png""]","[""apple.png""]","[""apple.png""]","[""apple.png""]",blank.png,PB18.png,PB18.png,"[""apple.png""]","[""apple.png""]","[""apple.png""]","[""apple.png""]","[""apple.png""]","[""apple.png""]","[""apple.png""]","[""apple.png""]","[""apple.png""]","[""apple.png""]","[""apple.png""]","[""apple.png""]",1,"[""m&m.png""]",blank.png,blank.png,blank.png,6,"[""apple.png""]","[""apple.png""]","[""apple.png""]","[""apple.png""]","[""apple.png""]","[""apple.png""]",PB17.png,,,,,,,,,,,1,,,,,,,,,,,,,499.9600000001956,,timeout,,,,,,,,,,,,white,3,,,,,,,,,,,,,,,,,,,,,,,,,,,,,,,,,,,,,,,,,,,,,,,,,,,,,,,,,"[""apple.png""]","[""m&m.png""]",,,,5,,,false,,1,,,,,,,1421567,1421566.96,1421067.06,1421069,1421080.16,1421580.12,,,,
choice_sequence,flow.Sequence,2_4_2_6_1_0_1_0_0_2,2021-05-24T16:24:47.997Z,,,blank.png,"[""m&m.png""]",blank.png,blank.png,blank.png,blank.png,blank.png,blank.png,blank.png,blank.png,blank.png,blank.png,blank.png,,,,,,,,,,,,,,,,,,,,,,,,,,,,,"[""m&m.png""]","[""apple.png""]",PB17.png,,,,,,,,,,,0,6,"[""apple.png""]","[""apple.png""]","[""apple.png""]","[""apple.png""]","[""apple.png""]","[""apple.png""]",blank.png,PB18.png,PB18.png,"[""apple.png""]","[""apple.png""]","[""apple.png""]","[""apple.png""]","[""apple.png""]","[""apple.png""]","[""apple.png""]","[""apple.png""]","[""apple.png""]","[""apple.png""]","[""apple.png""]","[""apple.png""]",1,"[""m&m.png""]",blank.png,blank.png,blank.png,6,"[""apple.png""]","[""apple.png""]","[""apple.png""]","[""apple.png""]","[""apple.png""]","[""apple.png""]",PB17.png,,,,,,,,,,,1,,,,,,,,,,,,,2960.5800000000745,,completion,,,,,,,,,,,,,3,,,,,,,,,,,,,,,,,,,,,,,,,,,,,,,,,,,,,,,,,,,,,,,,,,,,,,,,,"[""apple.png""]","[""m&m.png""]",,,,5,,,false,,1,,,,,,,1421568,1421566.96,1418593.22,1418605,1418606.38,1421580.12,,,,
fixCross,canvas.Screen,2_4_2_6_1_0_1_0_0_3_0,2021-05-24T16:24:48.601Z,,,blank.png,"[""m&m.png""]",blank.png,blank.png,blank.png,blank.png,blank.png,blank.png,blank.png,blank.png,blank.png,blank.png,blank.png,,,,,,,,,,,,,,,,,,,,,,,,,,,,,"[""m&m.png""]","[""apple.png""]",PB01.png,,,,,,,,,,,0,6,"[""apple.png""]","[""apple.png""]","[""apple.png""]","[""apple.png""]","[""apple.png""]","[""apple.png""]",blank.png,PB18.png,PB18.png,blank.png,blank.png,blank.png,blank.png,blank.png,blank.png,"[""apple.png""]","[""apple.png""]","[""apple.png""]","[""apple.png""]","[""apple.png""]","[""apple.png""]",1,"[""m&m.png""]",blank.png,blank.png,blank.png,0,blank.png,blank.png,blank.png,blank.png,blank.png,blank.png,PB01.png,,,,,,,,,,,1,,,,,,,,,,,,,605.3199999998324,,timeout,,,,,,,,,,,,,3,,,,,,,,,,,,,,,,,,,,,,,,,,,,,,,,,,,,,,,,,,,,,,,,,,,,,,,,,"[""apple.png""]","[""m&m.png""]",,,,5,,,false,,1,,,,,,,1422174,1422172.3,1421566.96,1421572,1421580.12,1422185.44,11,,,
timeout,canvas.Screen,2_4_2_6_1_0_1_0_0_3_1,2021-05-24T16:24:49.101Z,,,blank.png,"[""m&m.png""]",blank.png,blank.png,blank.png,blank.png,blank.png,blank.png,blank.png,blank.png,blank.png,blank.png,blank.png,,,,,,,,,,,,,,,,,,,,,,,,,,,,,"[""m&m.png""]","[""apple.png""]",PB01.png,,,,,,,,,,,0,6,"[""apple.png""]","[""apple.png""]","[""apple.png""]","[""apple.png""]","[""apple.png""]","[""apple.png""]",blank.png,PB18.png,PB18.png,blank.png,blank.png,blank.png,blank.png,blank.png,blank.png,"[""apple.png""]","[""apple.png""]","[""apple.png""]","[""apple.png""]","[""apple.png""]","[""apple.png""]",1,"[""m&m.png""]",blank.png,blank.png,blank.png,0,blank.png,blank.png,blank.png,blank.png,blank.png,blank.png,PB01.png,,,,,,,,,,,1,,,,,,,,,,,,,499.9399999999441,,timeout,,,,,,,,,,,,,3,,,,,,,,,,,,,,,,,,,,,,,,,,,,,,,,,,,,,,,,,,,,,,,,,,,,,,,,,"[""apple.png""]","[""m&m.png""]",,,,5,,,false,,1,,,,,,,1422673,1422672.22,1422172.3,1422181,1422185.44,1422685.38,,,,
choice,canvas.Screen,2_4_2_6_1_0_1_0_0_3_2,2021-05-24T16:24:49.188Z,,,blank.png,"[""m&m.png""]",blank.png,blank.png,blank.png,blank.png,blank.png,blank.png,blank.png,blank.png,blank.png,blank.png,blank.png,,,,,,,,,,,,,,,,,,,,,,,,,,,,,"[""m&m.png""]","[""apple.png""]",PB01.png,,,,,,,,,,,0,6,"[""apple.png""]","[""apple.png""]","[""apple.png""]","[""apple.png""]","[""apple.png""]","[""apple.png""]",blank.png,PB18.png,PB18.png,blank.png,blank.png,blank.png,blank.png,blank.png,blank.png,"[""apple.png""]","[""apple.png""]","[""apple.png""]","[""apple.png""]","[""apple.png""]","[""apple.png""]",1,"[""m&m.png""]",blank.png,blank.png,blank.png,0,blank.png,blank.png,blank.png,blank.png,blank.png,blank.png,PB01.png,,,,,,,,,,,1,,,,,,,,,,,,,60.62000000011176,,response,,,,,,,,,,,,,3,,,,,,,,,,,,,,,,,,,,,,,,,,,,,,,,,,,,,,,,,,,,,,,,,,,,,,,,,"[""apple.png""]","[""m&m.png""]",,,,5,right,keydown(ArrowRight),false,,1,,,,,,,1422760,1422746,1422672.22,1422682,1422685.38,1422790.64,,11,,
square,canvas.Screen,2_4_2_6_1_0_1_0_0_3_3,2021-05-24T16:24:50.206Z,,,blank.png,"[""m&m.png""]",blank.png,blank.png,blank.png,blank.png,blank.png,blank.png,blank.png,blank.png,blank.png,blank.png,blank.png,,,,,,,,,,,,,,,,,,,,,,,,,,,,,"[""m&m.png""]","[""apple.png""]",PB01.png,,,,,,,,,,,0,6,"[""apple.png""]","[""apple.png""]","[""apple.png""]","[""apple.png""]","[""apple.png""]","[""apple.png""]",blank.png,PB18.png,PB18.png,blank.png,blank.png,blank.png,blank.png,blank.png,blank.png,"[""apple.png""]","[""apple.png""]","[""apple.png""]","[""apple.png""]","[""apple.png""]","[""apple.png""]",1,"[""m&m.png""]",blank.png,blank.png,blank.png,0,blank.png,blank.png,blank.png,blank.png,blank.png,blank.png,PB01.png,,,,,,,,,,,1,,,#808080,#33ff3f,,,,,,,,,1000.1000000000931,,timeout,,,,,,,,,,,,,3,,,,,,,,,,,,,,,,,,,,,,,,,,,,,,,,,,,,,,,,,,,,,,,,,,,,,,,,,"[""apple.png""]","[""m&m.png""]",,,,5,,,false,,1,,,,,white,black,1423778,1423777.58,1422777.5,1422764,1422790.64,1423790.74,,,,
