sender,sender_type,sender_id,timestamp,meta,,Blank,DownLeft1,DownLeft2,DownLeft3,DownLeft4,DownLeft5,DownLeft6,DownRight1,DownRight2,DownRight3,DownRight4,DownRight5,DownRight6,FoodHabits_Fru_item1,FoodHabits_Fru_item2,FoodHabits_Fru_item3,FoodHabits_Fru_item4,FoodHabits_Fru_item5,FoodHabits_Fru_item6,FoodHabits_Fru_item7,FoodHabits_Meat_item1,FoodHabits_Meat_item2,FoodHabits_Meat_item3,FoodHabits_Meat_item4,FoodHabits_Meat_item5,FoodHabits_Meat_item6,FoodHabits_Meat_item7,FoodHabits_Swe_item1,FoodHabits_Swe_item2,FoodHabits_Swe_item3,FoodHabits_Swe_item4,FoodHabits_Swe_item5,FoodHabits_Swe_item6,FoodHabits_Swe_item7,FoodHabits_Veg_item1,FoodHabits_Veg_item2,FoodHabits_Veg_item3,FoodHabits_Veg_item4,FoodHabits_Veg_item5,FoodHabits_Veg_item6,FoodHabits_Veg_item7,ImgA,ImgB,LeftBar,PSS_item01,PSS_item02,PSS_item03,PSS_item04,PSS_item05,PSS_item06,PSS_item07,PSS_item08,PSS_item09,PSS_item10,RefA,RefB,RefB1,RefB2,RefB3,RefB4,RefB5,RefB6,RefB7,Ref_PB,RightBar,UpLeft1,UpLeft2,UpLeft3,UpLeft4,UpLeft5,UpLeft6,UpRight1,UpRight2,UpRight3,UpRight4,UpRight5,UpRight6,VarA,VarA1,VarA2,VarA3,VarA4,VarB,VarB1,VarB2,VarB3,VarB4,VarB5,VarB6,Var_PB,attCheck_fileA,attCheck_fileB,attCheck_fileC,attCheck_fileD,attCheck_options,attCheck_valueA,attCheck_valueB,attCheck_valueC,attCheck_valueD,attention_check,block,break1,browser_name,choseL,choseR,consent_form1,consent_form2,consentconfirmation_form1,consentconfirmation_form2,correct,correctResponse,diet,disorder,duration,edu,ended_on,enjoy,full_version,gender,group,hunger,img,imgTask,input_age,input_meal,input_occ,input_remark,lateRespFeed,list,major_version,message,mixQ_item1,mixQ_item2,mixQ_item3,mixQ_item4,mixQ_item5,name,navigator_appName,navigator_userAgent,os,pracQ1_IDa,pracQ1_IDb,pracQ1_IDc,pracQ1_IDd,pracQ1_optionA,pracQ1_optionB,pracQ1_optionC,pracQ1_optionD,pracQ1_valueA,pracQ1_valueB,pracQ1_valueC,pracQ1_valueD,pracQ2_IDa,pracQ2_IDb,pracQ2_IDc,pracQ2_optionA,pracQ2_optionB,pracQ2_optionC,pracQ2_valueA,pracQ2_valueB,pracQ2_valueC,pracQ4_IDa,pracQ4_IDb,pracQ4_IDc,pracQ4_IDd,pracQ4_optionA,pracQ4_optionB,pracQ4_optionC,pracQ4_optionD,pracQ4_valueA,pracQ4_valueB,pracQ4_valueC,pracQ4_valueD,pracQ5_IDa,pracQ5_IDb,pracQ5_IDc,pracQ5_IDd,pracQ5_optionA,pracQ5_optionB,pracQ5_optionC,pracQ5_optionD,pracQ5_valueA,pracQ5_valueB,pracQ5_valueC,pracQ5_valueD,prefHealty,prefUnhealthy,prolific_ID,psessionID,pstudyID,rep,response,response_action,skip,snack,sublock,subtitle,task_difficulty,task_engagement,task_focus,textL,textR,time_commit,time_end,time_render,time_run,time_show,time_switch,trial_count,trial_countO,url,valence
Title,html.Page,0,2021-05-24T16:08:12.247Z,"{""labjs_version"":""20.2.2"",""labjs_build"":{""flavor"":""production"",""commit"":""a25486e0c714a0ae2ce03ff94b7bb6896854dcfa""},""location"":""https://run.pavlovia.org/E3lab/rebund/html/?PROLIFIC_PID=5d27dd89b5c5f40001a91b0e&STUDY_ID=60008f34cd719d13b0d706dd&SESSION_ID=60abcf561a5a2b0fe3865457"",""userAgent"":""Mozilla/5.0 (Macintosh; Intel Mac OS X 10_15_7) AppleWebKit/537.36 (KHTML, like Gecko) Chrome/90.0.4430.212 Safari/537.36"",""platform"":""MacIntel"",""language"":""en-US"",""locale"":""en-US"",""timeZone"":""America/Denver"",""timezoneOffset"":360,""screen_width"":1440,""screen_height"":900,""scroll_width"":1440,""scroll_height"":716,""window_innerWidth"":1440,""window_innerHeight"":764,""devicePixelRatio"":2}",,,,,,,,,,,,,,,,,,,,,,,,,,,,,,,,,,,,,,,,,,,,,,,,,,,,,,,,,,,,,,,,,,,,,,,,,,,,,,,,,,,,,,,,,,,,,,,,,,,,,,,,,,,,,,,,,,,4479.538000000104,,form submission,,,,,,,,,,,,,,,,,,,,,,,,,,,,,,,,,,,,,,,,,,,,,,,,,,,,,,,,,,,,,,,,,,,,,,,,,,,,,,,,,,,,,,,8096.54999999475,8096.050000000105,3566.514,3581.034999995609,3616.512,8099.666,,,"{""PROLIFIC_PID"":""5d27dd89b5c5f40001a91b0e"",""STUDY_ID"":""60008f34cd719d13b0d706dd"",""SESSION_ID"":""60abcf561a5a2b0fe3865457""}",
get_systemInfo,canvas.Screen,1,2021-05-24T16:08:12.262Z,,,,,,,,,,,,,,,,,,,,,,,,,,,,,,,,,,,,,,,,,,,,,,,,,,,,,,,,,,,,,,,,,,,,,,,,,,,,,,,,,,,,,,,,,,,,,,,,,,,,,,,,,Chrome,,,,,,,,,,,2866.5520000000006,,timeout,,90.0.4430.212,,,,,,,,,,,,90,,,,,,,,Netscape,"Mozilla/5.0 (Macintosh; Intel Mac OS X 10_15_7) AppleWebKit/537.36 (KHTML, like Gecko) Chrome/90.0.4430.212 Safari/537.36",MacOS,,,,,,,,,,,,,,,,,,,,,,,,,,,,,,,,,,,,,,,,,,,,,,,,5d27dd89b5c5f40001a91b0e,,60008f34cd719d13b0d706dd,,,,,,,,,,,,,8112.424999999348,8112.049999996088,8083,8097.909999996773,8099.666,10966.218,,,,
ConsentForm,html.Form,2_0,2021-05-24T16:08:51.236Z,,,,,,,,,,,,,,,,,,,,,,,,,,,,,,,,,,,,,,,,,,,,,,,,,,,,,,,,,,,,,,,,,,,,,,,,,,,,,,,,,,,,,,,,,,,,,,,,,,,,,,,,,,,,true,true,,,,,,,36120.286999999305,,form submission,,,,,,,,,,,,,,,,,,,,,,,,,,,,,,,,,,,,,,,,,,,,,,,,,,,,,,,,,,,,,,,,,,,,,,,,,,,,,,,,,,,,,,,47087.10999999312,47086.504999999306,8112.049999996088,10966.494999993301,10966.218,47097.272,,,,
PepTalk,html.Page,2_1,2021-05-24T16:09:08.628Z,,,,,,,,,,,,,,,,,,,,,,,,,,,,,,,,,,,,,,,,,,,,,,,,,,,,,,,,,,,,,,,,,,,,,,,,,,,,,,,,,,,,,,,,,,,,,,,,,,,,,,,,,,,,,,,,,,,,17381.172999993374,,form submission,,,,,,,,,,,,,,,,,,,,,,,,,,,,,,,,,,,,,,,,,,,,,,,,,,,,,,,,,,,,,,,,,,,,,,,,,,,,,,,,,,,,,,,64478.96999999648,64478.44499999337,47080.606,47091.48499999719,47097.272,64490.497,,,,
Demographics,html.Form,2_2,2021-05-24T16:09:33.443Z,,,,,,,,,,,,,,,,,,,,,,,,,,,,,,,,,,,,,,,,,,,,,,,,,,,,,,,,,,,,,,,,,,,,,,,,,,,,,,,,,,,,,,,,,,,,,,,,,,,,,,,,,,,,,,,,,,,,24802.837999994837,3,form submission,,,1,,,,,25,,Graduate Student Researcher,,,,,,,,,,,,,,,,,,,,,,,,,,,,,,,,,,,,,,,,,,,,,,,,,,,,,,,,,,,,,,,,,,,,,,,,,,,,,89294.06999999628,89293.33499999484,64473.831,64479.10999999294,64490.497,89291.963,,,,
InclusionCrit,html.Form,2_3,2021-05-24T16:09:40.414Z,,,,,,,,,,,,,,,,,,,,,,,,,,,,,,,,,,,,,,,,,,,,,,,,,,,,,,,,,,,,,,,,,,,,,,,,,,,,,,,,,,,,,,,,,,,,,,,,,,,,,,,,,,,,,,,,,,1,0,6972.731999998025,,form submission,1,,,,,,,,,,,,,,,,,,,,,,,,,,,,,,,,,,,,,,,,,,,,,,,,,,,,,,,,,,,,,,,,,,,,,,,,,,,,,,,,,,,,,,96265.21999999386,96264.69499999803,89275.297,89294.39499999717,89291.963,96275.876,,,,
Selection,html.Page,2_4_0,2021-05-24T16:09:46.089Z,,,,,,,,,,,,,,,,,,,,,,,,,,,,,,,,,,,,,,,,,,,,,,,,,,,,,,,,,,,,,,,,,,,,,,,,,,,,,,,,,,,,,,,,,,,,,,,,,,,,,,,,,,,,,,,,,,,,5664.183999993533,,form submission,,,,,,,,,,,,,,,,,,,,,,,,,,,,,,,,,,,,,,,,,,,,,,,,,,,,,,,,,,,,,,,,,,,,,,,,,,,,,,,0,,,,,,,,101940.56499999715,101940.05999999354,96259.21,96265.60999999492,96275.876,101942.316,,,,
Load,html.Page,2_4_1,2021-05-24T16:09:46.097Z,,,,,,,,,,,,,,,,,,,,,,,,,,,,,,,,,,,,,,,,,,,,,,,,,,,,,,,,,,,,,,,,,,,,,,,,,,,,,,,,,,,,,,,,,,,,,,,,,,,,,,,,,,,,,,,,,,,,9015.154999999999,,timeout,,,,,,,,,,,,,,,,,,,,,,,,,,,,,,,,,,,,,,,,,,,,,,,,,,,,,,,,,,,,,,,,,,,,,,,,,,,,,,,,,,,,,,,101948.2199999984,101947.89999999921,101925.65,101940.86499999685,101942.316,110957.471,,,,
ratings_instructions,html.Screen,2_4_2_0,2021-05-24T16:10:04.462Z,,,,,,,,,,,,,,,,,,,,,,,,,,,,,,,,,,,,,,,,,,,,,,,,,,,,,,,,,,,,,,,,,,,,,,,,,,,,,,,,,,,,,,,,,,,,,,,,,,,,,,,,,,,,,,,,,,,,9344.528999996037,,response,,,,,,,,,,,,,,,,,,,,,,,,,,,,,,,,,,,,,,,,,,,,,,,,,,,,,,,,,,,,,,,,,,,,,,,,,,,,continue,keypress(Space),false,,,,,,,,,120313.83499999356,120301.99999999604,101947.89999999921,110996.95999999676,110957.471,120323.763,0,0,,
fixCross,canvas.Screen,2_4_2_1_0_0,2021-05-24T16:10:04.958Z,,,,,,,,,,,,,,,,,,,,,,,,,,,,,,,,,,,,,,,,,,,,,,,,,,,,,,,,,,,,,,,,,,,,,,,,,,,,,,,,,,,,,,,,,,,,,,,,,,,,,,,,,,,,,,,,,,,,499.9799999999959,,timeout,,,,unhealthy,,liqorice.png,,,,,,,,,,,,,,,liquorice,,,,,,,,,,,,,,,,,,,,,,,,,,,,,,,,,,,,,,,,,,,,,,,,,,,,,,,,,false,,,,,,,,,120809.68500000017,120807.077,120307.097,120314.52499999432,120323.763,120823.743,,,,
Rating,html.Form,2_4_2_1_0_1,2021-05-24T16:10:09.207Z,,,,,,,,,,,,,,,,,,,,,,,,,,,,,,,,,,,,,,,,,,,,,,,,,,,,,,,,,,,,,,,,,,,,,,,,,,,,,,,,,,,,,,,,,,,,,,,,,,,,,,,,,,,,,,,,,,,,4234.411999998803,,form submission,,,,unhealthy,,liqorice.png,,,,,,,,,,,,,,,liquorice,,,,,,,,,,,,,,,,,,,,,,,,,,,,,,,,,,,,,,,,,,,,,,,,,,,,,,,,,false,,,,,,,,,125059.25999999454,125058.1549999988,120807.077,120809.93999999919,120823.743,125077.992,,,,0
rating_sequence,flow.Sequence,2_4_2_1_0,2021-05-24T16:10:09.209Z,,,,,,,,,,,,,,,,,,,,,,,,,,,,,,,,,,,,,,,,,,,,,,,,,,,,,,,,,,,,,,,,,,,,,,,,,,,,,,,,,,,,,,,,,,,,,,,,,,,,,,,,,,,,,,,,,,,,4734.391999998799,,completion,,,,unhealthy,,liqorice.png,,,,,,,,,,,,,,,liquorice,,,,,,,,,,,,,,,,,,,,,,,,,,,,,,,,,,,,,,,,,,,,,,,,,,,,,,,,,false,,,,,,,,,125060.58499999926,125058.1549999988,120307.097,120314.46999999753,120323.763,125077.992,,,,
fixCross,canvas.Screen,2_4_2_1_1_0,2021-05-24T16:10:09.712Z,,,,,,,,,,,,,,,,,,,,,,,,,,,,,,,,,,,,,,,,,,,,,,,,,,,,,,,,,,,,,,,,,,,,,,,,,,,,,,,,,,,,,,,,,,,,,,,,,,,,,,,,,,,,,,,,,,,,499.9799999999959,,timeout,,,,unhealthy,,m&m.png,,,,,,,,,,,,,,,m&m,,,,,,,,,,,,,,,,,,,,,,,,,,,,,,,,,,,,,,,,,,,,,,,,,,,,,,,,,false,,,,,,,,,125563.69999999879,125561.306,125061.326,125060.75999999302,125077.992,125577.972,,,,
Rating,html.Form,2_4_2_1_1_1,2021-05-24T16:10:13.746Z,,,,,,,,,,,,,,,,,,,,,,,,,,,,,,,,,,,,,,,,,,,,,,,,,,,,,,,,,,,,,,,,,,,,,,,,,,,,,,,,,,,,,,,,,,,,,,,,,,,,,,,,,,,,,,,,,,,,4019.7829999952373,,form submission,,,,unhealthy,,m&m.png,,,,,,,,,,,,,,,m&m,,,,,,,,,,,,,,,,,,,,,,,,,,,,,,,,,,,,,,,,,,,,,,,,,,,,,,,,,false,,,,,,,,,129598.13500000018,129597.75499999523,125561.306,125563.94499999442,125577.972,129611.144,,,,62
rating_sequence,flow.Sequence,2_4_2_1_1,2021-05-24T16:10:13.746Z,,,,,,,,,,,,,,,,,,,,,,,,,,,,,,,,,,,,,,,,,,,,,,,,,,,,,,,,,,,,,,,,,,,,,,,,,,,,,,,,,,,,,,,,,,,,,,,,,,,,,,,,,,,,,,,,,,,,4519.762999995233,,completion,,,,unhealthy,,m&m.png,,,,,,,,,,,,,,,m&m,,,,,,,,,,,,,,,,,,,,,,,,,,,,,,,,,,,,,,,,,,,,,,,,,,,,,,,,,false,,,,,,,,,129598.48499999498,129597.75499999523,125061.326,125060.71499999962,125077.992,129611.144,,,,
fixCross,canvas.Screen,2_4_2_1_2_0,2021-05-24T16:10:14.245Z,,,,,,,,,,,,,,,,,,,,,,,,,,,,,,,,,,,,,,,,,,,,,,,,,,,,,,,,,,,,,,,,,,,,,,,,,,,,,,,,,,,,,,,,,,,,,,,,,,,,,,,,,,,,,,,,,,,,499.9799999999959,,timeout,,,,healthy,,apple.png,,,,,,,,,,,,,,,apple,,,,,,,,,,,,,,,,,,,,,,,,,,,,,,,,,,,,,,,,,,,,,,,,,,,,,,,,,false,,,,,,,,,130096.68999999849,130094.458,129594.478,129598.67499999382,129611.144,130111.124,,,,
Rating,html.Form,2_4_2_1_2_1,2021-05-24T16:10:18.802Z,,,,,,,,,,,,,,,,,,,,,,,,,,,,,,,,,,,,,,,,,,,,,,,,,,,,,,,,,,,,,,,,,,,,,,,,,,,,,,,,,,,,,,,,,,,,,,,,,,,,,,,,,,,,,,,,,,,,4542.345999997473,,form submission,,,,healthy,,apple.png,,,,,,,,,,,,,,,apple,,,,,,,,,,,,,,,,,,,,,,,,,,,,,,,,,,,,,,,,,,,,,,,,,,,,,,,,,false,,,,,,,,,134654.08499999467,134653.46999999747,130094.458,130096.93499999412,130111.124,134669.515,,,,31
rating_sequence,flow.Sequence,2_4_2_1_2,2021-05-24T16:10:18.802Z,,,,,,,,,,,,,,,,,,,,,,,,,,,,,,,,,,,,,,,,,,,,,,,,,,,,,,,,,,,,,,,,,,,,,,,,,,,,,,,,,,,,,,,,,,,,,,,,,,,,,,,,,,,,,,,,,,,,5042.325999997469,,completion,,,,healthy,,apple.png,,,,,,,,,,,,,,,apple,,,,,,,,,,,,,,,,,,,,,,,,,,,,,,,,,,,,,,,,,,,,,,,,,,,,,,,,,false,,,,,,,,,134654.63499999896,134653.46999999747,129594.478,129598.62499999872,129611.144,134669.515,,,,
fixCross,canvas.Screen,2_4_2_1_3_0,2021-05-24T16:10:19.303Z,,,,,,,,,,,,,,,,,,,,,,,,,,,,,,,,,,,,,,,,,,,,,,,,,,,,,,,,,,,,,,,,,,,,,,,,,,,,,,,,,,,,,,,,,,,,,,,,,,,,,,,,,,,,,,,,,,,,499.9799999999814,,timeout,,,,healthy,,grape.png,,,,,,,,,,,,,,,grape,,,,,,,,,,,,,,,,,,,,,,,,,,,,,,,,,,,,,,,,,,,,,,,,,,,,,,,,,false,,,,,,,,,135154.97999999934,135152.829,134652.849,134654.91499999916,134669.515,135169.495,,,,
Rating,html.Form,2_4_2_1_3_1,2021-05-24T16:10:24.240Z,,,,,,,,,,,,,,,,,,,,,,,,,,,,,,,,,,,,,,,,,,,,,,,,,,,,,,,,,,,,,,,,,,,,,,,,,,,,,,,,,,,,,,,,,,,,,,,,,,,,,,,,,,,,,,,,,,,,4922.729999993055,,form submission,,,,healthy,,grape.png,,,,,,,,,,,,,,,grape,,,,,,,,,,,,,,,,,,,,,,,,,,,,,,,,,,,,,,,,,,,,,,,,,,,,,,,,,false,,,,,,,,,140092.74499999447,140092.22499999305,135152.829,135155.82999999606,135169.495,140102.631,,,,87
rating_sequence,flow.Sequence,2_4_2_1_3,2021-05-24T16:10:24.241Z,,,,,,,,,,,,,,,,,,,,,,,,,,,,,,,,,,,,,,,,,,,,,,,,,,,,,,,,,,,,,,,,,,,,,,,,,,,,,,,,,,,,,,,,,,,,,,,,,,,,,,,,,,,,,,,,,,,,5422.709999993036,,completion,,,,healthy,,grape.png,,,,,,,,,,,,,,,grape,,,,,,,,,,,,,,,,,,,,,,,,,,,,,,,,,,,,,,,,,,,,,,,,,,,,,,,,,false,,,,,,,,,140093.2249999969,140092.22499999305,134652.849,134654.8449999973,134669.515,140102.631,,,,
fixCross,canvas.Screen,2_4_2_1_4_0,2021-05-24T16:10:24.737Z,,,,,,,,,,,,,,,,,,,,,,,,,,,,,,,,,,,,,,,,,,,,,,,,,,,,,,,,,,,,,,,,,,,,,,,,,,,,,,,,,,,,,,,,,,,,,,,,,,,,,,,,,,,,,,,,,,,,499.9800000000105,,timeout,,,,healthy,,pear.png,,,,,,,,,,,,,,,pear,,,,,,,,,,,,,,,,,,,,,,,,,,,,,,,,,,,,,,,,,,,,,,,,,,,,,,,,,false,,,,,,,,,140588.8549999945,140585.945,140085.965,140093.5049999971,140102.631,140602.611,,,,
Rating,html.Form,2_4_2_1_4_1,2021-05-24T16:10:28.465Z,,,,,,,,,,,,,,,,,,,,,,,,,,,,,,,,,,,,,,,,,,,,,,,,,,,,,,,,,,,,,,,,,,,,,,,,,,,,,,,,,,,,,,,,,,,,,,,,,,,,,,,,,,,,,,,,,,,,3713.878999997425,,form submission,,,,healthy,,pear.png,,,,,,,,,,,,,,,pear,,,,,,,,,,,,,,,,,,,,,,,,,,,,,,,,,,,,,,,,,,,,,,,,,,,,,,,,,false,,,,,,,,,144317.25999999617,144316.48999999743,140585.945,140589.4399999961,140602.611,144320.351,,,,90
rating_sequence,flow.Sequence,2_4_2_1_4,2021-05-24T16:10:28.465Z,,,,,,,,,,,,,,,,,,,,,,,,,,,,,,,,,,,,,,,,,,,,,,,,,,,,,,,,,,,,,,,,,,,,,,,,,,,,,,,,,,,,,,,,,,,,,,,,,,,,,,,,,,,,,,,,,,,,4213.858999997436,,completion,,,,healthy,,pear.png,,,,,,,,,,,,,,,pear,,,,,,,,,,,,,,,,,,,,,,,,,,,,,,,,,,,,,,,,,,,,,,,,,,,,,,,,,false,,,,,,,,,144317.64499999554,144316.48999999743,140085.965,140093.43499999522,140102.631,144320.351,,,,
fixCross,canvas.Screen,2_4_2_1_5_0,2021-05-24T16:10:28.953Z,,,,,,,,,,,,,,,,,,,,,,,,,,,,,,,,,,,,,,,,,,,,,,,,,,,,,,,,,,,,,,,,,,,,,,,,,,,,,,,,,,,,,,,,,,,,,,,,,,,,,,,,,,,,,,,,,,,,499.9800000000105,,timeout,,,,healthy,,coconut.png,,,,,,,,,,,,,,,coconut,,,,,,,,,,,,,,,,,,,,,,,,,,,,,,,,,,,,,,,,,,,,,,,,,,,,,,,,,false,,,,,,,,,144804.90499999723,144803.665,144303.685,144317.83999999607,144320.351,144820.331,,,,
Rating,html.Form,2_4_2_1_5_1,2021-05-24T16:10:32.746Z,,,,,,,,,,,,,,,,,,,,,,,,,,,,,,,,,,,,,,,,,,,,,,,,,,,,,,,,,,,,,,,,,,,,,,,,,,,,,,,,,,,,,,,,,,,,,,,,,,,,,,,,,,,,,,,,,,,,3777.613999994064,,form submission,,,,healthy,,coconut.png,,,,,,,,,,,,,,,coconut,,,,,,,,,,,,,,,,,,,,,,,,,,,,,,,,,,,,,,,,,,,,,,,,,,,,,,,,,false,,,,,,,,,148598.28999999445,148597.94499999407,144803.665,144805.10499999946,144820.331,148620.179,,,,43
rating_sequence,flow.Sequence,2_4_2_1_5,2021-05-24T16:10:32.746Z,,,,,,,,,,,,,,,,,,,,,,,,,,,,,,,,,,,,,,,,,,,,,,,,,,,,,,,,,,,,,,,,,,,,,,,,,,,,,,,,,,,,,,,,,,,,,,,,,,,,,,,,,,,,,,,,,,,,4277.593999994075,,completion,,,,healthy,,coconut.png,,,,,,,,,,,,,,,coconut,,,,,,,,,,,,,,,,,,,,,,,,,,,,,,,,,,,,,,,,,,,,,,,,,,,,,,,,,false,,,,,,,,,148598.60999999364,148597.94499999407,144303.685,144317.7899999937,144320.351,148620.179,,,,
fixCross,canvas.Screen,2_4_2_1_6_0,2021-05-24T16:10:33.253Z,,,,,,,,,,,,,,,,,,,,,,,,,,,,,,,,,,,,,,,,,,,,,,,,,,,,,,,,,,,,,,,,,,,,,,,,,,,,,,,,,,,,,,,,,,,,,,,,,,,,,,,,,,,,,,,,,,,,499.9800000000105,,timeout,,,,unhealthy,,chocolate_truffle.png,,,,,,,,,,,,,,,chocolate truffle,,,,,,,,,,,,,,,,,,,,,,,,,,,,,,,,,,,,,,,,,,,,,,,,,,,,,,,,,false,,,,,,,,,149105.52999999345,149103.493,148603.513,148598.78499999468,148620.179,149120.159,,,,
Rating,html.Form,2_4_2_1_6_1,2021-05-24T16:10:36.048Z,,,,,,,,,,,,,,,,,,,,,,,,,,,,,,,,,,,,,,,,,,,,,,,,,,,,,,,,,,,,,,,,,,,,,,,,,,,,,,,,,,,,,,,,,,,,,,,,,,,,,,,,,,,,,,,,,,,,2779.7009999977017,,form submission,,,,unhealthy,,chocolate_truffle.png,,,,,,,,,,,,,,,chocolate truffle,,,,,,,,,,,,,,,,,,,,,,,,,,,,,,,,,,,,,,,,,,,,,,,,,,,,,,,,,false,,,,,,,,,151900.34000000014,151899.85999999772,149103.493,149105.76999999466,149120.159,151903.381,,,,100
rating_sequence,flow.Sequence,2_4_2_1_6,2021-05-24T16:10:36.048Z,,,,,,,,,,,,,,,,,,,,,,,,,,,,,,,,,,,,,,,,,,,,,,,,,,,,,,,,,,,,,,,,,,,,,,,,,,,,,,,,,,,,,,,,,,,,,,,,,,,,,,,,,,,,,,,,,,,,3279.680999997712,,completion,,,,unhealthy,,chocolate_truffle.png,,,,,,,,,,,,,,,chocolate truffle,,,,,,,,,,,,,,,,,,,,,,,,,,,,,,,,,,,,,,,,,,,,,,,,,,,,,,,,,false,,,,,,,,,151900.7949999941,151899.85999999772,148603.513,148598.73499999958,148620.179,151903.381,,,,
fixCross,canvas.Screen,2_4_2_1_7_0,2021-05-24T16:10:36.554Z,,,,,,,,,,,,,,,,,,,,,,,,,,,,,,,,,,,,,,,,,,,,,,,,,,,,,,,,,,,,,,,,,,,,,,,,,,,,,,,,,,,,,,,,,,,,,,,,,,,,,,,,,,,,,,,,,,,,499.9800000000105,,timeout,,,,unhealthy,,gummybear.png,,,,,,,,,,,,,,,gummybear,,,,,,,,,,,,,,,,,,,,,,,,,,,,,,,,,,,,,,,,,,,,,,,,,,,,,,,,,false,,,,,,,,,152406.41999999934,152386.695,151886.715,151901.039999997,151903.381,152403.361,,,,
Rating,html.Form,2_4_2_1_7_1,2021-05-24T16:10:40.467Z,,,,,,,,,,,,,,,,,,,,,,,,,,,,,,,,,,,,,,,,,,,,,,,,,,,,,,,,,,,,,,,,,,,,,,,,,,,,,,,,,,,,,,,,,,,,,,,,,,,,,,,,,,,,,,,,,,,,3916.0489999964193,,form submission,,,,unhealthy,,gummybear.png,,,,,,,,,,,,,,,gummybear,,,,,,,,,,,,,,,,,,,,,,,,,,,,,,,,,,,,,,,,,,,,,,,,,,,,,,,,,false,,,,,,,,,156319.7949999958,156319.40999999642,152386.695,152406.6199999943,152403.361,156332.23,,,,21
rating_sequence,flow.Sequence,2_4_2_1_7,2021-05-24T16:10:40.468Z,,,,,,,,,,,,,,,,,,,,,,,,,,,,,,,,,,,,,,,,,,,,,,,,,,,,,,,,,,,,,,,,,,,,,,,,,,,,,,,,,,,,,,,,,,,,,,,,,,,,,,,,,,,,,,,,,,,,4416.02899999643,,completion,,,,unhealthy,,gummybear.png,,,,,,,,,,,,,,,gummybear,,,,,,,,,,,,,,,,,,,,,,,,,,,,,,,,,,,,,,,,,,,,,,,,,,,,,,,,,false,,,,,,,,,156320.14999999956,156319.40999999642,151886.715,151900.96999999514,151903.381,156332.23,,,,
fixCross,canvas.Screen,2_4_2_1_8_0,2021-05-24T16:10:40.965Z,,,,,,,,,,,,,,,,,,,,,,,,,,,,,,,,,,,,,,,,,,,,,,,,,,,,,,,,,,,,,,,,,,,,,,,,,,,,,,,,,,,,,,,,,,,,,,,,,,,,,,,,,,,,,,,,,,,,499.9799999999814,,timeout,,,,healthy,,blueberry.png,,,,,,,,,,,,,,,blueberry,,,,,,,,,,,,,,,,,,,,,,,,,,,,,,,,,,,,,,,,,,,,,,,,,,,,,,,,,false,,,,,,,,,156817.93999999354,156815.544,156315.564,156320.3749999957,156332.23,156832.21,,,,
Rating,html.Form,2_4_2_1_8_1,2021-05-24T16:10:44.218Z,,,,,,,,,,,,,,,,,,,,,,,,,,,,,,,,,,,,,,,,,,,,,,,,,,,,,,,,,,,,,,,,,,,,,,,,,,,,,,,,,,,,,,,,,,,,,,,,,,,,,,,,,,,,,,,,,,,,3237.534999993426,,form submission,,,,healthy,,blueberry.png,,,,,,,,,,,,,,,blueberry,,,,,,,,,,,,,,,,,,,,,,,,,,,,,,,,,,,,,,,,,,,,,,,,,,,,,,,,,false,,,,,,,,,160070.11499999498,160069.74499999342,156815.544,156818.16999999864,156832.21,160082.08,,,,75
rating_sequence,flow.Sequence,2_4_2_1_8,2021-05-24T16:10:44.218Z,,,,,,,,,,,,,,,,,,,,,,,,,,,,,,,,,,,,,,,,,,,,,,,,,,,,,,,,,,,,,,,,,,,,,,,,,,,,,,,,,,,,,,,,,,,,,,,,,,,,,,,,,,,,,,,,,,,,3737.5149999934074,,completion,,,,healthy,,blueberry.png,,,,,,,,,,,,,,,blueberry,,,,,,,,,,,,,,,,,,,,,,,,,,,,,,,,,,,,,,,,,,,,,,,,,,,,,,,,,false,,,,,,,,,160070.46499999706,160069.74499999342,156315.564,156320.30499999382,156332.23,160082.08,,,,
fixCross,canvas.Screen,2_4_2_1_9_0,2021-05-24T16:10:44.715Z,,,,,,,,,,,,,,,,,,,,,,,,,,,,,,,,,,,,,,,,,,,,,,,,,,,,,,,,,,,,,,,,,,,,,,,,,,,,,,,,,,,,,,,,,,,,,,,,,,,,,,,,,,,,,,,,,,,,499.9800000000105,,timeout,,,,healthy,,cherry.png,,,,,,,,,,,,,,,cherry,,,,,,,,,,,,,,,,,,,,,,,,,,,,,,,,,,,,,,,,,,,,,,,,,,,,,,,,,false,,,,,,,,,160567.57999999536,160565.394,160065.414,160070.6449999998,160082.08,160582.06,,,,
Rating,html.Form,2_4_2_1_9_1,2021-05-24T16:10:48.326Z,,,,,,,,,,,,,,,,,,,,,,,,,,,,,,,,,,,,,,,,,,,,,,,,,,,,,,,,,,,,,,,,,,,,,,,,,,,,,,,,,,,,,,,,,,,,,,,,,,,,,,,,,,,,,,,,,,,,3596.2399999995832,,form submission,,,,healthy,,cherry.png,,,,,,,,,,,,,,,cherry,,,,,,,,,,,,,,,,,,,,,,,,,,,,,,,,,,,,,,,,,,,,,,,,,,,,,,,,,false,,,,,,,,,164178.63999999827,164178.29999999958,160565.394,160567.81999999657,160582.06,164207.27,,,,100
rating_sequence,flow.Sequence,2_4_2_1_9,2021-05-24T16:10:48.326Z,,,,,,,,,,,,,,,,,,,,,,,,,,,,,,,,,,,,,,,,,,,,,,,,,,,,,,,,,,,,,,,,,,,,,,,,,,,,,,,,,,,,,,,,,,,,,,,,,,,,,,,,,,,,,,,,,,,,4096.219999999594,,completion,,,,healthy,,cherry.png,,,,,,,,,,,,,,,cherry,,,,,,,,,,,,,,,,,,,,,,,,,,,,,,,,,,,,,,,,,,,,,,,,,,,,,,,,,false,,,,,,,,,164178.97499999526,164178.29999999958,160065.414,160070.5949999974,160082.08,164207.27,,,,
fixCross,canvas.Screen,2_4_2_1_10_0,2021-05-24T16:10:48.840Z,,,,,,,,,,,,,,,,,,,,,,,,,,,,,,,,,,,,,,,,,,,,,,,,,,,,,,,,,,,,,,,,,,,,,,,,,,,,,,,,,,,,,,,,,,,,,,,,,,,,,,,,,,,,,,,,,,,,499.9800000000105,,timeout,,,,healthy,,orange.png,,,,,,,,,,,,,,,orange,,,,,,,,,,,,,,,,,,,,,,,,,,,,,,,,,,,,,,,,,,,,,,,,,,,,,,,,,false,,,,,,,,,164692.33499999973,164690.584,164190.604,164179.1649999941,164207.27,164707.25,,,,
Rating,html.Form,2_4_2_1_10_1,2021-05-24T16:10:51.875Z,,,,,,,,,,,,,,,,,,,,,,,,,,,,,,,,,,,,,,,,,,,,,,,,,,,,,,,,,,,,,,,,,,,,,,,,,,,,,,,,,,,,,,,,,,,,,,,,,,,,,,,,,,,,,,,,,,,,3019.6649999992806,,form submission,,,,healthy,,orange.png,,,,,,,,,,,,,,,orange,,,,,,,,,,,,,,,,,,,,,,,,,,,,,,,,,,,,,,,,,,,,,,,,,,,,,,,,,false,,,,,,,,,167727.36499999883,167726.91499999928,164690.584,164692.53999999637,164707.25,167740.462,,,,82
rating_sequence,flow.Sequence,2_4_2_1_10,2021-05-24T16:10:51.875Z,,,,,,,,,,,,,,,,,,,,,,,,,,,,,,,,,,,,,,,,,,,,,,,,,,,,,,,,,,,,,,,,,,,,,,,,,,,,,,,,,,,,,,,,,,,,,,,,,,,,,,,,,,,,,,,,,,,,3519.644999999291,,completion,,,,healthy,,orange.png,,,,,,,,,,,,,,,orange,,,,,,,,,,,,,,,,,,,,,,,,,,,,,,,,,,,,,,,,,,,,,,,,,,,,,,,,,false,,,,,,,,,167727.82000000007,167726.91499999928,164190.604,164179.114999999,164207.27,167740.462,,,,
fixCross,canvas.Screen,2_4_2_1_11_0,2021-05-24T16:10:52.373Z,,,,,,,,,,,,,,,,,,,,,,,,,,,,,,,,,,,,,,,,,,,,,,,,,,,,,,,,,,,,,,,,,,,,,,,,,,,,,,,,,,,,,,,,,,,,,,,,,,,,,,,,,,,,,,,,,,,,499.9800000000105,,timeout,,,,healthy,,raspberry.png,,,,,,,,,,,,,,,raspberry,,,,,,,,,,,,,,,,,,,,,,,,,,,,,,,,,,,,,,,,,,,,,,,,,,,,,,,,,false,,,,,,,,,168225.88999999425,168223.776,167723.796,167728.0649999957,167740.462,168240.442,,,,
Rating,html.Form,2_4_2_1_11_1,2021-05-24T16:10:55.413Z,,,,,,,,,,,,,,,,,,,,,,,,,,,,,,,,,,,,,,,,,,,,,,,,,,,,,,,,,,,,,,,,,,,,,,,,,,,,,,,,,,,,,,,,,,,,,,,,,,,,,,,,,,,,,,,,,,,,3024.9479999931937,,form submission,,,,healthy,,raspberry.png,,,,,,,,,,,,,,,raspberry,,,,,,,,,,,,,,,,,,,,,,,,,,,,,,,,,,,,,,,,,,,,,,,,,,,,,,,,,false,,,,,,,,,171265.75499999308,171265.3899999932,168223.776,168226.08999999647,168240.442,171290.32,,,,100
rating_sequence,flow.Sequence,2_4_2_1_11,2021-05-24T16:10:55.413Z,,,,,,,,,,,,,,,,,,,,,,,,,,,,,,,,,,,,,,,,,,,,,,,,,,,,,,,,,,,,,,,,,,,,,,,,,,,,,,,,,,,,,,,,,,,,,,,,,,,,,,,,,,,,,,,,,,,,3524.927999993204,,completion,,,,healthy,,raspberry.png,,,,,,,,,,,,,,,raspberry,,,,,,,,,,,,,,,,,,,,,,,,,,,,,,,,,,,,,,,,,,,,,,,,,,,,,,,,,false,,,,,,,,,171266.09499999904,171265.3899999932,167723.796,167727.99499999383,167740.462,171290.32,,,,
fixCross,canvas.Screen,2_4_2_1_12_0,2021-05-24T16:10:55.923Z,,,,,,,,,,,,,,,,,,,,,,,,,,,,,,,,,,,,,,,,,,,,,,,,,,,,,,,,,,,,,,,,,,,,,,,,,,,,,,,,,,,,,,,,,,,,,,,,,,,,,,,,,,,,,,,,,,,,499.9799999999814,,timeout,,,,unhealthy,,marshmallow.png,,,,,,,,,,,,,,,marshmallow,,,,,,,,,,,,,,,,,,,,,,,,,,,,,,,,,,,,,,,,,,,,,,,,,,,,,,,,,false,,,,,,,,,171775.94999999565,171773.634,171273.654,171266.27000000008,171290.32,171790.3,,,,
Rating,html.Form,2_4_2_1_12_1,2021-05-24T16:11:01.213Z,,,,,,,,,,,,,,,,,,,,,,,,,,,,,,,,,,,,,,,,,,,,,,,,,,,,,,,,,,,,,,,,,,,,,,,,,,,,,,,,,,,,,,,,,,,,,,,,,,,,,,,,,,,,,,,,,,,,5275.3499999968335,,form submission,,,,unhealthy,,marshmallow.png,,,,,,,,,,,,,,,marshmallow,,,,,,,,,,,,,,,,,,,,,,,,,,,,,,,,,,,,,,,,,,,,,,,,,,,,,,,,,false,,,,,,,,,177066.11999999586,177065.64999999682,171773.634,171776.17999999347,171790.3,177069.49,,,,55
rating_sequence,flow.Sequence,2_4_2_1_12,2021-05-24T16:11:01.214Z,,,,,,,,,,,,,,,,,,,,,,,,,,,,,,,,,,,,,,,,,,,,,,,,,,,,,,,,,,,,,,,,,,,,,,,,,,,,,,,,,,,,,,,,,,,,,,,,,,,,,,,,,,,,,,,,,,,,5775.329999996815,,completion,,,,unhealthy,,marshmallow.png,,,,,,,,,,,,,,,marshmallow,,,,,,,,,,,,,,,,,,,,,,,,,,,,,,,,,,,,,,,,,,,,,,,,,,,,,,,,,false,,,,,,,,,177066.5749999971,177065.64999999682,171273.654,171266.2199999977,171290.32,177069.49,,,,
fixCross,canvas.Screen,2_4_2_1_13_0,2021-05-24T16:11:01.702Z,,,,,,,,,,,,,,,,,,,,,,,,,,,,,,,,,,,,,,,,,,,,,,,,,,,,,,,,,,,,,,,,,,,,,,,,,,,,,,,,,,,,,,,,,,,,,,,,,,,,,,,,,,,,,,,,,,,,499.9800000000105,,timeout,,,,unhealthy,,chocolate.png,,,,,,,,,,,,,,,chocolate,,,,,,,,,,,,,,,,,,,,,,,,,,,,,,,,,,,,,,,,,,,,,,,,,,,,,,,,,false,,,,,,,,,177554.7349999979,177552.804,177052.824,177066.8149999983,177069.49,177569.47,,,,
Rating,html.Form,2_4_2_1_13_1,2021-05-24T16:11:04.358Z,,,,,,,,,,,,,,,,,,,,,,,,,,,,,,,,,,,,,,,,,,,,,,,,,,,,,,,,,,,,,,,,,,,,,,,,,,,,,,,,,,,,,,,,,,,,,,,,,,,,,,,,,,,,,,,,,,,,2640.544999996928,,form submission,,,,unhealthy,,chocolate.png,,,,,,,,,,,,,,,chocolate,,,,,,,,,,,,,,,,,,,,,,,,,,,,,,,,,,,,,,,,,,,,,,,,,,,,,,,,,false,,,,,,,,,180210.45999999478,180210.01499999693,177552.804,177554.96499999572,177569.47,180219.364,,,,73
rating_sequence,flow.Sequence,2_4_2_1_13,2021-05-24T16:11:04.358Z,,,,,,,,,,,,,,,,,,,,,,,,,,,,,,,,,,,,,,,,,,,,,,,,,,,,,,,,,,,,,,,,,,,,,,,,,,,,,,,,,,,,,,,,,,,,,,,,,,,,,,,,,,,,,,,,,,,,3140.5249999969383,,completion,,,,unhealthy,,chocolate.png,,,,,,,,,,,,,,,chocolate,,,,,,,,,,,,,,,,,,,,,,,,,,,,,,,,,,,,,,,,,,,,,,,,,,,,,,,,,false,,,,,,,,,180210.90999999433,180210.01499999693,177052.824,177066.74999999814,177069.49,180219.364,,,,
fixCross,canvas.Screen,2_4_2_1_14_0,2021-05-24T16:11:04.852Z,,,,,,,,,,,,,,,,,,,,,,,,,,,,,,,,,,,,,,,,,,,,,,,,,,,,,,,,,,,,,,,,,,,,,,,,,,,,,,,,,,,,,,,,,,,,,,,,,,,,,,,,,,,,,,,,,,,,499.9800000000105,,timeout,,,,unhealthy,,maltesers.png,,,,,,,,,,,,,,,malteser,,,,,,,,,,,,,,,,,,,,,,,,,,,,,,,,,,,,,,,,,,,,,,,,,,,,,,,,,false,,,,,,,,,180704.74499999546,180702.678,180202.698,180211.2649999981,180219.364,180719.344,,,,
Rating,html.Form,2_4_2_1_14_1,2021-05-24T16:11:08.361Z,,,,,,,,,,,,,,,,,,,,,,,,,,,,,,,,,,,,,,,,,,,,,,,,,,,,,,,,,,,,,,,,,,,,,,,,,,,,,,,,,,,,,,,,,,,,,,,,,,,,,,,,,,,,,,,,,,,,3494.1509999963164,,form submission,,,,unhealthy,,maltesers.png,,,,,,,,,,,,,,,malteser,,,,,,,,,,,,,,,,,,,,,,,,,,,,,,,,,,,,,,,,,,,,,,,,,,,,,,,,,false,,,,,,,,,184213.93999999418,184213.49499999633,180702.678,180704.97999999498,180719.344,184226.33,,,,8
rating_sequence,flow.Sequence,2_4_2_1_14,2021-05-24T16:11:08.361Z,,,,,,,,,,,,,,,,,,,,,,,,,,,,,,,,,,,,,,,,,,,,,,,,,,,,,,,,,,,,,,,,,,,,,,,,,,,,,,,,,,,,,,,,,,,,,,,,,,,,,,,,,,,,,,,,,,,,3994.130999996327,,completion,,,,unhealthy,,maltesers.png,,,,,,,,,,,,,,,malteser,,,,,,,,,,,,,,,,,,,,,,,,,,,,,,,,,,,,,,,,,,,,,,,,,,,,,,,,,false,,,,,,,,,184214.3849999993,184213.49499999633,180202.698,180211.09999999317,180219.364,184226.33,,,,
fixCross,canvas.Screen,2_4_2_1_15_0,2021-05-24T16:11:08.858Z,,,,,,,,,,,,,,,,,,,,,,,,,,,,,,,,,,,,,,,,,,,,,,,,,,,,,,,,,,,,,,,,,,,,,,,,,,,,,,,,,,,,,,,,,,,,,,,,,,,,,,,,,,,,,,,,,,,,499.9800000000105,,timeout,,,,unhealthy,,candy.png,,,,,,,,,,,,,,,candy,,,,,,,,,,,,,,,,,,,,,,,,,,,,,,,,,,,,,,,,,,,,,,,,,,,,,,,,,false,,,,,,,,,184711.1850000001,184709.644,184209.664,184214.62499999325,184226.33,184726.31,,,,
Rating,html.Form,2_4_2_1_15_1,2021-05-24T16:11:12.079Z,,,,,,,,,,,,,,,,,,,,,,,,,,,,,,,,,,,,,,,,,,,,,,,,,,,,,,,,,,,,,,,,,,,,,,,,,,,,,,,,,,,,,,,,,,,,,,,,,,,,,,,,,,,,,,,,,,,,3205.4899999984773,,form submission,,,,unhealthy,,candy.png,,,,,,,,,,,,,,,candy,,,,,,,,,,,,,,,,,,,,,,,,,,,,,,,,,,,,,,,,,,,,,,,,,,,,,,,,,false,,,,,,,,,187932.2749999992,187931.79999999847,184709.644,184711.38999999675,184726.31,187942.848,,,,19
rating_sequence,flow.Sequence,2_4_2_1_15,2021-05-24T16:11:12.080Z,,,,,,,,,,,,,,,,,,,,,,,,,,,,,,,,,,,,,,,,,,,,,,,,,,,,,,,,,,,,,,,,,,,,,,,,,,,,,,,,,,,,,,,,,,,,,,,,,,,,,,,,,,,,,,,,,,,,3705.4699999984878,,completion,,,,unhealthy,,candy.png,,,,,,,,,,,,,,,candy,,,,,,,,,,,,,,,,,,,,,,,,,,,,,,,,,,,,,,,,,,,,,,,,,,,,,,,,,false,,,,,,,,,187932.73499999486,187931.79999999847,184209.664,184214.55499999865,184226.33,187942.848,,,,
fixCross,canvas.Screen,2_4_2_1_16_0,2021-05-24T16:11:12.588Z,,,,,,,,,,,,,,,,,,,,,,,,,,,,,,,,,,,,,,,,,,,,,,,,,,,,,,,,,,,,,,,,,,,,,,,,,,,,,,,,,,,,,,,,,,,,,,,,,,,,,,,,,,,,,,,,,,,,499.9800000000105,,timeout,,,,unhealthy,,praline.png,,,,,,,,,,,,,,,praline,,,,,,,,,,,,,,,,,,,,,,,,,,,,,,,,,,,,,,,,,,,,,,,,,,,,,,,,,false,,,,,,,,,188440.85499999346,188426.162,187926.182,187932.98499999946,187942.848,188442.828,,,,
Rating,html.Form,2_4_2_1_16_1,2021-05-24T16:11:15.830Z,,,,,,,,,,,,,,,,,,,,,,,,,,,,,,,,,,,,,,,,,,,,,,,,,,,,,,,,,,,,,,,,,,,,,,,,,,,,,,,,,,,,,,,,,,,,,,,,,,,,,,,,,,,,,,,,,,,,3239.8669999958656,,form submission,,,,unhealthy,,praline.png,,,,,,,,,,,,,,,praline,,,,,,,,,,,,,,,,,,,,,,,,,,,,,,,,,,,,,,,,,,,,,,,,,,,,,,,,,false,,,,,,,,,191683.06999999913,191682.69499999587,188426.162,188441.0199999984,188442.828,191692.698,,,,39
rating_sequence,flow.Sequence,2_4_2_1_16,2021-05-24T16:11:15.830Z,,,,,,,,,,,,,,,,,,,,,,,,,,,,,,,,,,,,,,,,,,,,,,,,,,,,,,,,,,,,,,,,,,,,,,,,,,,,,,,,,,,,,,,,,,,,,,,,,,,,,,,,,,,,,,,,,,,,3739.846999995876,,completion,,,,unhealthy,,praline.png,,,,,,,,,,,,,,,praline,,,,,,,,,,,,,,,,,,,,,,,,,,,,,,,,,,,,,,,,,,,,,,,,,,,,,,,,,false,,,,,,,,,191683.44499999512,191682.69499999587,187926.182,187932.9149999976,187942.848,191692.698,,,,
fixCross,canvas.Screen,2_4_2_1_17_0,2021-05-24T16:11:16.327Z,,,,,,,,,,,,,,,,,,,,,,,,,,,,,,,,,,,,,,,,,,,,,,,,,,,,,,,,,,,,,,,,,,,,,,,,,,,,,,,,,,,,,,,,,,,,,,,,,,,,,,,,,,,,,,,,,,,,499.9800000000105,,timeout,,,,healthy,,strawberry.png,,,,,,,,,,,,,,,strawberry,,,,,,,,,,,,,,,,,,,,,,,,,,,,,,,,,,,,,,,,,,,,,,,,,,,,,,,,,false,,,,,,,,,192179.7249999945,192176.012,191676.032,191683.66499999684,191692.698,192192.678,,,,
Rating,html.Form,2_4_2_1_17_1,2021-05-24T16:11:19.132Z,,,,,,,,,,,,,,,,,,,,,,,,,,,,,,,,,,,,,,,,,,,,,,,,,,,,,,,,,,,,,,,,,,,,,,,,,,,,,,,,,,,,,,,,,,,,,,,,,,,,,,,,,,,,,,,,,,,,2792.4819999965257,,form submission,,,,healthy,,strawberry.png,,,,,,,,,,,,,,,strawberry,,,,,,,,,,,,,,,,,,,,,,,,,,,,,,,,,,,,,,,,,,,,,,,,,,,,,,,,,false,,,,,,,,,194985.63499999727,194985.15999999654,192176.012,192179.9350000001,192192.678,195003.253,,,,84
rating_sequence,flow.Sequence,2_4_2_1_17,2021-05-24T16:11:19.133Z,,,,,,,,,,,,,,,,,,,,,,,,,,,,,,,,,,,,,,,,,,,,,,,,,,,,,,,,,,,,,,,,,,,,,,,,,,,,,,,,,,,,,,,,,,,,,,,,,,,,,,,,,,,,,,,,,,,,3292.461999996536,,completion,,,,healthy,,strawberry.png,,,,,,,,,,,,,,,strawberry,,,,,,,,,,,,,,,,,,,,,,,,,,,,,,,,,,,,,,,,,,,,,,,,,,,,,,,,,false,,,,,,,,,194986.09999999462,194985.15999999654,191676.032,191683.59499999497,191692.698,195003.253,,,,
rating_loop,flow.Loop,2_4_2_1,2021-05-24T16:11:19.133Z,,,,,,,,,,,,,,,,,,,,,,,,,,,,,,,,,,,,,,,,,,,,,,,,,,,,,,,,,,,,,,,,,,,,,,,,,,,,,,,,,,,,,,,,,,,,,,,,,,,,,,,,,,,,,,,,,,,,74661.39699999653,,completion,,,,,,,,,,,,,,,,,,,,,,,,,,,,,,,,,,,,,,,,,,,,,,,,,,,,,,,,,,,,,,,,,,,,,,,,,,,,,,false,,,,,,,,,194986.4099999977,194985.15999999654,120307.097,120314.41499999346,120323.763,195003.253,,,,
data_transmission,html.Screen,2_4_2_2,2021-05-24T16:11:19.150Z,,,,,,,,,,,,,,,,,,,,,,,,,,,,,,,,,,,,,,,,,,,,,,,,,,,,,,,,,,,,,,,,,,,,,,,,,,,,,,,,,,,,,,,,,,,,,,,,,,,,,,,,,,,,,,,,,,,,NaN,,no compatible backend,,,,,,,,,,,,,,,Transferring data,,,,,,,,,,,,,,,,,,,,,,,,,,,,,,,,,,,,,,,,,,,,,,,,,,,,,,,,,,,,,,,false,,,Please wait a second…,,,,,,195002.73000000016,195002.49499999336,,194986.57499999536,,195003.253,,,,
instructions,html.Screen,2_4_2_3,2021-05-24T16:12:51.515Z,,,,,,,,,,,,,,,,,,,,,,,,,,,,,,,,,,,,,,,,,,,,,,,,,,,,,,,,,,,,,,,,,,,,,,,,,,,,,,,,,,,,,,,,,,,,,,,,,,,,,,,,,,,,,,,,,,,,92366.576999996,,done,,,,,,,,,,,,,,,,,,,,,,,,,,,,,,,,,,,,,,,,,,,,,,,,,,,,,,,,,,,,,,,,,,,,,,,,,,,,,,false,,,,,,,,,287370.044999996,287369.829999996,194969.921,195002.88,195003.253,287378.606,,,,
Q1,html.Screen,2_4_2_4_0,2021-05-24T16:13:03.948Z,,,,,,,,,,,,,,,,,,,,,,,,,,,,,,,,,,,,,,,,,,,,,,,,,,,,,,,,,,,,,,,,,,,,,,,,,,,,,,,,,,,,,,,,,,,,,,,,,,,,,,,,,,,,,,,,false,input_Q1==3,,,12418.198999998101,,response,,,,,,,,,,,,,,,,,,,,,,,,,Q1_i4,Q1_i1,Q1_i2,Q1_i3,4,1,2,3,false,false,false,correct,,,,,,,,,,,,,,,,,,,,,,,,,,,,,,,,,,,,,,,,,click #Q1_i3,false,,,,,,,,,299803.4899999984,299796.80499999813,287361.94,287370.19999999757,287378.606,299810.477,,,,
Q1_correct,html.Screen,2_4_2_4_1,2021-05-24T16:13:05.055Z,,,,,,,,,,,,,,,,,,,,,,,,,,,,,,,,,,,,,,,,,,,,,,,,,,,,,,,,,,,,,,,,,,,,,,,,,,,,,,,,,,,,,,,,,,,,,,,,,,,,,,,,,,,,,,,,,,,,1091.3429999991204,,response,,,,,,,,,,,,,,,,,,,,,,,,,,,,,,,,,,,,,,,,,,,,,,,,,,,,,,,,,,,,,,,,,,,,,,,,,,,,,keypress,false,,,,,,,,,300909.57499999786,300901.81999999913,299793.811,299804.2499999938,299810.477,300927.099,,,,
Q2,html.Screen,2_4_2_4_2,2021-05-24T16:13:09.315Z,,,,,,,,,,,,,,,,,,,,,,,,,,,,,,,,,,,,,,,,,,,,,,,,,,,,,,,,,,,,,,,,,,,,,,,,,,,,,,,,,,,,,,,,,,,,,,,,,,,,,,,,,,,,,,,,,,,,4239.065999995102,,response,,,,,,,,,,,,,,,,,,,,,,,,,,,,,,,,,,,,,Q2_i1,Q2_i3,Q2_i2,Option 1,Same amount,Option 2,correct,same,opt2,,,,,,,,,,,,,,,,,,,,,,,,,,,,,,,,click #Q2_i1,false,,,,,,,,,305169.8849999957,305166.1649999951,300910.433,300909.7249999977,300927.099,305178.606,,,,
Q2_correct,html.Screen,2_4_2_4_3,2021-05-24T16:13:10.368Z,,,,,,,,,,,,,,,,,,,,,,,,,,,,,,,,,,,,,,,,,,,,,,,,,,,,,,,,,,,,,,,,,,,,,,,,,,,,,,,,,,,,,,,,,,,,,,,,,,,,,,,,,,,,,,,,,,,,1036.0239999949117,,response,,,,,,,,,,,,,,,,,,,,,,,,,,,,,,,,,,,,,,,,,,,,,,,,,,,,,,,,,,,,,,,,,,,,,,,,,,,,,keypress,false,,,,,,,,,306222.8649999961,306214.62999999494,305161.94,305170.1649999959,305178.606,306228.564,,,,
Q4,html.Screen,2_4_2_4_4,2021-05-24T16:13:23.483Z,,,,,,,,,,,,,,,,,,,,,,,,,,,,,,,,,,,,,,,,,,,,,,,,,,,,,,,,,,,,,,,,,,,,,,,,,,,,,,,,,,,,,,,,,,,,,,,,,,,,,,,,,,,,,,,,,,,,13106.23599999689,,response,,,,,,,,,,,,,,,,,,,,,,,,,,,,,,,,,,,,,,,,,,,,,,Q4_i3,Q4_i1,Q4_i2,Q4_i4,Press the arrow key that corresponds with the snack option with more food items,Press the arrow key that corresponds with the snack option I prefer,Indicate the number of food items in each snack option,Press the space key,morefood,correct,indicate,pressspace,,,,,,,,,,,,,,,,,,,,click #Q4_i1,false,,,,,,,,,319338.47499999683,319334.7999999969,306211.898,306223.00499999983,306228.564,319344.706,,,,
Q4_correct,html.Screen,2_4_2_4_5,2021-05-24T16:13:24.411Z,,,,,,,,,,,,,,,,,,,,,,,,,,,,,,,,,,,,,,,,,,,,,,,,,,,,,,,,,,,,,,,,,,,,,,,,,,,,,,,,,,,,,,,,,,,,,,,,,,,,,,,,,,,,,,,,,,,,914.4789999953355,,response,,,,,,,,,,,,,,,,,,,,,,,,,,,,,,,,,,,,,,,,,,,,,,,,,,,,,,,,,,,,,,,,,,,,,,,,,,,,,keypress,false,,,,,,,,,320266.70499999454,320259.18499999534,319328.04,319338.7599999987,319344.706,320281.48,,,,
Q5,html.Screen,2_4_2_4_6,2021-05-24T16:13:28.928Z,,,,,,,,,,,,,,,,,,,,,,,,,,,,,,,,,,,,,,,,,,,,,,,,,,,,,,,,,,,,,,,,,,,,,,,,,,,,,,,,,,,,,,,,,,,,,,,,,,,,,,,,,,,,,,,,,,,,4498.344999997818,,response,,,,,,,,,,,,,,,,,,,,,,,,,,,,,,,,,,,,,,,,,,,,,,,,,,,,,,,,,,Q5_i4,Q5_i1,Q5_i3,Q5_i2,Snack Option 1 has been chosen,Snack Option 2 has been chosen,There are more slices of kiwi in snack Option 1,There are more pieces of chocolate in snack Option 2,chose1,correct,morekiwi1,morechoc2,,,,,,,,click #Q5_i1,false,,,,,,,,,324783.6249999964,324779.8249999978,320264.814,320266.94499999576,320281.48,324799.11,,,,
Q5_correct,html.Screen,2_4_2_4_7,2021-05-24T16:13:29.708Z,,,,,,,,,,,,,,,,,,,,,,,,,,,,,,,,,,,,,,,,,,,,,,,,,,,,,,,,,,,,,,,,,,,,,,,,,,,,,,,,,,,,,,,,,,,,,,,,,,,,,,,,,,,,,,,,,,,,756.7999999955064,,response,,,,,,,,,,,,,,,,,,,,,,,,,,,,,,,,,,,,,,,,,,,,,,,,,,,,,,,,,,,,,,,,,,,,,,,,,,,,,keypress,false,,,,,,,,,325563.1649999996,325555.9099999955,324782.444,324783.9199999944,324799.11,325565.746,,,,
practice_sequence,flow.Sequence,2_4_2_4,2021-05-24T16:13:29.708Z,,,,,,,,,,,,,,,,,,,,,,,,,,,,,,,,,,,,,,,,,,,,,,,,,,,,,,,,,,,,,,,,,,,,,,,,,,,,,,,,,,,,,,,,,,,,,,,,,,,,,,,,,,,,,,,,,,,,38177.30399999546,,completion,,,,,,,,,,,,,,,,,,,,,,,,,,,,,,,,,,,,,,,,,,,,,,,,,,,,,,,,,,,,,,,,,,,,,,,,,,,,,,false,,,,,,,,,325563.3999999991,325555.9099999955,287361.94,287370.1599999986,287378.606,325565.746,,,,
final_instru,html.Screen,2_4_2_5,2021-05-24T16:13:54.777Z,,,,,,,,,,,,,,,,,,,,,,,,,,,,,,,,,,,,,,,,,,,,,,,,,,,,,,,,,,,,,,,,,,,,,,,,,,,,,,,,,,,,,,,,,,,,,,,,,,,,,,,,,,,,,,,,,,,,25066.56399999361,,done,,,,,,,,,,,,,,,,,,,,,,,,,,,,,,,,,,,,,,,,,,,,,,,,,,,,,,,,,,,,,,,,,,,,,,,,,,,,,,false,,,,,,,,,350632.5249999936,350632.3099999936,325549.08,325563.49999999657,325565.746,350648.076,,,,
blank_screen,canvas.Screen,2_4_2_6_0,2021-05-24T16:13:56.778Z,,,,,,,,,,,,,,,,,,,,,,,,,,,,,,,,,,,,,,,,,,,,,,,,,,,,,,,,,,,,,,,,,,,,,,,,,,,,,,,,,,,,,,,,,,,,,,,,,,,,,,,,,,,,,,,,,,,,2034.189000000013,,timeout,,,,,,,,,,,,,,,,,,,,,,,,,,,,,,,,,,,,,,,,,,,,,,,,,,,,,,,,,,,,,,,,,,,,,,,,,,,,,,false,,,,,,,,,352633.4149999966,352632.267,350631.41,350632.67999999516,350648.076,352682.265,,,,
fixCross,canvas.Screen,2_4_2_6_1_0_0_0_0_0_0,2021-05-24T16:13:57.163Z,,,blank.png,"[""chocolate_truffle.png""]",blank.png,blank.png,blank.png,blank.png,blank.png,blank.png,blank.png,blank.png,blank.png,blank.png,blank.png,,,,,,,,,,,,,,,,,,,,,,,,,,,,,"[""chocolate_truffle.png""]","[""cherry.png""]",PB15.png,,,,,,,,,,,0,6,"[""cherry.png""]","[""cherry.png""]","[""cherry.png""]","[""cherry.png""]","[""cherry.png""]","[""cherry.png""]",blank.png,PB18.png,PB18.png,"[""cherry.png""]","[""cherry.png""]","[""cherry.png""]","[""cherry.png""]",blank.png,blank.png,"[""cherry.png""]","[""cherry.png""]","[""cherry.png""]","[""cherry.png""]","[""cherry.png""]","[""cherry.png""]",1,"[""chocolate_truffle.png""]",blank.png,blank.png,blank.png,4,"[""cherry.png""]","[""cherry.png""]","[""cherry.png""]","[""cherry.png""]",blank.png,blank.png,PB15.png,,,,,,,,,,,1,,,,,,,,,,,,,783.3019999999669,,timeout,,,,,,,,,,,,,3,,,,,,,,,,,,,,,,,,,,,,,,,,,,,,,,,,,,,,,,,,,,,,,,,,,,,,,,,"[""cherry.png""]","[""chocolate_truffle.png""]",,,,2,,,false,,1,,,,,,,353019.3349999972,353015.585,352632.267,352689.019999998,352682.265,353465.567,1,,,
timeout,canvas.Screen,2_4_2_6_1_0_0_0_0_0_1,2021-05-24T16:13:58.094Z,,,blank.png,"[""chocolate_truffle.png""]",blank.png,blank.png,blank.png,blank.png,blank.png,blank.png,blank.png,blank.png,blank.png,blank.png,blank.png,,,,,,,,,,,,,,,,,,,,,,,,,,,,,"[""chocolate_truffle.png""]","[""cherry.png""]",PB15.png,,,,,,,,,,,0,6,"[""cherry.png""]","[""cherry.png""]","[""cherry.png""]","[""cherry.png""]","[""cherry.png""]","[""cherry.png""]",blank.png,PB18.png,PB18.png,"[""cherry.png""]","[""cherry.png""]","[""cherry.png""]","[""cherry.png""]",blank.png,blank.png,"[""cherry.png""]","[""cherry.png""]","[""cherry.png""]","[""cherry.png""]","[""cherry.png""]","[""cherry.png""]",1,"[""chocolate_truffle.png""]",blank.png,blank.png,blank.png,4,"[""cherry.png""]","[""cherry.png""]","[""cherry.png""]","[""cherry.png""]",blank.png,blank.png,PB15.png,,,,,,,,,,,1,,,,,,,,,,,,,897.7030000000377,,timeout,,,,,,,,,,,,,3,,,,,,,,,,,,,,,,,,,,,,,,,,,,,,,,,,,,,,,,,,,,,,,,,,,,,,,,,"[""cherry.png""]","[""chocolate_truffle.png""]",,,,2,,,false,,1,,,,,,,353949.7749999937,353946.62,353015.585,353538.07999999844,353465.567,354363.27,,,,
choice,canvas.Screen,2_4_2_6_1_0_0_0_0_0_2,2021-05-24T16:13:59.480Z,,,blank.png,"[""chocolate_truffle.png""]",blank.png,blank.png,blank.png,blank.png,blank.png,blank.png,blank.png,blank.png,blank.png,blank.png,blank.png,,,,,,,,,,,,,,,,,,,,,,,,,,,,,"[""chocolate_truffle.png""]","[""cherry.png""]",PB15.png,,,,,,,,,,,0,6,"[""cherry.png""]","[""cherry.png""]","[""cherry.png""]","[""cherry.png""]","[""cherry.png""]","[""cherry.png""]",blank.png,PB18.png,PB18.png,"[""cherry.png""]","[""cherry.png""]","[""cherry.png""]","[""cherry.png""]",blank.png,blank.png,"[""cherry.png""]","[""cherry.png""]","[""cherry.png""]","[""cherry.png""]","[""cherry.png""]","[""cherry.png""]",1,"[""chocolate_truffle.png""]",blank.png,blank.png,blank.png,4,"[""cherry.png""]","[""cherry.png""]","[""cherry.png""]","[""cherry.png""]",blank.png,blank.png,PB15.png,,,,,,,,,,,1,,,,,,,,,,,,,963.5149999974528,,response,,,,,,,,,,,,,3,,,,,,,,,,,,,,,,,,,,,,,,,,,,,,,,,,,,,,,,,,,,,,,,,,,,,,,,,"[""cherry.png""]","[""chocolate_truffle.png""]",,,,2,left,keydown(ArrowLeft),false,,1,,,,,,,355335.86999999534,355326.7849999975,353946.62,354374.4149999984,354363.27,355663.218,,1,,
square,canvas.Screen,2_4_2_6_1_0_0_0_0_0_3,2021-05-24T16:14:00.794Z,,,blank.png,"[""chocolate_truffle.png""]",blank.png,blank.png,blank.png,blank.png,blank.png,blank.png,blank.png,blank.png,blank.png,blank.png,blank.png,,,,,,,,,,,,,,,,,,,,,,,,,,,,,"[""chocolate_truffle.png""]","[""cherry.png""]",PB15.png,,,,,,,,,,,0,6,"[""cherry.png""]","[""cherry.png""]","[""cherry.png""]","[""cherry.png""]","[""cherry.png""]","[""cherry.png""]",blank.png,PB18.png,PB18.png,"[""cherry.png""]","[""cherry.png""]","[""cherry.png""]","[""cherry.png""]",blank.png,blank.png,"[""cherry.png""]","[""cherry.png""]","[""cherry.png""]","[""cherry.png""]","[""cherry.png""]","[""cherry.png""]",1,"[""chocolate_truffle.png""]",blank.png,blank.png,blank.png,4,"[""cherry.png""]","[""cherry.png""]","[""cherry.png""]","[""cherry.png""]",blank.png,blank.png,PB15.png,,,,,,,,,,,1,,,#33ff3f,#808080,,,,,,,,,999.960000000021,,timeout,,,,,,,,,,,,,3,,,,,,,,,,,,,,,,,,,,,,,,,,,,,,,,,,,,,,,,,,,,,,,,,,,,,,,,,"[""cherry.png""]","[""chocolate_truffle.png""]",,,,2,,,false,,1,,,,,black,white,356649.6849999967,356646.512,355646.552,355660.6799999936,355663.218,356663.178,,,,
ITI_late,canvas.Screen,2_4_2_6_1_0_0_0_0_0_4,2021-05-24T16:14:02.043Z,,,blank.png,"[""chocolate_truffle.png""]",blank.png,blank.png,blank.png,blank.png,blank.png,blank.png,blank.png,blank.png,blank.png,blank.png,blank.png,,,,,,,,,,,,,,,,,,,,,,,,,,,,,"[""chocolate_truffle.png""]","[""cherry.png""]",PB15.png,,,,,,,,,,,0,6,"[""cherry.png""]","[""cherry.png""]","[""cherry.png""]","[""cherry.png""]","[""cherry.png""]","[""cherry.png""]",blank.png,PB18.png,PB18.png,"[""cherry.png""]","[""cherry.png""]","[""cherry.png""]","[""cherry.png""]",blank.png,blank.png,"[""cherry.png""]","[""cherry.png""]","[""cherry.png""]","[""cherry.png""]","[""cherry.png""]","[""cherry.png""]",1,"[""chocolate_truffle.png""]",blank.png,blank.png,blank.png,4,"[""cherry.png""]","[""cherry.png""]","[""cherry.png""]","[""cherry.png""]",blank.png,blank.png,PB15.png,,,,,,,,,,,1,,,,,,,,,,,,,1249.9500000000116,,timeout,,,,,,,,,,,,white,3,,,,,,,,,,,,,,,,,,,,,,,,,,,,,,,,,,,,,,,,,,,,,,,,,,,,,,,,,"[""cherry.png""]","[""chocolate_truffle.png""]",,,,2,,,false,,1,,,,,,,357899.48499999446,357896.462,356646.512,356653.50499999477,356663.178,357913.128,,,,
choice_sequence,flow.Sequence,2_4_2_6_1_0_0_0_0_0,2021-05-24T16:14:02.044Z,,,blank.png,"[""chocolate_truffle.png""]",blank.png,blank.png,blank.png,blank.png,blank.png,blank.png,blank.png,blank.png,blank.png,blank.png,blank.png,,,,,,,,,,,,,,,,,,,,,,,,,,,,,"[""chocolate_truffle.png""]","[""cherry.png""]",PB15.png,,,,,,,,,,,0,6,"[""cherry.png""]","[""cherry.png""]","[""cherry.png""]","[""cherry.png""]","[""cherry.png""]","[""cherry.png""]",blank.png,PB18.png,PB18.png,"[""cherry.png""]","[""cherry.png""]","[""cherry.png""]","[""cherry.png""]",blank.png,blank.png,"[""cherry.png""]","[""cherry.png""]","[""cherry.png""]","[""cherry.png""]","[""cherry.png""]","[""cherry.png""]",1,"[""chocolate_truffle.png""]",blank.png,blank.png,blank.png,4,"[""cherry.png""]","[""cherry.png""]","[""cherry.png""]","[""cherry.png""]",blank.png,blank.png,PB15.png,,,,,,,,,,,1,,,,,,,,,,,,,5214.196999999986,,completion,,,,,,,,,,,,,3,,,,,,,,,,,,,,,,,,,,,,,,,,,,,,,,,,,,,,,,,,,,,,,,,,,,,,,,,"[""cherry.png""]","[""chocolate_truffle.png""]",,,,2,,,false,,1,,,,,,,357900.4349999959,357896.462,352632.267,352687.67499999376,352682.265,357913.128,,,,
fixCross,canvas.Screen,2_4_2_6_1_0_0_0_0_1_0,2021-05-24T16:14:02.743Z,,,blank.png,blank.png,blank.png,blank.png,blank.png,blank.png,blank.png,"[""chocolate_truffle.png""]",blank.png,blank.png,blank.png,blank.png,blank.png,,,,,,,,,,,,,,,,,,,,,,,,,,,,,"[""chocolate_truffle.png""]","[""cherry.png""]",PB18.png,,,,,,,,,,,0,6,"[""cherry.png""]","[""cherry.png""]","[""cherry.png""]","[""cherry.png""]","[""cherry.png""]","[""cherry.png""]",blank.png,PB18.png,PB01.png,"[""cherry.png""]","[""cherry.png""]","[""cherry.png""]","[""cherry.png""]","[""cherry.png""]","[""cherry.png""]",blank.png,blank.png,blank.png,blank.png,blank.png,blank.png,1,"[""chocolate_truffle.png""]",blank.png,blank.png,blank.png,0,blank.png,blank.png,blank.png,blank.png,blank.png,blank.png,PB01.png,,,,,,,,,,,1,,,,,,,,,,,,,949.9619999999995,,timeout,,,,,,,,,,,,,4,,,,,,,,,,,,,,,,,,,,,,,,,,,,,,,,,,,,,,,,,,,,,,,,,,,,,,,,,"[""cherry.png""]","[""chocolate_truffle.png""]",,,,2,,,false,,1,,,,,,,358598.81999999925,358596.434,357896.462,357908.0799999938,357913.128,358863.09,2,,,
timeout,canvas.Screen,2_4_2_6_1_0_0_0_0_1_1,2021-05-24T16:14:03.493Z,,,blank.png,blank.png,blank.png,blank.png,blank.png,blank.png,blank.png,"[""chocolate_truffle.png""]",blank.png,blank.png,blank.png,blank.png,blank.png,,,,,,,,,,,,,,,,,,,,,,,,,,,,,"[""chocolate_truffle.png""]","[""cherry.png""]",PB18.png,,,,,,,,,,,0,6,"[""cherry.png""]","[""cherry.png""]","[""cherry.png""]","[""cherry.png""]","[""cherry.png""]","[""cherry.png""]",blank.png,PB18.png,PB01.png,"[""cherry.png""]","[""cherry.png""]","[""cherry.png""]","[""cherry.png""]","[""cherry.png""]","[""cherry.png""]",blank.png,blank.png,blank.png,blank.png,blank.png,blank.png,1,"[""chocolate_truffle.png""]",blank.png,blank.png,blank.png,0,blank.png,blank.png,blank.png,blank.png,blank.png,blank.png,PB01.png,,,,,,,,,,,1,,,,,,,,,,,,,749.9699999999721,,timeout,,,,,,,,,,,,,4,,,,,,,,,,,,,,,,,,,,,,,,,,,,,,,,,,,,,,,,,,,,,,,,,,,,,,,,,"[""cherry.png""]","[""chocolate_truffle.png""]",,,,2,,,false,,1,,,,,,,359348.59999999753,359346.404,358596.434,358871.189999998,358863.09,359613.06,,,,
choice,canvas.Screen,2_4_2_6_1_0_0_0_0_1_2,2021-05-24T16:14:04.892Z,,,blank.png,blank.png,blank.png,blank.png,blank.png,blank.png,blank.png,"[""chocolate_truffle.png""]",blank.png,blank.png,blank.png,blank.png,blank.png,,,,,,,,,,,,,,,,,,,,,,,,,,,,,"[""chocolate_truffle.png""]","[""cherry.png""]",PB18.png,,,,,,,,,,,0,6,"[""cherry.png""]","[""cherry.png""]","[""cherry.png""]","[""cherry.png""]","[""cherry.png""]","[""cherry.png""]",blank.png,PB18.png,PB01.png,"[""cherry.png""]","[""cherry.png""]","[""cherry.png""]","[""cherry.png""]","[""cherry.png""]","[""cherry.png""]",blank.png,blank.png,blank.png,blank.png,blank.png,blank.png,1,"[""chocolate_truffle.png""]",blank.png,blank.png,blank.png,0,blank.png,blank.png,blank.png,blank.png,blank.png,blank.png,PB01.png,,,,,,,,,,,1,,,,,,,,,,,,,1127.2699999932665,,response,,,,,,,,,,,,,4,,,,,,,,,,,,,,,,,,,,,,,,,,,,,,,,,,,,,,,,,,,,,,,,,,,,,,,,,"[""cherry.png""]","[""chocolate_truffle.png""]",,,,2,left,keydown(ArrowLeft),false,,1,,,,,,,360748.16999999894,360740.32999999326,359346.404,359604.8049999954,359613.06,361013.004,,2,,
square,canvas.Screen,2_4_2_6_1_0_0_0_0_1_3,2021-05-24T16:14:06.143Z,,,blank.png,blank.png,blank.png,blank.png,blank.png,blank.png,blank.png,"[""chocolate_truffle.png""]",blank.png,blank.png,blank.png,blank.png,blank.png,,,,,,,,,,,,,,,,,,,,,,,,,,,,,"[""chocolate_truffle.png""]","[""cherry.png""]",PB18.png,,,,,,,,,,,0,6,"[""cherry.png""]","[""cherry.png""]","[""cherry.png""]","[""cherry.png""]","[""cherry.png""]","[""cherry.png""]",blank.png,PB18.png,PB01.png,"[""cherry.png""]","[""cherry.png""]","[""cherry.png""]","[""cherry.png""]","[""cherry.png""]","[""cherry.png""]",blank.png,blank.png,blank.png,blank.png,blank.png,blank.png,1,"[""chocolate_truffle.png""]",blank.png,blank.png,blank.png,0,blank.png,blank.png,blank.png,blank.png,blank.png,blank.png,PB01.png,,,,,,,,,,,1,,,#33ff3f,#808080,,,,,,,,,999.9599999999627,,timeout,,,,,,,,,,,,,4,,,,,,,,,,,,,,,,,,,,,,,,,,,,,,,,,,,,,,,,,,,,,,,,,,,,,,,,,"[""cherry.png""]","[""chocolate_truffle.png""]",,,,2,,,false,,1,,,,,black,white,361998.99000000005,361996.298,360996.338,361007.9199999964,361013.004,362012.964,,,,
ITI_late,canvas.Screen,2_4_2_6_1_0_0_0_0_1_4,2021-05-24T16:14:07.143Z,,,blank.png,blank.png,blank.png,blank.png,blank.png,blank.png,blank.png,"[""chocolate_truffle.png""]",blank.png,blank.png,blank.png,blank.png,blank.png,,,,,,,,,,,,,,,,,,,,,,,,,,,,,"[""chocolate_truffle.png""]","[""cherry.png""]",PB18.png,,,,,,,,,,,0,6,"[""cherry.png""]","[""cherry.png""]","[""cherry.png""]","[""cherry.png""]","[""cherry.png""]","[""cherry.png""]",blank.png,PB18.png,PB01.png,"[""cherry.png""]","[""cherry.png""]","[""cherry.png""]","[""cherry.png""]","[""cherry.png""]","[""cherry.png""]",blank.png,blank.png,blank.png,blank.png,blank.png,blank.png,1,"[""chocolate_truffle.png""]",blank.png,blank.png,blank.png,0,blank.png,blank.png,blank.png,blank.png,blank.png,blank.png,PB01.png,,,,,,,,,,,1,,,,,,,,,,,,,1016.6260000000475,,timeout,,,,,,,,,,,,white,4,,,,,,,,,,,,,,,,,,,,,,,,,,,,,,,,,,,,,,,,,,,,,,,,,,,,,,,,,"[""cherry.png""]","[""chocolate_truffle.png""]",,,,2,,,false,,1,,,,,,,362999.24499999906,362996.258,361996.298,362003.7499999962,362012.964,363029.59,,,,
choice_sequence,flow.Sequence,2_4_2_6_1_0_0_0_0_1,2021-05-24T16:14:07.144Z,,,blank.png,blank.png,blank.png,blank.png,blank.png,blank.png,blank.png,"[""chocolate_truffle.png""]",blank.png,blank.png,blank.png,blank.png,blank.png,,,,,,,,,,,,,,,,,,,,,,,,,,,,,"[""chocolate_truffle.png""]","[""cherry.png""]",PB18.png,,,,,,,,,,,0,6,"[""cherry.png""]","[""cherry.png""]","[""cherry.png""]","[""cherry.png""]","[""cherry.png""]","[""cherry.png""]",blank.png,PB18.png,PB01.png,"[""cherry.png""]","[""cherry.png""]","[""cherry.png""]","[""cherry.png""]","[""cherry.png""]","[""cherry.png""]",blank.png,blank.png,blank.png,blank.png,blank.png,blank.png,1,"[""chocolate_truffle.png""]",blank.png,blank.png,blank.png,0,blank.png,blank.png,blank.png,blank.png,blank.png,blank.png,PB01.png,,,,,,,,,,,1,,,,,,,,,,,,,5083.129999999946,,completion,,,,,,,,,,,,,4,,,,,,,,,,,,,,,,,,,,,,,,,,,,,,,,,,,,,,,,,,,,,,,,,,,,,,,,,"[""cherry.png""]","[""chocolate_truffle.png""]",,,,2,,,false,,1,,,,,,,363000.17999999545,362996.258,357896.462,357906.71499999735,357913.128,363029.59,,,,
fixCross,canvas.Screen,2_4_2_6_1_0_0_0_0_2_0,2021-05-24T16:14:07.659Z,,,blank.png,"[""chocolate_truffle.png""]",blank.png,blank.png,blank.png,blank.png,blank.png,blank.png,blank.png,blank.png,blank.png,blank.png,blank.png,,,,,,,,,,,,,,,,,,,,,,,,,,,,,"[""chocolate_truffle.png""]","[""cherry.png""]",PB16.png,,,,,,,,,,,0,6,"[""cherry.png""]","[""cherry.png""]","[""cherry.png""]","[""cherry.png""]","[""cherry.png""]","[""cherry.png""]",blank.png,PB18.png,PB18.png,"[""cherry.png""]","[""cherry.png""]","[""cherry.png""]","[""cherry.png""]","[""cherry.png""]",blank.png,"[""cherry.png""]","[""cherry.png""]","[""cherry.png""]","[""cherry.png""]","[""cherry.png""]","[""cherry.png""]",1,"[""chocolate_truffle.png""]",blank.png,blank.png,blank.png,5,"[""cherry.png""]","[""cherry.png""]","[""cherry.png""]","[""cherry.png""]","[""cherry.png""]",blank.png,PB16.png,,,,,,,,,,,1,,,,,,,,,,,,,899.9639999999781,,timeout,,,,,,,,,,,,,3,,,,,,,,,,,,,,,,,,,,,,,,,,,,,,,,,,,,,,,,,,,,,,,,,,,,,,,,,"[""cherry.png""]","[""chocolate_truffle.png""]",,,,2,,,false,,1,,,,,,,363515.47999999457,363512.904,362996.258,363008.00499999605,363029.59,363929.554,3,,,
timeout,canvas.Screen,2_4_2_6_1_0_0_0_0_2_1,2021-05-24T16:14:08.556Z,,,blank.png,"[""chocolate_truffle.png""]",blank.png,blank.png,blank.png,blank.png,blank.png,blank.png,blank.png,blank.png,blank.png,blank.png,blank.png,,,,,,,,,,,,,,,,,,,,,,,,,,,,,"[""chocolate_truffle.png""]","[""cherry.png""]",PB16.png,,,,,,,,,,,0,6,"[""cherry.png""]","[""cherry.png""]","[""cherry.png""]","[""cherry.png""]","[""cherry.png""]","[""cherry.png""]",blank.png,PB18.png,PB18.png,"[""cherry.png""]","[""cherry.png""]","[""cherry.png""]","[""cherry.png""]","[""cherry.png""]",blank.png,"[""cherry.png""]","[""cherry.png""]","[""cherry.png""]","[""cherry.png""]","[""cherry.png""]","[""cherry.png""]",1,"[""chocolate_truffle.png""]",blank.png,blank.png,blank.png,5,"[""cherry.png""]","[""cherry.png""]","[""cherry.png""]","[""cherry.png""]","[""cherry.png""]",blank.png,PB16.png,,,,,,,,,,,1,,,,,,,,,,,,,813.0690000000177,,timeout,,,,,,,,,,,,,3,,,,,,,,,,,,,,,,,,,,,,,,,,,,,,,,,,,,,,,,,,,,,,,,,,,,,,,,,"[""cherry.png""]","[""chocolate_truffle.png""]",,,,2,,,false,,1,,,,,,,364411.86999999627,364409.303,363512.904,363939.13999999495,363929.554,364742.623,,,,
choice,canvas.Screen,2_4_2_6_1_0_0_0_0_2_2,2021-05-24T16:14:09.693Z,,,blank.png,"[""chocolate_truffle.png""]",blank.png,blank.png,blank.png,blank.png,blank.png,blank.png,blank.png,blank.png,blank.png,blank.png,blank.png,,,,,,,,,,,,,,,,,,,,,,,,,,,,,"[""chocolate_truffle.png""]","[""cherry.png""]",PB16.png,,,,,,,,,,,0,6,"[""cherry.png""]","[""cherry.png""]","[""cherry.png""]","[""cherry.png""]","[""cherry.png""]","[""cherry.png""]",blank.png,PB18.png,PB18.png,"[""cherry.png""]","[""cherry.png""]","[""cherry.png""]","[""cherry.png""]","[""cherry.png""]",blank.png,"[""cherry.png""]","[""cherry.png""]","[""cherry.png""]","[""cherry.png""]","[""cherry.png""]","[""cherry.png""]",1,"[""chocolate_truffle.png""]",blank.png,blank.png,blank.png,5,"[""cherry.png""]","[""cherry.png""]","[""cherry.png""]","[""cherry.png""]","[""cherry.png""]",blank.png,PB16.png,,,,,,,,,,,1,,,,,,,,,,,,,797.3320000001695,,response,,,,,,,,,,,,,3,,,,,,,,,,,,,,,,,,,,,,,,,,,,,,,,,,,,,,,,,,,,,,,,,,,,,,,,,"[""cherry.png""]","[""chocolate_truffle.png""]",,,,2,left,keydown(ArrowLeft),false,,1,,,,,,,365549.1699999984,365539.9550000002,364409.303,364758.1049999935,364742.623,365892.577,,3,,
square,canvas.Screen,2_4_2_6_1_0_0_0_0_2_3,2021-05-24T16:14:11.022Z,,,blank.png,"[""chocolate_truffle.png""]",blank.png,blank.png,blank.png,blank.png,blank.png,blank.png,blank.png,blank.png,blank.png,blank.png,blank.png,,,,,,,,,,,,,,,,,,,,,,,,,,,,,"[""chocolate_truffle.png""]","[""cherry.png""]",PB16.png,,,,,,,,,,,0,6,"[""cherry.png""]","[""cherry.png""]","[""cherry.png""]","[""cherry.png""]","[""cherry.png""]","[""cherry.png""]",blank.png,PB18.png,PB18.png,"[""cherry.png""]","[""cherry.png""]","[""cherry.png""]","[""cherry.png""]","[""cherry.png""]",blank.png,"[""cherry.png""]","[""cherry.png""]","[""cherry.png""]","[""cherry.png""]","[""cherry.png""]","[""cherry.png""]",1,"[""chocolate_truffle.png""]",blank.png,blank.png,blank.png,5,"[""cherry.png""]","[""cherry.png""]","[""cherry.png""]","[""cherry.png""]","[""cherry.png""]",blank.png,PB16.png,,,,,,,,,,,1,,,#33ff3f,#808080,,,,,,,,,999.960000000021,,timeout,,,,,,,,,,,,,3,,,,,,,,,,,,,,,,,,,,,,,,,,,,,,,,,,,,,,,,,,,,,,,,,,,,,,,,,"[""cherry.png""]","[""chocolate_truffle.png""]",,,,2,,,false,,1,,,,,black,white,366878.08999999834,366875.871,365875.911,365884.3399999969,365892.577,366892.537,,,,
ITI_late,canvas.Screen,2_4_2_6_1_0_0_0_0_2_4,2021-05-24T16:14:11.273Z,,,blank.png,"[""chocolate_truffle.png""]",blank.png,blank.png,blank.png,blank.png,blank.png,blank.png,blank.png,blank.png,blank.png,blank.png,blank.png,,,,,,,,,,,,,,,,,,,,,,,,,,,,,"[""chocolate_truffle.png""]","[""cherry.png""]",PB16.png,,,,,,,,,,,0,6,"[""cherry.png""]","[""cherry.png""]","[""cherry.png""]","[""cherry.png""]","[""cherry.png""]","[""cherry.png""]",blank.png,PB18.png,PB18.png,"[""cherry.png""]","[""cherry.png""]","[""cherry.png""]","[""cherry.png""]","[""cherry.png""]",blank.png,"[""cherry.png""]","[""cherry.png""]","[""cherry.png""]","[""cherry.png""]","[""cherry.png""]","[""cherry.png""]",1,"[""chocolate_truffle.png""]",blank.png,blank.png,blank.png,5,"[""cherry.png""]","[""cherry.png""]","[""cherry.png""]","[""cherry.png""]","[""cherry.png""]",blank.png,PB16.png,,,,,,,,,,,1,,,,,,,,,,,,,266.65600000001723,,timeout,,,,,,,,,,,,white,3,,,,,,,,,,,,,,,,,,,,,,,,,,,,,,,,,,,,,,,,,,,,,,,,,,,,,,,,,"[""cherry.png""]","[""chocolate_truffle.png""]",,,,2,,,false,,1,,,,,,,367128.94499999675,367125.861,366875.871,366881.9999999978,366892.537,367159.193,,,,
choice_sequence,flow.Sequence,2_4_2_6_1_0_0_0_0_2,2021-05-24T16:14:11.274Z,,,blank.png,"[""chocolate_truffle.png""]",blank.png,blank.png,blank.png,blank.png,blank.png,blank.png,blank.png,blank.png,blank.png,blank.png,blank.png,,,,,,,,,,,,,,,,,,,,,,,,,,,,,"[""chocolate_truffle.png""]","[""cherry.png""]",PB16.png,,,,,,,,,,,0,6,"[""cherry.png""]","[""cherry.png""]","[""cherry.png""]","[""cherry.png""]","[""cherry.png""]","[""cherry.png""]",blank.png,PB18.png,PB18.png,"[""cherry.png""]","[""cherry.png""]","[""cherry.png""]","[""cherry.png""]","[""cherry.png""]",blank.png,"[""cherry.png""]","[""cherry.png""]","[""cherry.png""]","[""cherry.png""]","[""cherry.png""]","[""cherry.png""]",1,"[""chocolate_truffle.png""]",blank.png,blank.png,blank.png,5,"[""cherry.png""]","[""cherry.png""]","[""cherry.png""]","[""cherry.png""]","[""cherry.png""]",blank.png,PB16.png,,,,,,,,,,,1,,,,,,,,,,,,,4096.27099999995,,completion,,,,,,,,,,,,,3,,,,,,,,,,,,,,,,,,,,,,,,,,,,,,,,,,,,,,,,,,,,,,,,,,,,,,,,,"[""cherry.png""]","[""chocolate_truffle.png""]",,,,2,,,false,,1,,,,,,,367129.8999999999,367125.861,362996.258,363006.54999999824,363029.59,367159.193,,,,
fixCross,canvas.Screen,2_4_2_6_1_0_0_0_0_3_0,2021-05-24T16:14:11.939Z,,,blank.png,"[""chocolate_truffle.png""]",blank.png,blank.png,blank.png,blank.png,blank.png,blank.png,blank.png,blank.png,blank.png,blank.png,blank.png,,,,,,,,,,,,,,,,,,,,,,,,,,,,,"[""chocolate_truffle.png""]","[""cherry.png""]",PB14.png,,,,,,,,,,,0,6,"[""cherry.png""]","[""cherry.png""]","[""cherry.png""]","[""cherry.png""]","[""cherry.png""]","[""cherry.png""]",blank.png,PB18.png,PB18.png,"[""cherry.png""]","[""cherry.png""]","[""cherry.png""]",blank.png,blank.png,blank.png,"[""cherry.png""]","[""cherry.png""]","[""cherry.png""]","[""cherry.png""]","[""cherry.png""]","[""cherry.png""]",1,"[""chocolate_truffle.png""]",blank.png,blank.png,blank.png,3,"[""cherry.png""]","[""cherry.png""]","[""cherry.png""]",blank.png,blank.png,blank.png,PB14.png,,,,,,,,,,,1,,,,,,,,,,,,,999.9599999999627,,timeout,,,,,,,,,,,,,3,,,,,,,,,,,,,,,,,,,,,,,,,,,,,,,,,,,,,,,,,,,,,,,,,,,,,,,,,"[""cherry.png""]","[""chocolate_truffle.png""]",,,,2,,,false,,1,,,,,,,367795.4299999983,367792.501,367125.861,367137.4399999986,367159.193,368159.153,4,,,
timeout,canvas.Screen,2_4_2_6_1_0_0_0_0_3_1,2021-05-24T16:14:12.788Z,,,blank.png,"[""chocolate_truffle.png""]",blank.png,blank.png,blank.png,blank.png,blank.png,blank.png,blank.png,blank.png,blank.png,blank.png,blank.png,,,,,,,,,,,,,,,,,,,,,,,,,,,,,"[""chocolate_truffle.png""]","[""cherry.png""]",PB14.png,,,,,,,,,,,0,6,"[""cherry.png""]","[""cherry.png""]","[""cherry.png""]","[""cherry.png""]","[""cherry.png""]","[""cherry.png""]",blank.png,PB18.png,PB18.png,"[""cherry.png""]","[""cherry.png""]","[""cherry.png""]",blank.png,blank.png,blank.png,"[""cherry.png""]","[""cherry.png""]","[""cherry.png""]","[""cherry.png""]","[""cherry.png""]","[""cherry.png""]",1,"[""chocolate_truffle.png""]",blank.png,blank.png,blank.png,3,"[""cherry.png""]","[""cherry.png""]","[""cherry.png""]",blank.png,blank.png,blank.png,PB14.png,,,,,,,,,,,1,,,,,,,,,,,,,783.3020000000251,,timeout,,,,,,,,,,,,,3,,,,,,,,,,,,,,,,,,,,,,,,,,,,,,,,,,,,,,,,,,,,,,,,,,,,,,,,,"[""cherry.png""]","[""chocolate_truffle.png""]",,,,2,,,false,,1,,,,,,,368644.4749999937,368642.467,367792.501,368164.1149999996,368159.153,368942.455,,,,
choice,canvas.Screen,2_4_2_6_1_0_0_0_0_3_2,2021-05-24T16:14:14.331Z,,,blank.png,"[""chocolate_truffle.png""]",blank.png,blank.png,blank.png,blank.png,blank.png,blank.png,blank.png,blank.png,blank.png,blank.png,blank.png,,,,,,,,,,,,,,,,,,,,,,,,,,,,,"[""chocolate_truffle.png""]","[""cherry.png""]",PB14.png,,,,,,,,,,,0,6,"[""cherry.png""]","[""cherry.png""]","[""cherry.png""]","[""cherry.png""]","[""cherry.png""]","[""cherry.png""]",blank.png,PB18.png,PB18.png,"[""cherry.png""]","[""cherry.png""]","[""cherry.png""]",blank.png,blank.png,blank.png,"[""cherry.png""]","[""cherry.png""]","[""cherry.png""]","[""cherry.png""]","[""cherry.png""]","[""cherry.png""]",1,"[""chocolate_truffle.png""]",blank.png,blank.png,blank.png,3,"[""cherry.png""]","[""cherry.png""]","[""cherry.png""]",blank.png,blank.png,blank.png,PB14.png,,,,,,,,,,,1,,,,,,,,,,,,,1236.5649999959278,,response,,,,,,,,,,,,,3,,,,,,,,,,,,,,,,,,,,,,,,,,,,,,,,,,,,,,,,,,,,,,,,,,,,,,,,,"[""cherry.png""]","[""chocolate_truffle.png""]",,,,2,right,keydown(ArrowRight),false,,1,,,,,,,370187.10499999725,370179.01999999594,368642.467,368958.3899999998,368942.455,370509.059,,4,,
square,canvas.Screen,2_4_2_6_1_0_0_0_0_3_3,2021-05-24T16:14:15.640Z,,,blank.png,"[""chocolate_truffle.png""]",blank.png,blank.png,blank.png,blank.png,blank.png,blank.png,blank.png,blank.png,blank.png,blank.png,blank.png,,,,,,,,,,,,,,,,,,,,,,,,,,,,,"[""chocolate_truffle.png""]","[""cherry.png""]",PB14.png,,,,,,,,,,,0,6,"[""cherry.png""]","[""cherry.png""]","[""cherry.png""]","[""cherry.png""]","[""cherry.png""]","[""cherry.png""]",blank.png,PB18.png,PB18.png,"[""cherry.png""]","[""cherry.png""]","[""cherry.png""]",blank.png,blank.png,blank.png,"[""cherry.png""]","[""cherry.png""]","[""cherry.png""]","[""cherry.png""]","[""cherry.png""]","[""cherry.png""]",1,"[""chocolate_truffle.png""]",blank.png,blank.png,blank.png,3,"[""cherry.png""]","[""cherry.png""]","[""cherry.png""]",blank.png,blank.png,blank.png,PB14.png,,,,,,,,,,,1,,,#808080,#33ff3f,,,,,,,,,999.9599999999627,,timeout,,,,,,,,,,,,,3,,,,,,,,,,,,,,,,,,,,,,,,,,,,,,,,,,,,,,,,,,,,,,,,,,,,,,,,,"[""cherry.png""]","[""chocolate_truffle.png""]",,,,2,,,false,,1,,,,,white,black,371495.8099999931,371492.353,370492.393,370488.53999999847,370509.059,371509.019,,,,
ITI_late,canvas.Screen,2_4_2_6_1_0_0_0_0_3_4,2021-05-24T16:14:16.889Z,,,blank.png,"[""chocolate_truffle.png""]",blank.png,blank.png,blank.png,blank.png,blank.png,blank.png,blank.png,blank.png,blank.png,blank.png,blank.png,,,,,,,,,,,,,,,,,,,,,,,,,,,,,"[""chocolate_truffle.png""]","[""cherry.png""]",PB14.png,,,,,,,,,,,0,6,"[""cherry.png""]","[""cherry.png""]","[""cherry.png""]","[""cherry.png""]","[""cherry.png""]","[""cherry.png""]",blank.png,PB18.png,PB18.png,"[""cherry.png""]","[""cherry.png""]","[""cherry.png""]",blank.png,blank.png,blank.png,"[""cherry.png""]","[""cherry.png""]","[""cherry.png""]","[""cherry.png""]","[""cherry.png""]","[""cherry.png""]",1,"[""chocolate_truffle.png""]",blank.png,blank.png,blank.png,3,"[""cherry.png""]","[""cherry.png""]","[""cherry.png""]",blank.png,blank.png,blank.png,PB14.png,,,,,,,,,,,1,,,,,,,,,,,,,1249.9500000000116,,timeout,,,,,,,,,,,,white,3,,,,,,,,,,,,,,,,,,,,,,,,,,,,,,,,,,,,,,,,,,,,,,,,,,,,,,,,,"[""cherry.png""]","[""chocolate_truffle.png""]",,,,2,,,false,,1,,,,,,,372745.19999999757,372742.303,371492.353,371499.61499999336,371509.019,372758.969,,,,
choice_sequence,flow.Sequence,2_4_2_6_1_0_0_0_0_3,2021-05-24T16:14:16.890Z,,,blank.png,"[""chocolate_truffle.png""]",blank.png,blank.png,blank.png,blank.png,blank.png,blank.png,blank.png,blank.png,blank.png,blank.png,blank.png,,,,,,,,,,,,,,,,,,,,,,,,,,,,,"[""chocolate_truffle.png""]","[""cherry.png""]",PB14.png,,,,,,,,,,,0,6,"[""cherry.png""]","[""cherry.png""]","[""cherry.png""]","[""cherry.png""]","[""cherry.png""]","[""cherry.png""]",blank.png,PB18.png,PB18.png,"[""cherry.png""]","[""cherry.png""]","[""cherry.png""]",blank.png,blank.png,blank.png,"[""cherry.png""]","[""cherry.png""]","[""cherry.png""]","[""cherry.png""]","[""cherry.png""]","[""cherry.png""]",1,"[""chocolate_truffle.png""]",blank.png,blank.png,blank.png,3,"[""cherry.png""]","[""cherry.png""]","[""cherry.png""]",blank.png,blank.png,blank.png,PB14.png,,,,,,,,,,,1,,,,,,,,,,,,,5583.109999999986,,completion,,,,,,,,,,,,,3,,,,,,,,,,,,,,,,,,,,,,,,,,,,,,,,,,,,,,,,,,,,,,,,,,,,,,,,,"[""cherry.png""]","[""chocolate_truffle.png""]",,,,2,,,false,,1,,,,,,,372746.12999999954,372742.303,367125.861,367136.10499999777,367159.193,372758.969,,,,
fixCross,canvas.Screen,2_4_2_6_1_0_0_0_0_4_0,2021-05-24T16:14:17.138Z,,,blank.png,"[""chocolate_truffle.png""]",blank.png,blank.png,blank.png,blank.png,blank.png,blank.png,blank.png,blank.png,blank.png,blank.png,blank.png,,,,,,,,,,,,,,,,,,,,,,,,,,,,,"[""chocolate_truffle.png""]","[""cherry.png""]",PB12.png,,,,,,,,,,,0,6,"[""cherry.png""]","[""cherry.png""]","[""cherry.png""]","[""cherry.png""]","[""cherry.png""]","[""cherry.png""]",blank.png,PB18.png,PB18.png,"[""cherry.png""]","[""cherry.png""]",blank.png,blank.png,blank.png,blank.png,"[""cherry.png""]","[""cherry.png""]","[""cherry.png""]","[""cherry.png""]","[""cherry.png""]","[""cherry.png""]",1,"[""chocolate_truffle.png""]",blank.png,blank.png,blank.png,2,"[""cherry.png""]","[""cherry.png""]",blank.png,blank.png,blank.png,blank.png,PB12.png,,,,,,,,,,,1,,,,,,,,,,,,,549.9780000000028,,timeout,,,,,,,,,,,,,3,,,,,,,,,,,,,,,,,,,,,,,,,,,,,,,,,,,,,,,,,,,,,,,,,,,,,,,,,"[""cherry.png""]","[""chocolate_truffle.png""]",,,,2,,,false,,1,,,,,,,372994.61999999767,372992.293,372742.303,372753.63999999536,372758.969,373308.947,5,,,
timeout,canvas.Screen,2_4_2_6_1_0_0_0_0_4_1,2021-05-24T16:14:17.938Z,,,blank.png,"[""chocolate_truffle.png""]",blank.png,blank.png,blank.png,blank.png,blank.png,blank.png,blank.png,blank.png,blank.png,blank.png,blank.png,,,,,,,,,,,,,,,,,,,,,,,,,,,,,"[""chocolate_truffle.png""]","[""cherry.png""]",PB12.png,,,,,,,,,,,0,6,"[""cherry.png""]","[""cherry.png""]","[""cherry.png""]","[""cherry.png""]","[""cherry.png""]","[""cherry.png""]",blank.png,PB18.png,PB18.png,"[""cherry.png""]","[""cherry.png""]",blank.png,blank.png,blank.png,blank.png,"[""cherry.png""]","[""cherry.png""]","[""cherry.png""]","[""cherry.png""]","[""cherry.png""]","[""cherry.png""]",1,"[""chocolate_truffle.png""]",blank.png,blank.png,blank.png,2,"[""cherry.png""]","[""cherry.png""]",blank.png,blank.png,blank.png,blank.png,PB12.png,,,,,,,,,,,1,,,,,,,,,,,,,766.6359999999986,,timeout,,,,,,,,,,,,,3,,,,,,,,,,,,,,,,,,,,,,,,,,,,,,,,,,,,,,,,,,,,,,,,,,,,,,,,,"[""cherry.png""]","[""chocolate_truffle.png""]",,,,2,,,false,,1,,,,,,,373794.6549999979,373792.261,372992.293,373316.42999999895,373308.947,374075.583,,,,
choice,canvas.Screen,2_4_2_6_1_0_0_0_0_4_2,2021-05-24T16:14:18.647Z,,,blank.png,"[""chocolate_truffle.png""]",blank.png,blank.png,blank.png,blank.png,blank.png,blank.png,blank.png,blank.png,blank.png,blank.png,blank.png,,,,,,,,,,,,,,,,,,,,,,,,,,,,,"[""chocolate_truffle.png""]","[""cherry.png""]",PB12.png,,,,,,,,,,,0,6,"[""cherry.png""]","[""cherry.png""]","[""cherry.png""]","[""cherry.png""]","[""cherry.png""]","[""cherry.png""]",blank.png,PB18.png,PB18.png,"[""cherry.png""]","[""cherry.png""]",blank.png,blank.png,blank.png,blank.png,"[""cherry.png""]","[""cherry.png""]","[""cherry.png""]","[""cherry.png""]","[""cherry.png""]","[""cherry.png""]",1,"[""chocolate_truffle.png""]",blank.png,blank.png,blank.png,2,"[""cherry.png""]","[""cherry.png""]",blank.png,blank.png,blank.png,blank.png,PB12.png,,,,,,,,,,,1,,,,,,,,,,,,,419.62699999369215,,response,,,,,,,,,,,,,3,,,,,,,,,,,,,,,,,,,,,,,,,,,,,,,,,,,,,,,,,,,,,,,,,,,,,,,,,"[""cherry.png""]","[""chocolate_truffle.png""]",,,,2,right,keydown(ArrowRight),false,,1,,,,,,,374503.04999999935,374495.2099999937,373792.261,374094.3699999989,374075.583,374809.32,,5,,
square,canvas.Screen,2_4_2_6_1_0_0_0_0_4_3,2021-05-24T16:14:19.939Z,,,blank.png,"[""chocolate_truffle.png""]",blank.png,blank.png,blank.png,blank.png,blank.png,blank.png,blank.png,blank.png,blank.png,blank.png,blank.png,,,,,,,,,,,,,,,,,,,,,,,,,,,,,"[""chocolate_truffle.png""]","[""cherry.png""]",PB12.png,,,,,,,,,,,0,6,"[""cherry.png""]","[""cherry.png""]","[""cherry.png""]","[""cherry.png""]","[""cherry.png""]","[""cherry.png""]",blank.png,PB18.png,PB18.png,"[""cherry.png""]","[""cherry.png""]",blank.png,blank.png,blank.png,blank.png,"[""cherry.png""]","[""cherry.png""]","[""cherry.png""]","[""cherry.png""]","[""cherry.png""]","[""cherry.png""]",1,"[""chocolate_truffle.png""]",blank.png,blank.png,blank.png,2,"[""cherry.png""]","[""cherry.png""]",blank.png,blank.png,blank.png,blank.png,PB12.png,,,,,,,,,,,1,,,#808080,#33ff3f,,,,,,,,,999.960000000021,,timeout,,,,,,,,,,,,,3,,,,,,,,,,,,,,,,,,,,,,,,,,,,,,,,,,,,,,,,,,,,,,,,,,,,,,,,,"[""cherry.png""]","[""chocolate_truffle.png""]",,,,2,,,false,,1,,,,,white,black,375795.27999999846,375792.614,374792.654,374792.5349999932,374809.32,375809.28,,,,
ITI_late,canvas.Screen,2_4_2_6_1_0_0_0_0_4_4,2021-05-24T16:14:20.439Z,,,blank.png,"[""chocolate_truffle.png""]",blank.png,blank.png,blank.png,blank.png,blank.png,blank.png,blank.png,blank.png,blank.png,blank.png,blank.png,,,,,,,,,,,,,,,,,,,,,,,,,,,,,"[""chocolate_truffle.png""]","[""cherry.png""]",PB12.png,,,,,,,,,,,0,6,"[""cherry.png""]","[""cherry.png""]","[""cherry.png""]","[""cherry.png""]","[""cherry.png""]","[""cherry.png""]",blank.png,PB18.png,PB18.png,"[""cherry.png""]","[""cherry.png""]",blank.png,blank.png,blank.png,blank.png,"[""cherry.png""]","[""cherry.png""]","[""cherry.png""]","[""cherry.png""]","[""cherry.png""]","[""cherry.png""]",1,"[""chocolate_truffle.png""]",blank.png,blank.png,blank.png,2,"[""cherry.png""]","[""cherry.png""]",blank.png,blank.png,blank.png,blank.png,PB12.png,,,,,,,,,,,1,,,,,,,,,,,,,499.9799999999814,,timeout,,,,,,,,,,,,white,3,,,,,,,,,,,,,,,,,,,,,,,,,,,,,,,,,,,,,,,,,,,,,,,,,,,,,,,,,"[""cherry.png""]","[""chocolate_truffle.png""]",,,,2,,,false,,1,,,,,,,376295.1449999964,376292.594,375792.614,375798.9649999945,375809.28,376309.26,,,,
choice_sequence,flow.Sequence,2_4_2_6_1_0_0_0_0_4,2021-05-24T16:14:20.440Z,,,blank.png,"[""chocolate_truffle.png""]",blank.png,blank.png,blank.png,blank.png,blank.png,blank.png,blank.png,blank.png,blank.png,blank.png,blank.png,,,,,,,,,,,,,,,,,,,,,,,,,,,,,"[""chocolate_truffle.png""]","[""cherry.png""]",PB12.png,,,,,,,,,,,0,6,"[""cherry.png""]","[""cherry.png""]","[""cherry.png""]","[""cherry.png""]","[""cherry.png""]","[""cherry.png""]",blank.png,PB18.png,PB18.png,"[""cherry.png""]","[""cherry.png""]",blank.png,blank.png,blank.png,blank.png,"[""cherry.png""]","[""cherry.png""]","[""cherry.png""]","[""cherry.png""]","[""cherry.png""]","[""cherry.png""]",1,"[""chocolate_truffle.png""]",blank.png,blank.png,blank.png,2,"[""cherry.png""]","[""cherry.png""]",blank.png,blank.png,blank.png,blank.png,PB12.png,,,,,,,,,,,1,,,,,,,,,,,,,3533.625,,completion,,,,,,,,,,,,,3,,,,,,,,,,,,,,,,,,,,,,,,,,,,,,,,,,,,,,,,,,,,,,,,,,,,,,,,,"[""cherry.png""]","[""chocolate_truffle.png""]",,,,2,,,false,,1,,,,,,,376296.0749999984,376292.594,372742.303,372752.324999994,372758.969,376309.26,,,,
fixCross,canvas.Screen,2_4_2_6_1_0_0_0_0_5_0,2021-05-24T16:14:20.938Z,,,blank.png,"[""chocolate_truffle.png""]",blank.png,blank.png,blank.png,blank.png,blank.png,blank.png,blank.png,blank.png,blank.png,blank.png,blank.png,,,,,,,,,,,,,,,,,,,,,,,,,,,,,"[""chocolate_truffle.png""]","[""cherry.png""]",PB07.png,,,,,,,,,,,0,6,"[""cherry.png""]","[""cherry.png""]","[""cherry.png""]","[""cherry.png""]","[""cherry.png""]","[""cherry.png""]",blank.png,PB18.png,PB18.png,"[""cherry.png""]",blank.png,blank.png,blank.png,blank.png,blank.png,"[""cherry.png""]","[""cherry.png""]","[""cherry.png""]","[""cherry.png""]","[""cherry.png""]","[""cherry.png""]",1,"[""chocolate_truffle.png""]",blank.png,blank.png,blank.png,1,"[""cherry.png""]",blank.png,blank.png,blank.png,blank.png,blank.png,PB07.png,,,,,,,,,,,1,,,,,,,,,,,,,783.3019999999669,,timeout,,,,,,,,,,,,,3,,,,,,,,,,,,,,,,,,,,,,,,,,,,,,,,,,,,,,,,,,,,,,,,,,,,,,,,,"[""cherry.png""]","[""chocolate_truffle.png""]",,,,2,,,false,,1,,,,,,,376794.5949999994,376792.574,376292.594,376303.5299999974,376309.26,377092.562,6,,,
timeout,canvas.Screen,2_4_2_6_1_0_0_0_0_5_1,2021-05-24T16:14:21.721Z,,,blank.png,"[""chocolate_truffle.png""]",blank.png,blank.png,blank.png,blank.png,blank.png,blank.png,blank.png,blank.png,blank.png,blank.png,blank.png,,,,,,,,,,,,,,,,,,,,,,,,,,,,,"[""chocolate_truffle.png""]","[""cherry.png""]",PB07.png,,,,,,,,,,,0,6,"[""cherry.png""]","[""cherry.png""]","[""cherry.png""]","[""cherry.png""]","[""cherry.png""]","[""cherry.png""]",blank.png,PB18.png,PB18.png,"[""cherry.png""]",blank.png,blank.png,blank.png,blank.png,blank.png,"[""cherry.png""]","[""cherry.png""]","[""cherry.png""]","[""cherry.png""]","[""cherry.png""]","[""cherry.png""]",1,"[""chocolate_truffle.png""]",blank.png,blank.png,blank.png,1,"[""cherry.png""]",blank.png,blank.png,blank.png,blank.png,blank.png,PB07.png,,,,,,,,,,,1,,,,,,,,,,,,,783.3020000000251,,timeout,,,,,,,,,,,,,3,,,,,,,,,,,,,,,,,,,,,,,,,,,,,,,,,,,,,,,,,,,,,,,,,,,,,,,,,"[""cherry.png""]","[""chocolate_truffle.png""]",,,,2,,,false,,1,,,,,,,377577.69999999437,377575.876,376792.574,377098.8849999994,377092.562,377875.864,,,,
choice,canvas.Screen,2_4_2_6_1_0_0_0_0_5_2,2021-05-24T16:14:22.260Z,,,blank.png,"[""chocolate_truffle.png""]",blank.png,blank.png,blank.png,blank.png,blank.png,blank.png,blank.png,blank.png,blank.png,blank.png,blank.png,,,,,,,,,,,,,,,,,,,,,,,,,,,,,"[""chocolate_truffle.png""]","[""cherry.png""]",PB07.png,,,,,,,,,,,0,6,"[""cherry.png""]","[""cherry.png""]","[""cherry.png""]","[""cherry.png""]","[""cherry.png""]","[""cherry.png""]",blank.png,PB18.png,PB18.png,"[""cherry.png""]",blank.png,blank.png,blank.png,blank.png,blank.png,"[""cherry.png""]","[""cherry.png""]","[""cherry.png""]","[""cherry.png""]","[""cherry.png""]","[""cherry.png""]",1,"[""chocolate_truffle.png""]",blank.png,blank.png,blank.png,1,"[""cherry.png""]",blank.png,blank.png,blank.png,blank.png,blank.png,PB07.png,,,,,,,,,,,1,,,,,,,,,,,,,230.9259999979986,,response,,,,,,,,,,,,,3,,,,,,,,,,,,,,,,,,,,,,,,,,,,,,,,,,,,,,,,,,,,,,,,,,,,,,,,,"[""cherry.png""]","[""chocolate_truffle.png""]",,,,2,right,keydown(ArrowRight),false,,1,,,,,,,378116.19499999506,378106.789999998,377575.876,377882.97499999317,377875.864,378425.842,,6,,
square,canvas.Screen,2_4_2_6_1_0_0_0_0_5_3,2021-05-24T16:14:23.556Z,,,blank.png,"[""chocolate_truffle.png""]",blank.png,blank.png,blank.png,blank.png,blank.png,blank.png,blank.png,blank.png,blank.png,blank.png,blank.png,,,,,,,,,,,,,,,,,,,,,,,,,,,,,"[""chocolate_truffle.png""]","[""cherry.png""]",PB07.png,,,,,,,,,,,0,6,"[""cherry.png""]","[""cherry.png""]","[""cherry.png""]","[""cherry.png""]","[""cherry.png""]","[""cherry.png""]",blank.png,PB18.png,PB18.png,"[""cherry.png""]",blank.png,blank.png,blank.png,blank.png,blank.png,"[""cherry.png""]","[""cherry.png""]","[""cherry.png""]","[""cherry.png""]","[""cherry.png""]","[""cherry.png""]",1,"[""chocolate_truffle.png""]",blank.png,blank.png,blank.png,1,"[""cherry.png""]",blank.png,blank.png,blank.png,blank.png,blank.png,PB07.png,,,,,,,,,,,1,,,#808080,#33ff3f,,,,,,,,,999.960000000021,,timeout,,,,,,,,,,,,,3,,,,,,,,,,,,,,,,,,,,,,,,,,,,,,,,,,,,,,,,,,,,,,,,,,,,,,,,,"[""cherry.png""]","[""chocolate_truffle.png""]",,,,2,,,false,,1,,,,,white,black,379412.3099999997,379409.136,378409.176,378406.3099999985,378425.842,379425.802,,,,
ITI_late,canvas.Screen,2_4_2_6_1_0_0_0_0_5_4,2021-05-24T16:14:24.555Z,,,blank.png,"[""chocolate_truffle.png""]",blank.png,blank.png,blank.png,blank.png,blank.png,blank.png,blank.png,blank.png,blank.png,blank.png,blank.png,,,,,,,,,,,,,,,,,,,,,,,,,,,,,"[""chocolate_truffle.png""]","[""cherry.png""]",PB07.png,,,,,,,,,,,0,6,"[""cherry.png""]","[""cherry.png""]","[""cherry.png""]","[""cherry.png""]","[""cherry.png""]","[""cherry.png""]",blank.png,PB18.png,PB18.png,"[""cherry.png""]",blank.png,blank.png,blank.png,blank.png,blank.png,"[""cherry.png""]","[""cherry.png""]","[""cherry.png""]","[""cherry.png""]","[""cherry.png""]","[""cherry.png""]",1,"[""chocolate_truffle.png""]",blank.png,blank.png,blank.png,1,"[""cherry.png""]",blank.png,blank.png,blank.png,blank.png,blank.png,PB07.png,,,,,,,,,,,1,,,,,,,,,,,,,999.9599999999627,,timeout,,,,,,,,,,,,white,3,,,,,,,,,,,,,,,,,,,,,,,,,,,,,,,,,,,,,,,,,,,,,,,,,,,,,,,,,"[""cherry.png""]","[""chocolate_truffle.png""]",,,,2,,,false,,1,,,,,,,380411.7399999959,380409.096,379409.136,379416.0249999986,379425.802,380425.762,,,,
choice_sequence,flow.Sequence,2_4_2_6_1_0_0_0_0_5,2021-05-24T16:14:24.556Z,,,blank.png,"[""chocolate_truffle.png""]",blank.png,blank.png,blank.png,blank.png,blank.png,blank.png,blank.png,blank.png,blank.png,blank.png,blank.png,,,,,,,,,,,,,,,,,,,,,,,,,,,,,"[""chocolate_truffle.png""]","[""cherry.png""]",PB07.png,,,,,,,,,,,0,6,"[""cherry.png""]","[""cherry.png""]","[""cherry.png""]","[""cherry.png""]","[""cherry.png""]","[""cherry.png""]",blank.png,PB18.png,PB18.png,"[""cherry.png""]",blank.png,blank.png,blank.png,blank.png,blank.png,"[""cherry.png""]","[""cherry.png""]","[""cherry.png""]","[""cherry.png""]","[""cherry.png""]","[""cherry.png""]",1,"[""chocolate_truffle.png""]",blank.png,blank.png,blank.png,1,"[""cherry.png""]",blank.png,blank.png,blank.png,blank.png,blank.png,PB07.png,,,,,,,,,,,1,,,,,,,,,,,,,4099.83600000001,,completion,,,,,,,,,,,,,3,,,,,,,,,,,,,,,,,,,,,,,,,,,,,,,,,,,,,,,,,,,,,,,,,,,,,,,,,"[""cherry.png""]","[""chocolate_truffle.png""]",,,,2,,,false,,1,,,,,,,380412.6550000001,380409.096,376292.594,376302.21499999607,376309.26,380425.762,,,,
fixCross,canvas.Screen,2_4_2_6_1_0_0_0_0_6_0,2021-05-24T16:14:24.955Z,,,blank.png,blank.png,blank.png,blank.png,blank.png,blank.png,blank.png,"[""chocolate_truffle.png""]",blank.png,blank.png,blank.png,blank.png,blank.png,,,,,,,,,,,,,,,,,,,,,,,,,,,,,"[""chocolate_truffle.png""]","[""cherry.png""]",PB18.png,,,,,,,,,,,0,6,"[""cherry.png""]","[""cherry.png""]","[""cherry.png""]","[""cherry.png""]","[""cherry.png""]","[""cherry.png""]",blank.png,PB18.png,PB17.png,"[""cherry.png""]","[""cherry.png""]","[""cherry.png""]","[""cherry.png""]","[""cherry.png""]","[""cherry.png""]","[""cherry.png""]","[""cherry.png""]","[""cherry.png""]","[""cherry.png""]","[""cherry.png""]","[""cherry.png""]",1,"[""chocolate_truffle.png""]",blank.png,blank.png,blank.png,6,"[""cherry.png""]","[""cherry.png""]","[""cherry.png""]","[""cherry.png""]","[""cherry.png""]","[""cherry.png""]",PB17.png,,,,,,,,,,,1,,,,,,,,,,,,,749.9700000000303,,timeout,,,,,,,,,,,,,4,,,,,,,,,,,,,,,,,,,,,,,,,,,,,,,,,,,,,,,,,,,,,,,,,,,,,,,,,"[""cherry.png""]","[""chocolate_truffle.png""]",,,,2,,,false,,1,,,,,,,380811.729999994,380809.08,380409.096,380425.0949999987,380425.762,381175.732,7,,,
timeout,canvas.Screen,2_4_2_6_1_0_0_0_0_6_1,2021-05-24T16:14:25.805Z,,,blank.png,blank.png,blank.png,blank.png,blank.png,blank.png,blank.png,"[""chocolate_truffle.png""]",blank.png,blank.png,blank.png,blank.png,blank.png,,,,,,,,,,,,,,,,,,,,,,,,,,,,,"[""chocolate_truffle.png""]","[""cherry.png""]",PB18.png,,,,,,,,,,,0,6,"[""cherry.png""]","[""cherry.png""]","[""cherry.png""]","[""cherry.png""]","[""cherry.png""]","[""cherry.png""]",blank.png,PB18.png,PB17.png,"[""cherry.png""]","[""cherry.png""]","[""cherry.png""]","[""cherry.png""]","[""cherry.png""]","[""cherry.png""]","[""cherry.png""]","[""cherry.png""]","[""cherry.png""]","[""cherry.png""]","[""cherry.png""]","[""cherry.png""]",1,"[""chocolate_truffle.png""]",blank.png,blank.png,blank.png,6,"[""cherry.png""]","[""cherry.png""]","[""cherry.png""]","[""cherry.png""]","[""cherry.png""]","[""cherry.png""]",PB17.png,,,,,,,,,,,1,,,,,,,,,,,,,849.9659999999567,,timeout,,,,,,,,,,,,,4,,,,,,,,,,,,,,,,,,,,,,,,,,,,,,,,,,,,,,,,,,,,,,,,,,,,,,,,,"[""cherry.png""]","[""chocolate_truffle.png""]",,,,2,,,false,,1,,,,,,,381661.8499999968,381659.046,380809.08,381183.26499999966,381175.732,382025.698,,,,
choice,canvas.Screen,2_4_2_6_1_0_0_0_0_6_2,2021-05-24T16:14:27.063Z,,,blank.png,blank.png,blank.png,blank.png,blank.png,blank.png,blank.png,"[""chocolate_truffle.png""]",blank.png,blank.png,blank.png,blank.png,blank.png,,,,,,,,,,,,,,,,,,,,,,,,,,,,,"[""chocolate_truffle.png""]","[""cherry.png""]",PB18.png,,,,,,,,,,,0,6,"[""cherry.png""]","[""cherry.png""]","[""cherry.png""]","[""cherry.png""]","[""cherry.png""]","[""cherry.png""]",blank.png,PB18.png,PB17.png,"[""cherry.png""]","[""cherry.png""]","[""cherry.png""]","[""cherry.png""]","[""cherry.png""]","[""cherry.png""]","[""cherry.png""]","[""cherry.png""]","[""cherry.png""]","[""cherry.png""]","[""cherry.png""]","[""cherry.png""]",1,"[""chocolate_truffle.png""]",blank.png,blank.png,blank.png,6,"[""cherry.png""]","[""cherry.png""]","[""cherry.png""]","[""cherry.png""]","[""cherry.png""]","[""cherry.png""]",PB17.png,,,,,,,,,,,1,,,,,,,,,,,,,885.7269999984419,,response,,,,,,,,,,,,,4,,,,,,,,,,,,,,,,,,,,,,,,,,,,,,,,,,,,,,,,,,,,,,,,,,,,,,,,,"[""cherry.png""]","[""chocolate_truffle.png""]",,,,2,right,keydown(ArrowRight),false,,1,,,,,,,382919.8699999979,382911.4249999984,381659.046,382034.32999999495,382025.698,383292.314,,7,,
square,canvas.Screen,2_4_2_6_1_0_0_0_0_6_3,2021-05-24T16:14:28.422Z,,,blank.png,blank.png,blank.png,blank.png,blank.png,blank.png,blank.png,"[""chocolate_truffle.png""]",blank.png,blank.png,blank.png,blank.png,blank.png,,,,,,,,,,,,,,,,,,,,,,,,,,,,,"[""chocolate_truffle.png""]","[""cherry.png""]",PB18.png,,,,,,,,,,,0,6,"[""cherry.png""]","[""cherry.png""]","[""cherry.png""]","[""cherry.png""]","[""cherry.png""]","[""cherry.png""]",blank.png,PB18.png,PB17.png,"[""cherry.png""]","[""cherry.png""]","[""cherry.png""]","[""cherry.png""]","[""cherry.png""]","[""cherry.png""]","[""cherry.png""]","[""cherry.png""]","[""cherry.png""]","[""cherry.png""]","[""cherry.png""]","[""cherry.png""]",1,"[""chocolate_truffle.png""]",blank.png,blank.png,blank.png,6,"[""cherry.png""]","[""cherry.png""]","[""cherry.png""]","[""cherry.png""]","[""cherry.png""]","[""cherry.png""]",PB17.png,,,,,,,,,,,1,,,#808080,#33ff3f,,,,,,,,,999.9599999999627,,timeout,,,,,,,,,,,,,4,,,,,,,,,,,,,,,,,,,,,,,,,,,,,,,,,,,,,,,,,,,,,,,,,,,,,,,,,"[""cherry.png""]","[""chocolate_truffle.png""]",,,,2,,,false,,1,,,,,white,black,384278.82999999565,384275.608,383275.648,383265.6099999949,383292.314,384292.274,,,,
ITI_late,canvas.Screen,2_4_2_6_1_0_0_0_0_6_4,2021-05-24T16:14:28.921Z,,,blank.png,blank.png,blank.png,blank.png,blank.png,blank.png,blank.png,"[""chocolate_truffle.png""]",blank.png,blank.png,blank.png,blank.png,blank.png,,,,,,,,,,,,,,,,,,,,,,,,,,,,,"[""chocolate_truffle.png""]","[""cherry.png""]",PB18.png,,,,,,,,,,,0,6,"[""cherry.png""]","[""cherry.png""]","[""cherry.png""]","[""cherry.png""]","[""cherry.png""]","[""cherry.png""]",blank.png,PB18.png,PB17.png,"[""cherry.png""]","[""cherry.png""]","[""cherry.png""]","[""cherry.png""]","[""cherry.png""]","[""cherry.png""]","[""cherry.png""]","[""cherry.png""]","[""cherry.png""]","[""cherry.png""]","[""cherry.png""]","[""cherry.png""]",1,"[""chocolate_truffle.png""]",blank.png,blank.png,blank.png,6,"[""cherry.png""]","[""cherry.png""]","[""cherry.png""]","[""cherry.png""]","[""cherry.png""]","[""cherry.png""]",PB17.png,,,,,,,,,,,1,,,,,,,,,,,,,533.3120000000345,,timeout,,,,,,,,,,,,white,4,,,,,,,,,,,,,,,,,,,,,,,,,,,,,,,,,,,,,,,,,,,,,,,,,,,,,,,,,"[""cherry.png""]","[""chocolate_truffle.png""]",,,,2,,,false,,1,,,,,,,384777.5349999938,384775.588,384275.608,384282.4899999978,384292.274,384825.586,,,,
choice_sequence,flow.Sequence,2_4_2_6_1_0_0_0_0_6,2021-05-24T16:14:28.922Z,,,blank.png,blank.png,blank.png,blank.png,blank.png,blank.png,blank.png,"[""chocolate_truffle.png""]",blank.png,blank.png,blank.png,blank.png,blank.png,,,,,,,,,,,,,,,,,,,,,,,,,,,,,"[""chocolate_truffle.png""]","[""cherry.png""]",PB18.png,,,,,,,,,,,0,6,"[""cherry.png""]","[""cherry.png""]","[""cherry.png""]","[""cherry.png""]","[""cherry.png""]","[""cherry.png""]",blank.png,PB18.png,PB17.png,"[""cherry.png""]","[""cherry.png""]","[""cherry.png""]","[""cherry.png""]","[""cherry.png""]","[""cherry.png""]","[""cherry.png""]","[""cherry.png""]","[""cherry.png""]","[""cherry.png""]","[""cherry.png""]","[""cherry.png""]",1,"[""chocolate_truffle.png""]",blank.png,blank.png,blank.png,6,"[""cherry.png""]","[""cherry.png""]","[""cherry.png""]","[""cherry.png""]","[""cherry.png""]","[""cherry.png""]",PB17.png,,,,,,,,,,,1,,,,,,,,,,,,,4349.826000000001,,completion,,,,,,,,,,,,,4,,,,,,,,,,,,,,,,,,,,,,,,,,,,,,,,,,,,,,,,,,,,,,,,,,,,,,,,,"[""cherry.png""]","[""chocolate_truffle.png""]",,,,2,,,false,,1,,,,,,,384778.51999999984,384775.588,380409.096,380422.8149999981,380425.762,384825.586,,,,
choice_loop,flow.Loop,2_4_2_6_1_0_0_0_0,2021-05-24T16:14:28.923Z,,,,,,,,,,,,,,,,,,,,,,,,,,,,,,,,,,,,,,,,,,,,"[""chocolate_truffle.png""]","[""cherry.png""]",,,,,,,,,,,,,,,,,,,,,,,,,,,,,,,,,,,,,,,,,,,,,,,,,,,,,,,,,,,,,,,,,,,,,,,32093.322999999975,,completion,,,,,,,,,,,,,,,,,,,,,,,,,,,,,,,,,,,,,,,,,,,,,,,,,,,,,,,,,,,,,,,,,,,,,,"[""cherry.png""]","[""chocolate_truffle.png""]",,,,2,,,false,,,,,,,,,384779.09999999974,384775.588,352632.267,352684.49499999406,352682.265,384825.586,,,,
choice_frame,html.Frame,2_4_2_6_1_0_0_0,2021-05-24T16:14:28.923Z,,,,,,,,,,,,,,,,,,,,,,,,,,,,,,,,,,,,,,,,,,,,,,,,,,,,,,,,,,,,,,,,,,,,,,,,,,,,,,,,,,,,,,,,,,,,,,,,,,,,,,,,,,,,,,,,,,,,32097.004999999073,,,,,,,,,,,,,,,,,,,,,,,,,,,,,,,,,,,,,,,,,,,,,,,,,,,,,,,,,,,,,,,,,,,,,,,,,,,,,2,,,false,,,,,,,,,384779.5399999959,384779.2699999991,352632.267,352633.83499999327,352682.265,384842.252,,,,
sublock_1,flow.Sequence,2_4_2_6_1_0_0,2021-05-24T16:14:28.923Z,,,,,,,,,,,,,,,,,,,,,,,,,,,,,,,,,,,,,,,,,,,,,,,,,,,,,,,,,,,,,,,,,,,,,,,,,,,,,,,,,,,,,,,,,,,,,,,,,,,,,,,,,,,,,,,,,,,,32097.004999999073,,completion,,,,,,,,,,,,,,,,,,,,,,,,,,,,,,,,,,,,,,,,,,,,,,,,,,,,,,,,,,,,,,,,,,,,,,,,,,,2,,,false,,,,,,,,,384779.7899999932,384779.2699999991,352632.267,352633.7699999931,352682.265,384842.252,,,,
fixCross,canvas.Screen,2_4_2_6_1_0_1_0_0_0_0,2021-05-24T16:14:29.313Z,,,blank.png,blank.png,blank.png,blank.png,blank.png,blank.png,blank.png,"[""chocolate_truffle.png""]",blank.png,blank.png,blank.png,blank.png,blank.png,,,,,,,,,,,,,,,,,,,,,,,,,,,,,"[""chocolate_truffle.png""]","[""cherry.png""]",PB18.png,,,,,,,,,,,0,6,"[""cherry.png""]","[""cherry.png""]","[""cherry.png""]","[""cherry.png""]","[""cherry.png""]","[""cherry.png""]",blank.png,PB18.png,PB12.png,"[""cherry.png""]","[""cherry.png""]","[""cherry.png""]","[""cherry.png""]","[""cherry.png""]","[""cherry.png""]","[""cherry.png""]","[""cherry.png""]",blank.png,blank.png,blank.png,blank.png,1,"[""chocolate_truffle.png""]",blank.png,blank.png,blank.png,2,"[""cherry.png""]","[""cherry.png""]",blank.png,blank.png,blank.png,blank.png,PB12.png,,,,,,,,,,,1,,,,,,,,,,,,,625.3560000000289,,timeout,,,,,,,,,,,,,4,,,,,,,,,,,,,,,,,,,,,,,,,,,,,,,,,,,,,,,,,,,,,,,,,,,,,,,,,"[""cherry.png""]","[""chocolate_truffle.png""]",,,,4,,,false,,1,,,,,,,385169.9449999942,385167.62,384825.586,384833.21999999316,384842.252,385467.608,8,,,
timeout,canvas.Screen,2_4_2_6_1_0_1_0_0_0_1,2021-05-24T16:14:30.097Z,,,blank.png,blank.png,blank.png,blank.png,blank.png,blank.png,blank.png,"[""chocolate_truffle.png""]",blank.png,blank.png,blank.png,blank.png,blank.png,,,,,,,,,,,,,,,,,,,,,,,,,,,,,"[""chocolate_truffle.png""]","[""cherry.png""]",PB18.png,,,,,,,,,,,0,6,"[""cherry.png""]","[""cherry.png""]","[""cherry.png""]","[""cherry.png""]","[""cherry.png""]","[""cherry.png""]",blank.png,PB18.png,PB12.png,"[""cherry.png""]","[""cherry.png""]","[""cherry.png""]","[""cherry.png""]","[""cherry.png""]","[""cherry.png""]","[""cherry.png""]","[""cherry.png""]",blank.png,blank.png,blank.png,blank.png,1,"[""chocolate_truffle.png""]",blank.png,blank.png,blank.png,2,"[""cherry.png""]","[""cherry.png""]",blank.png,blank.png,blank.png,blank.png,PB12.png,,,,,,,,,,,1,,,,,,,,,,,,,766.6359999999986,,timeout,,,,,,,,,,,,,4,,,,,,,,,,,,,,,,,,,,,,,,,,,,,,,,,,,,,,,,,,,,,,,,,,,,,,,,,"[""cherry.png""]","[""chocolate_truffle.png""]",,,,4,,,false,,1,,,,,,,385953.4299999941,385950.922,385167.62,385461.13499999774,385467.608,386234.244,,,,
choice,canvas.Screen,2_4_2_6_1_0_1_0_0_0_2,2021-05-24T16:14:30.800Z,,,blank.png,blank.png,blank.png,blank.png,blank.png,blank.png,blank.png,"[""chocolate_truffle.png""]",blank.png,blank.png,blank.png,blank.png,blank.png,,,,,,,,,,,,,,,,,,,,,,,,,,,,,"[""chocolate_truffle.png""]","[""cherry.png""]",PB18.png,,,,,,,,,,,0,6,"[""cherry.png""]","[""cherry.png""]","[""cherry.png""]","[""cherry.png""]","[""cherry.png""]","[""cherry.png""]",blank.png,PB18.png,PB12.png,"[""cherry.png""]","[""cherry.png""]","[""cherry.png""]","[""cherry.png""]","[""cherry.png""]","[""cherry.png""]","[""cherry.png""]","[""cherry.png""]",blank.png,blank.png,blank.png,blank.png,1,"[""chocolate_truffle.png""]",blank.png,blank.png,blank.png,2,"[""cherry.png""]","[""cherry.png""]",blank.png,blank.png,blank.png,blank.png,PB12.png,,,,,,,,,,,1,,,,,,,,,,,,,412.8859999975539,,response,,,,,,,,,,,,,4,,,,,,,,,,,,,,,,,,,,,,,,,,,,,,,,,,,,,,,,,,,,,,,,,,,,,,,,,"[""cherry.png""]","[""chocolate_truffle.png""]",,,,4,left,keydown(ArrowLeft),false,,1,,,,,,,386655.9849999976,386647.12999999756,385950.922,386244.13999999524,386234.244,386950.882,,8,,
square,canvas.Screen,2_4_2_6_1_0_1_0_0_0_3,2021-05-24T16:14:32.080Z,,,blank.png,blank.png,blank.png,blank.png,blank.png,blank.png,blank.png,"[""chocolate_truffle.png""]",blank.png,blank.png,blank.png,blank.png,blank.png,,,,,,,,,,,,,,,,,,,,,,,,,,,,,"[""chocolate_truffle.png""]","[""cherry.png""]",PB18.png,,,,,,,,,,,0,6,"[""cherry.png""]","[""cherry.png""]","[""cherry.png""]","[""cherry.png""]","[""cherry.png""]","[""cherry.png""]",blank.png,PB18.png,PB12.png,"[""cherry.png""]","[""cherry.png""]","[""cherry.png""]","[""cherry.png""]","[""cherry.png""]","[""cherry.png""]","[""cherry.png""]","[""cherry.png""]",blank.png,blank.png,blank.png,blank.png,1,"[""chocolate_truffle.png""]",blank.png,blank.png,blank.png,2,"[""cherry.png""]","[""cherry.png""]",blank.png,blank.png,blank.png,blank.png,PB12.png,,,,,,,,,,,1,,,#33ff3f,#808080,,,,,,,,,999.960000000021,,timeout,,,,,,,,,,,,,4,,,,,,,,,,,,,,,,,,,,,,,,,,,,,,,,,,,,,,,,,,,,,,,,,,,,,,,,,"[""cherry.png""]","[""chocolate_truffle.png""]",,,,4,,,false,,1,,,,,black,white,387936.86499999603,387934.176,386934.216,386935.7499999969,386950.882,387950.842,,,,
ITI_late,canvas.Screen,2_4_2_6_1_0_1_0_0_0_4,2021-05-24T16:14:33.081Z,,,blank.png,blank.png,blank.png,blank.png,blank.png,blank.png,blank.png,"[""chocolate_truffle.png""]",blank.png,blank.png,blank.png,blank.png,blank.png,,,,,,,,,,,,,,,,,,,,,,,,,,,,,"[""chocolate_truffle.png""]","[""cherry.png""]",PB18.png,,,,,,,,,,,0,6,"[""cherry.png""]","[""cherry.png""]","[""cherry.png""]","[""cherry.png""]","[""cherry.png""]","[""cherry.png""]",blank.png,PB18.png,PB12.png,"[""cherry.png""]","[""cherry.png""]","[""cherry.png""]","[""cherry.png""]","[""cherry.png""]","[""cherry.png""]","[""cherry.png""]","[""cherry.png""]",blank.png,blank.png,blank.png,blank.png,1,"[""chocolate_truffle.png""]",blank.png,blank.png,blank.png,2,"[""cherry.png""]","[""cherry.png""]",blank.png,blank.png,blank.png,blank.png,PB12.png,,,,,,,,,,,1,,,,,,,,,,,,,999.960000000021,,timeout,,,,,,,,,,,,white,4,,,,,,,,,,,,,,,,,,,,,,,,,,,,,,,,,,,,,,,,,,,,,,,,,,,,,,,,,"[""cherry.png""]","[""chocolate_truffle.png""]",,,,4,,,false,,1,,,,,,,388937.41499999305,388934.136,387934.176,387941.66499999847,387950.842,388950.802,,,,
choice_sequence,flow.Sequence,2_4_2_6_1_0_1_0_0_0,2021-05-24T16:14:33.082Z,,,blank.png,blank.png,blank.png,blank.png,blank.png,blank.png,blank.png,"[""chocolate_truffle.png""]",blank.png,blank.png,blank.png,blank.png,blank.png,,,,,,,,,,,,,,,,,,,,,,,,,,,,,"[""chocolate_truffle.png""]","[""cherry.png""]",PB18.png,,,,,,,,,,,0,6,"[""cherry.png""]","[""cherry.png""]","[""cherry.png""]","[""cherry.png""]","[""cherry.png""]","[""cherry.png""]",blank.png,PB18.png,PB12.png,"[""cherry.png""]","[""cherry.png""]","[""cherry.png""]","[""cherry.png""]","[""cherry.png""]","[""cherry.png""]","[""cherry.png""]","[""cherry.png""]",blank.png,blank.png,blank.png,blank.png,1,"[""chocolate_truffle.png""]",blank.png,blank.png,blank.png,2,"[""cherry.png""]","[""cherry.png""]",blank.png,blank.png,blank.png,blank.png,PB12.png,,,,,,,,,,,1,,,,,,,,,,,,,4091.88400000002,,completion,,,,,,,,,,,,,4,,,,,,,,,,,,,,,,,,,,,,,,,,,,,,,,,,,,,,,,,,,,,,,,,,,,,,,,,"[""cherry.png""]","[""chocolate_truffle.png""]",,,,4,,,false,,1,,,,,,,388938.3299999972,388934.136,384825.586,384832.35499999864,384842.252,388950.802,,,,
fixCross,canvas.Screen,2_4_2_6_1_0_1_0_0_1_0,2021-05-24T16:14:33.830Z,,,blank.png,"[""chocolate_truffle.png""]",blank.png,blank.png,blank.png,blank.png,blank.png,blank.png,blank.png,blank.png,blank.png,blank.png,blank.png,,,,,,,,,,,,,,,,,,,,,,,,,,,,,"[""chocolate_truffle.png""]","[""cherry.png""]",PB16.png,,,,,,,,,,,0,6,"[""cherry.png""]","[""cherry.png""]","[""cherry.png""]","[""cherry.png""]","[""cherry.png""]","[""cherry.png""]",blank.png,PB18.png,PB18.png,"[""cherry.png""]","[""cherry.png""]","[""cherry.png""]","[""cherry.png""]","[""cherry.png""]",blank.png,"[""cherry.png""]","[""cherry.png""]","[""cherry.png""]","[""cherry.png""]","[""cherry.png""]","[""cherry.png""]",1,"[""chocolate_truffle.png""]",blank.png,blank.png,blank.png,5,"[""cherry.png""]","[""cherry.png""]","[""cherry.png""]","[""cherry.png""]","[""cherry.png""]",blank.png,PB16.png,,,,,,,,,,,1,,,,,,,,,,,,,1083.289999999979,,timeout,,,,,,,,,,,,,3,,,,,,,,,,,,,,,,,,,,,,,,,,,,,,,,,,,,,,,,,,,,,,,,,,,,,,,,,"[""cherry.png""]","[""chocolate_truffle.png""]",,,,4,,,false,,1,,,,,,,389686.47499999497,389684.106,388934.136,388945.75499999337,388950.802,390034.092,9,,,
timeout,canvas.Screen,2_4_2_6_1_0_1_0_0_1_1,2021-05-24T16:14:34.663Z,,,blank.png,"[""chocolate_truffle.png""]",blank.png,blank.png,blank.png,blank.png,blank.png,blank.png,blank.png,blank.png,blank.png,blank.png,blank.png,,,,,,,,,,,,,,,,,,,,,,,,,,,,,"[""chocolate_truffle.png""]","[""cherry.png""]",PB16.png,,,,,,,,,,,0,6,"[""cherry.png""]","[""cherry.png""]","[""cherry.png""]","[""cherry.png""]","[""cherry.png""]","[""cherry.png""]",blank.png,PB18.png,PB18.png,"[""cherry.png""]","[""cherry.png""]","[""cherry.png""]","[""cherry.png""]","[""cherry.png""]",blank.png,"[""cherry.png""]","[""cherry.png""]","[""cherry.png""]","[""cherry.png""]","[""cherry.png""]","[""cherry.png""]",1,"[""chocolate_truffle.png""]",blank.png,blank.png,blank.png,5,"[""cherry.png""]","[""cherry.png""]","[""cherry.png""]","[""cherry.png""]","[""cherry.png""]",blank.png,PB16.png,,,,,,,,,,,1,,,,,,,,,,,,,816.63400000002,,timeout,,,,,,,,,,,,,3,,,,,,,,,,,,,,,,,,,,,,,,,,,,,,,,,,,,,,,,,,,,,,,,,,,,,,,,,"[""cherry.png""]","[""chocolate_truffle.png""]",,,,4,,,false,,1,,,,,,,390519.85999999306,390517.406,389684.106,390029.0099999984,390034.092,390850.726,,,,
choice,canvas.Screen,2_4_2_6_1_0_1_0_0_1_2,2021-05-24T16:14:36.353Z,,,blank.png,"[""chocolate_truffle.png""]",blank.png,blank.png,blank.png,blank.png,blank.png,blank.png,blank.png,blank.png,blank.png,blank.png,blank.png,,,,,,,,,,,,,,,,,,,,,,,,,,,,,"[""chocolate_truffle.png""]","[""cherry.png""]",PB16.png,,,,,,,,,,,0,6,"[""cherry.png""]","[""cherry.png""]","[""cherry.png""]","[""cherry.png""]","[""cherry.png""]","[""cherry.png""]",blank.png,PB18.png,PB18.png,"[""cherry.png""]","[""cherry.png""]","[""cherry.png""]","[""cherry.png""]","[""cherry.png""]",blank.png,"[""cherry.png""]","[""cherry.png""]","[""cherry.png""]","[""cherry.png""]","[""cherry.png""]","[""cherry.png""]",1,"[""chocolate_truffle.png""]",blank.png,blank.png,blank.png,5,"[""cherry.png""]","[""cherry.png""]","[""cherry.png""]","[""cherry.png""]","[""cherry.png""]",blank.png,PB16.png,,,,,,,,,,,1,,,,,,,,,,,,,1349.2689999953727,,response,,,,,,,,,,,,,3,,,,,,,,,,,,,,,,,,,,,,,,,,,,,,,,,,,,,,,,,,,,,,,,,,,,,,,,,"[""cherry.png""]","[""chocolate_truffle.png""]",,,,4,right,keydown(ArrowRight),false,,1,,,,,,,392209.1949999958,392199.9949999954,390517.406,390862.3699999953,390850.726,392567.324,,9,,
square,canvas.Screen,2_4_2_6_1_0_1_0_0_1_3,2021-05-24T16:14:37.697Z,,,blank.png,"[""chocolate_truffle.png""]",blank.png,blank.png,blank.png,blank.png,blank.png,blank.png,blank.png,blank.png,blank.png,blank.png,blank.png,,,,,,,,,,,,,,,,,,,,,,,,,,,,,"[""chocolate_truffle.png""]","[""cherry.png""]",PB16.png,,,,,,,,,,,0,6,"[""cherry.png""]","[""cherry.png""]","[""cherry.png""]","[""cherry.png""]","[""cherry.png""]","[""cherry.png""]",blank.png,PB18.png,PB18.png,"[""cherry.png""]","[""cherry.png""]","[""cherry.png""]","[""cherry.png""]","[""cherry.png""]",blank.png,"[""cherry.png""]","[""cherry.png""]","[""cherry.png""]","[""cherry.png""]","[""cherry.png""]","[""cherry.png""]",1,"[""chocolate_truffle.png""]",blank.png,blank.png,blank.png,5,"[""cherry.png""]","[""cherry.png""]","[""cherry.png""]","[""cherry.png""]","[""cherry.png""]",blank.png,PB16.png,,,,,,,,,,,1,,,#808080,#33ff3f,,,,,,,,,999.9599999999627,,timeout,,,,,,,,,,,,,3,,,,,,,,,,,,,,,,,,,,,,,,,,,,,,,,,,,,,,,,,,,,,,,,,,,,,,,,,"[""cherry.png""]","[""chocolate_truffle.png""]",,,,4,,,false,,1,,,,,white,black,393553.2449999955,393550.618,392550.658,392541.89499999484,392567.324,393567.284,,,,
ITI_late,canvas.Screen,2_4_2_6_1_0_1_0_0_1_4,2021-05-24T16:14:38.946Z,,,blank.png,"[""chocolate_truffle.png""]",blank.png,blank.png,blank.png,blank.png,blank.png,blank.png,blank.png,blank.png,blank.png,blank.png,blank.png,,,,,,,,,,,,,,,,,,,,,,,,,,,,,"[""chocolate_truffle.png""]","[""cherry.png""]",PB16.png,,,,,,,,,,,0,6,"[""cherry.png""]","[""cherry.png""]","[""cherry.png""]","[""cherry.png""]","[""cherry.png""]","[""cherry.png""]",blank.png,PB18.png,PB18.png,"[""cherry.png""]","[""cherry.png""]","[""cherry.png""]","[""cherry.png""]","[""cherry.png""]",blank.png,"[""cherry.png""]","[""cherry.png""]","[""cherry.png""]","[""cherry.png""]","[""cherry.png""]","[""cherry.png""]",1,"[""chocolate_truffle.png""]",blank.png,blank.png,blank.png,5,"[""cherry.png""]","[""cherry.png""]","[""cherry.png""]","[""cherry.png""]","[""cherry.png""]",blank.png,PB16.png,,,,,,,,,,,1,,,,,,,,,,,,,1249.9500000000116,,timeout,,,,,,,,,,,,white,3,,,,,,,,,,,,,,,,,,,,,,,,,,,,,,,,,,,,,,,,,,,,,,,,,,,,,,,,,"[""cherry.png""]","[""chocolate_truffle.png""]",,,,4,,,false,,1,,,,,,,394803.11499999516,394800.568,393550.618,393557.13999999716,393567.284,394817.234,,,,
choice_sequence,flow.Sequence,2_4_2_6_1_0_1_0_0_1,2021-05-24T16:14:38.947Z,,,blank.png,"[""chocolate_truffle.png""]",blank.png,blank.png,blank.png,blank.png,blank.png,blank.png,blank.png,blank.png,blank.png,blank.png,blank.png,,,,,,,,,,,,,,,,,,,,,,,,,,,,,"[""chocolate_truffle.png""]","[""cherry.png""]",PB16.png,,,,,,,,,,,0,6,"[""cherry.png""]","[""cherry.png""]","[""cherry.png""]","[""cherry.png""]","[""cherry.png""]","[""cherry.png""]",blank.png,PB18.png,PB18.png,"[""cherry.png""]","[""cherry.png""]","[""cherry.png""]","[""cherry.png""]","[""cherry.png""]",blank.png,"[""cherry.png""]","[""cherry.png""]","[""cherry.png""]","[""cherry.png""]","[""cherry.png""]","[""cherry.png""]",1,"[""chocolate_truffle.png""]",blank.png,blank.png,blank.png,5,"[""cherry.png""]","[""cherry.png""]","[""cherry.png""]","[""cherry.png""]","[""cherry.png""]",blank.png,PB16.png,,,,,,,,,,,1,,,,,,,,,,,,,5849.766000000003,,completion,,,,,,,,,,,,,3,,,,,,,,,,,,,,,,,,,,,,,,,,,,,,,,,,,,,,,,,,,,,,,,,,,,,,,,,"[""cherry.png""]","[""chocolate_truffle.png""]",,,,4,,,false,,1,,,,,,,394804.1199999934,394800.568,388934.136,388944.4549999971,388950.802,394817.234,,,,
fixCross,canvas.Screen,2_4_2_6_1_0_1_0_0_2_0,2021-05-24T16:14:39.347Z,,,blank.png,"[""chocolate_truffle.png""]",blank.png,blank.png,blank.png,blank.png,blank.png,blank.png,blank.png,blank.png,blank.png,blank.png,blank.png,,,,,,,,,,,,,,,,,,,,,,,,,,,,,"[""chocolate_truffle.png""]","[""cherry.png""]",PB15.png,,,,,,,,,,,0,6,"[""cherry.png""]","[""cherry.png""]","[""cherry.png""]","[""cherry.png""]","[""cherry.png""]","[""cherry.png""]",blank.png,PB18.png,PB18.png,"[""cherry.png""]","[""cherry.png""]","[""cherry.png""]","[""cherry.png""]",blank.png,blank.png,"[""cherry.png""]","[""cherry.png""]","[""cherry.png""]","[""cherry.png""]","[""cherry.png""]","[""cherry.png""]",1,"[""chocolate_truffle.png""]",blank.png,blank.png,blank.png,4,"[""cherry.png""]","[""cherry.png""]","[""cherry.png""]","[""cherry.png""]",blank.png,blank.png,PB15.png,,,,,,,,,,,1,,,,,,,,,,,,,716.6379999999772,,timeout,,,,,,,,,,,,,3,,,,,,,,,,,,,,,,,,,,,,,,,,,,,,,,,,,,,,,,,,,,,,,,,,,,,,,,,"[""cherry.png""]","[""chocolate_truffle.png""]",,,,4,,,false,,1,,,,,,,395203.24499999697,395200.552,394800.568,394811.9349999979,394817.234,395533.872,10,,,
timeout,canvas.Screen,2_4_2_6_1_0_1_0_0_2_1,2021-05-24T16:14:40.162Z,,,blank.png,"[""chocolate_truffle.png""]",blank.png,blank.png,blank.png,blank.png,blank.png,blank.png,blank.png,blank.png,blank.png,blank.png,blank.png,,,,,,,,,,,,,,,,,,,,,,,,,,,,,"[""chocolate_truffle.png""]","[""cherry.png""]",PB15.png,,,,,,,,,,,0,6,"[""cherry.png""]","[""cherry.png""]","[""cherry.png""]","[""cherry.png""]","[""cherry.png""]","[""cherry.png""]",blank.png,PB18.png,PB18.png,"[""cherry.png""]","[""cherry.png""]","[""cherry.png""]","[""cherry.png""]",blank.png,blank.png,"[""cherry.png""]","[""cherry.png""]","[""cherry.png""]","[""cherry.png""]","[""cherry.png""]","[""cherry.png""]",1,"[""chocolate_truffle.png""]",blank.png,blank.png,blank.png,4,"[""cherry.png""]","[""cherry.png""]","[""cherry.png""]","[""cherry.png""]",blank.png,blank.png,PB15.png,,,,,,,,,,,1,,,,,,,,,,,,,848.7170000000042,,timeout,,,,,,,,,,,,,3,,,,,,,,,,,,,,,,,,,,,,,,,,,,,,,,,,,,,,,,,,,,,,,,,,,,,,,,,"[""cherry.png""]","[""chocolate_truffle.png""]",,,,4,,,false,,1,,,,,,,396019.02499999414,396015.937,395200.552,395530.0599999973,395533.872,396382.589,,,,
