sender,sender_type,sender_id,timestamp,meta,,Blank,DownLeft1,DownLeft2,DownLeft3,DownLeft4,DownLeft5,DownLeft6,DownRight1,DownRight2,DownRight3,DownRight4,DownRight5,DownRight6,FoodHabits_Fru_item1,FoodHabits_Fru_item2,FoodHabits_Fru_item3,FoodHabits_Fru_item4,FoodHabits_Fru_item5,FoodHabits_Fru_item6,FoodHabits_Fru_item7,FoodHabits_Meat_item1,FoodHabits_Meat_item2,FoodHabits_Meat_item3,FoodHabits_Meat_item4,FoodHabits_Meat_item5,FoodHabits_Meat_item6,FoodHabits_Meat_item7,FoodHabits_Swe_item1,FoodHabits_Swe_item2,FoodHabits_Swe_item3,FoodHabits_Swe_item4,FoodHabits_Swe_item5,FoodHabits_Swe_item6,FoodHabits_Swe_item7,FoodHabits_Veg_item1,FoodHabits_Veg_item2,FoodHabits_Veg_item3,FoodHabits_Veg_item4,FoodHabits_Veg_item5,FoodHabits_Veg_item6,FoodHabits_Veg_item7,ImgA,ImgB,LeftBar,PSS_item01,PSS_item02,PSS_item03,PSS_item04,PSS_item05,PSS_item06,PSS_item07,PSS_item08,PSS_item09,PSS_item10,RefA,RefB,RefB1,RefB2,RefB3,RefB4,RefB5,RefB6,RefB7,Ref_PB,RightBar,UpLeft1,UpLeft2,UpLeft3,UpLeft4,UpLeft5,UpLeft6,UpRight1,UpRight2,UpRight3,UpRight4,UpRight5,UpRight6,VarA,VarA1,VarA2,VarA3,VarA4,VarB,VarB1,VarB2,VarB3,VarB4,VarB5,VarB6,Var_PB,attCheck_fileA,attCheck_fileB,attCheck_fileC,attCheck_fileD,attCheck_options,attCheck_valueA,attCheck_valueB,attCheck_valueC,attCheck_valueD,attention_check,block,break1,browser_name,choseL,choseR,consent_form1,consent_form2,consentconfirmation_form1,consentconfirmation_form2,correct,correctResponse,diet,disorder,duration,edu,ended_on,enjoy,full_version,gender,group,hunger,img,imgTask,input_age,input_meal,input_occ,input_remark,lateRespFeed,list,major_version,message,mixQ_item1,mixQ_item2,mixQ_item3,mixQ_item4,mixQ_item5,name,navigator_appName,navigator_userAgent,os,pracQ1_IDa,pracQ1_IDb,pracQ1_IDc,pracQ1_IDd,pracQ1_optionA,pracQ1_optionB,pracQ1_optionC,pracQ1_optionD,pracQ1_valueA,pracQ1_valueB,pracQ1_valueC,pracQ1_valueD,pracQ2_IDa,pracQ2_IDb,pracQ2_IDc,pracQ2_optionA,pracQ2_optionB,pracQ2_optionC,pracQ2_valueA,pracQ2_valueB,pracQ2_valueC,pracQ4_IDa,pracQ4_IDb,pracQ4_IDc,pracQ4_IDd,pracQ4_optionA,pracQ4_optionB,pracQ4_optionC,pracQ4_optionD,pracQ4_valueA,pracQ4_valueB,pracQ4_valueC,pracQ4_valueD,pracQ5_IDa,pracQ5_IDb,pracQ5_IDc,pracQ5_IDd,pracQ5_optionA,pracQ5_optionB,pracQ5_optionC,pracQ5_optionD,pracQ5_valueA,pracQ5_valueB,pracQ5_valueC,pracQ5_valueD,prefHealty,prefUnhealthy,prolific_ID,psessionID,pstudyID,rep,response,response_action,skip,snack,sublock,subtitle,task_difficulty,task_engagement,task_focus,textL,textR,time_commit,time_end,time_render,time_run,time_show,time_switch,trial_count,trial_countO,url,valence
Title,html.Page,0,2021-05-24T16:00:35.752Z,"{""labjs_version"":""20.2.2"",""labjs_build"":{""flavor"":""production"",""commit"":""a25486e0c714a0ae2ce03ff94b7bb6896854dcfa""},""location"":""https://run.pavlovia.org/E3lab/rebund/html/?PROLIFIC_PID=5efbbdba8587d815dd749e55&STUDY_ID=60008f34cd719d13b0d706dd&SESSION_ID=60abcdb49dccd1141043c0d6"",""userAgent"":""Mozilla/5.0 (Windows NT 10.0; Win64; x64) AppleWebKit/537.36 (KHTML, like Gecko) Chrome/89.0.4389.82 Safari/537.36"",""platform"":""Win32"",""language"":""en-US"",""locale"":""en-US"",""timeZone"":""America/Cancun"",""timezoneOffset"":300,""screen_width"":1366,""screen_height"":768,""scroll_width"":1350,""scroll_height"":560,""window_innerWidth"":1350,""window_innerHeight"":608,""devicePixelRatio"":1}",,,,,,,,,,,,,,,,,,,,,,,,,,,,,,,,,,,,,,,,,,,,,,,,,,,,,,,,,,,,,,,,,,,,,,,,,,,,,,,,,,,,,,,,,,,,,,,,,,,,,,,,,,,,,,,,,,,20081.65300053048,,form submission,,,,,,,,,,,,,,,,,,,,,,,,,,,,,,,,,,,,,,,,,,,,,,,,,,,,,,,,,,,,,,,,,,,,,,,,,,,,,,,,,,,,,,,24543.774999678135,24542.72500053048,4394.418,4447.579998522997,4461.072,24573.662,,,"{""PROLIFIC_PID"":""5efbbdba8587d815dd749e55"",""STUDY_ID"":""60008f34cd719d13b0d706dd"",""SESSION_ID"":""60abcdb49dccd1141043c0d6""}",
get_systemInfo,canvas.Screen,1,2021-05-24T16:00:35.787Z,,,,,,,,,,,,,,,,,,,,,,,,,,,,,,,,,,,,,,,,,,,,,,,,,,,,,,,,,,,,,,,,,,,,,,,,,,,,,,,,,,,,,,,,,,,,,,,,,,,,,,,,,Chrome,,,,,,,,,,,6215.4259999999995,,timeout,,89.0.4389.82,,,,,,,,,,,,89,,,,,,,,Netscape,"Mozilla/5.0 (Windows NT 10.0; Win64; x64) AppleWebKit/537.36 (KHTML, like Gecko) Chrome/89.0.4389.82 Safari/537.36",Windows,,,,,,,,,,,,,,,,,,,,,,,,,,,,,,,,,,,,,,,,,,,,,,,,5efbbdba8587d815dd749e55,,60008f34cd719d13b0d706dd,,,,,,,,,,,,,24579.599998891354,24578.419998288155,24523.695,24547.3700016737,24573.662,30789.088,,,,
ConsentForm,html.Form,2_0,2021-05-24T16:02:18.015Z,,,,,,,,,,,,,,,,,,,,,,,,,,,,,,,,,,,,,,,,,,,,,,,,,,,,,,,,,,,,,,,,,,,,,,,,,,,,,,,,,,,,,,,,,,,,,,,,,,,,,,,,,,,,true,true,,,,,,,96016.81699937534,,form submission,,,,,,,,,,,,,,,,,,,,,,,,,,,,,,,,,,,,,,,,,,,,,,,,,,,,,,,,,,,,,,,,,,,,,,,,,,,,,,,,,,,,,,,126806.43000081182,126805.90499937534,24578.419998288155,30804.51000109315,30789.088,126819.755,,,,
PepTalk,html.Page,2_1,2021-05-24T16:02:29.948Z,,,,,,,,,,,,,,,,,,,,,,,,,,,,,,,,,,,,,,,,,,,,,,,,,,,,,,,,,,,,,,,,,,,,,,,,,,,,,,,,,,,,,,,,,,,,,,,,,,,,,,,,,,,,,,,,,,,,11919.959998751874,,form submission,,,,,,,,,,,,,,,,,,,,,,,,,,,,,,,,,,,,,,,,,,,,,,,,,,,,,,,,,,,,,,,,,,,,,,,,,,,,,,,,,,,,,,,138740.2499988675,138739.71499875188,126803.026,126806.7650012672,126819.755,138767.208,,,,
Demographics,html.Form,2_2,2021-05-24T16:02:57.338Z,,,,,,,,,,,,,,,,,,,,,,,,,,,,,,,,,,,,,,,,,,,,,,,,,,,,,,,,,,,,,,,,,,,,,,,,,,,,,,,,,,,,,,,,,,,,,,,,,,,,,,,,,,,,,,,,,,,,27362.357000534044,3,form submission,,,1,,,,,36,,Finance Manager,,,,,,,,,,,,,,,,,,,,,,,,,,,,,,,,,,,,,,,,,,,,,,,,,,,,,,,,,,,,,,,,,,,,,,,,,,,,,166130.16000017524,166129.56500053406,138750.566,138740.55499956012,138767.208,166128.388,,,,
InclusionCrit,html.Form,2_3,2021-05-24T16:03:14.259Z,,,,,,,,,,,,,,,,,,,,,,,,,,,,,,,,,,,,,,,,,,,,,,,,,,,,,,,,,,,,,,,,,,,,,,,,,,,,,,,,,,,,,,,,,,,,,,,,,,,,,,,,,,,,,,,,,,1,1,16921.651999186986,,form submission,1,,,,,,,,,,,,,,,,,,,,,,,,,,,,,,,,,,,,,,,,,,,,,,,,,,,,,,,,,,,,,,,,,,,,,,,,,,,,,,,,,,,,,,183050.68499967456,183050.039999187,166111.718,166130.4499991238,166128.388,183058.292,,,,
Selection,html.Page,2_4_0,2021-05-24T16:03:51.012Z,,,,,,,,,,,,,,,,,,,,,,,,,,,,,,,,,,,,,,,,,,,,,,,,,,,,,,,,,,,,,,,,,,,,,,,,,,,,,,,,,,,,,,,,,,,,,,,,,,,,,,,,,,,,,,,,,,,,36744.67300027181,,form submission,,,,,,,,,,,,,,,,,,,,,,,,,,,,,,,,,,,,,,,,,,,,,,,,,,,,,,,,,,,,,,,,,,,,,,,,,,,,,,,0,,,,,,,,219803.80000174046,219802.9650002718,183041.623,183051.07999965549,183058.292,219817.483,,,,
Load,html.Page,2_4_1,2021-05-24T16:03:51.027Z,,,,,,,,,,,,,,,,,,,,,,,,,,,,,,,,,,,,,,,,,,,,,,,,,,,,,,,,,,,,,,,,,,,,,,,,,,,,,,,,,,,,,,,,,,,,,,,,,,,,,,,,,,,,,,,,,,,,22495.478999999992,,timeout,,,,,,,,,,,,,,,,,,,,,,,,,,,,,,,,,,,,,,,,,,,,,,,,,,,,,,,,,,,,,,,,,,,,,,,,,,,,,,,,,,,,,,,219819.3450011313,219817.80000030994,219800.861,219804.03500050306,219817.483,242312.962,,,,
ratings_instructions,html.Screen,2_4_2_0,2021-05-24T16:04:33.037Z,,,,,,,,,,,,,,,,,,,,,,,,,,,,,,,,,,,,,,,,,,,,,,,,,,,,,,,,,,,,,,,,,,,,,,,,,,,,,,,,,,,,,,,,,,,,,,,,,,,,,,,,,,,,,,,,,,,,19512.223000896454,,response,,,,,,,,,,,,,,,,,,,,,,,,,,,,,,,,,,,,,,,,,,,,,,,,,,,,,,,,,,,,,,,,,,,,,,,,,,,,continue,keypress(Space),false,,,,,,,,,261828.69999855757,261825.18500089645,219817.80000030994,242349.41000118852,242312.962,261843.019,0,0,,
fixCross,canvas.Screen,2_4_2_1_0_0,2021-05-24T16:04:33.535Z,,,,,,,,,,,,,,,,,,,,,,,,,,,,,,,,,,,,,,,,,,,,,,,,,,,,,,,,,,,,,,,,,,,,,,,,,,,,,,,,,,,,,,,,,,,,,,,,,,,,,,,,,,,,,,,,,,,,499.22300000002724,,timeout,,,,healthy,,pear.png,,,,,,,,,,,,,,,pear,,,,,,,,,,,,,,,,,,,,,,,,,,,,,,,,,,,,,,,,,,,,,,,,,,,,,,,,,false,,,,,,,,,262326.88499987125,262325.581,261809.112,261829.2599990964,261843.019,262342.242,,,,
Rating,html.Form,2_4_2_1_0_1,2021-05-24T16:04:41.821Z,,,,,,,,,,,,,,,,,,,,,,,,,,,,,,,,,,,,,,,,,,,,,,,,,,,,,,,,,,,,,,,,,,,,,,,,,,,,,,,,,,,,,,,,,,,,,,,,,,,,,,,,,,,,,,,,,,,,8270.538001014444,,form submission,,,,healthy,,pear.png,,,,,,,,,,,,,,,pear,,,,,,,,,,,,,,,,,,,,,,,,,,,,,,,,,,,,,,,,,,,,,,,,,,,,,,,,,false,,,,,,,,,270612.99499869347,270612.7800010145,262325.581,262327.1099999547,262342.242,270623.889,,,,97
rating_sequence,flow.Sequence,2_4_2_1_0,2021-05-24T16:04:41.821Z,,,,,,,,,,,,,,,,,,,,,,,,,,,,,,,,,,,,,,,,,,,,,,,,,,,,,,,,,,,,,,,,,,,,,,,,,,,,,,,,,,,,,,,,,,,,,,,,,,,,,,,,,,,,,,,,,,,,8769.76100101447,,completion,,,,healthy,,pear.png,,,,,,,,,,,,,,,pear,,,,,,,,,,,,,,,,,,,,,,,,,,,,,,,,,,,,,,,,,,,,,,,,,,,,,,,,,false,,,,,,,,,270613.23000118136,270612.7800010145,261809.112,261829.17999848723,261843.019,270623.889,,,,
fixCross,canvas.Screen,2_4_2_1_1_0,2021-05-24T16:04:42.317Z,,,,,,,,,,,,,,,,,,,,,,,,,,,,,,,,,,,,,,,,,,,,,,,,,,,,,,,,,,,,,,,,,,,,,,,,,,,,,,,,,,,,,,,,,,,,,,,,,,,,,,,,,,,,,,,,,,,,499.99299999995856,,timeout,,,,healthy,,orange.png,,,,,,,,,,,,,,,orange,,,,,,,,,,,,,,,,,,,,,,,,,,,,,,,,,,,,,,,,,,,,,,,,,,,,,,,,,false,,,,,,,,,271108.4799990058,271107.317,270607.292,270613.3349984884,270623.889,271123.882,,,,
Rating,html.Form,2_4_2_1_1_1,2021-05-24T16:04:50.953Z,,,,,,,,,,,,,,,,,,,,,,,,,,,,,,,,,,,,,,,,,,,,,,,,,,,,,,,,,,,,,,,,,,,,,,,,,,,,,,,,,,,,,,,,,,,,,,,,,,,,,,,,,,,,,,,,,,,,8620.753000824945,,form submission,,,,healthy,,orange.png,,,,,,,,,,,,,,,orange,,,,,,,,,,,,,,,,,,,,,,,,,,,,,,,,,,,,,,,,,,,,,,,,,,,,,,,,,false,,,,,,,,,279744.91500109434,279744.6350008249,271107.317,271108.789999038,271123.882,279755.381,,,,98
rating_sequence,flow.Sequence,2_4_2_1_1,2021-05-24T16:04:50.953Z,,,,,,,,,,,,,,,,,,,,,,,,,,,,,,,,,,,,,,,,,,,,,,,,,,,,,,,,,,,,,,,,,,,,,,,,,,,,,,,,,,,,,,,,,,,,,,,,,,,,,,,,,,,,,,,,,,,,9120.746000824904,,completion,,,,healthy,,orange.png,,,,,,,,,,,,,,,orange,,,,,,,,,,,,,,,,,,,,,,,,,,,,,,,,,,,,,,,,,,,,,,,,,,,,,,,,,false,,,,,,,,,279745.1899982989,279744.6350008249,270607.292,270613.30499872565,270623.889,279755.381,,,,
fixCross,canvas.Screen,2_4_2_1_2_0,2021-05-24T16:04:51.447Z,,,,,,,,,,,,,,,,,,,,,,,,,,,,,,,,,,,,,,,,,,,,,,,,,,,,,,,,,,,,,,,,,,,,,,,,,,,,,,,,,,,,,,,,,,,,,,,,,,,,,,,,,,,,,,,,,,,,499.96000000002095,,timeout,,,,healthy,,strawberry.png,,,,,,,,,,,,,,,strawberry,,,,,,,,,,,,,,,,,,,,,,,,,,,,,,,,,,,,,,,,,,,,,,,,,,,,,,,,,false,,,,,,,,,280239.22500014305,280238.698,279738.764,279745.3749999404,279755.381,280255.341,,,,
Rating,html.Form,2_4_2_1_2_1,2021-05-24T16:04:54.847Z,,,,,,,,,,,,,,,,,,,,,,,,,,,,,,,,,,,,,,,,,,,,,,,,,,,,,,,,,,,,,,,,,,,,,,,,,,,,,,,,,,,,,,,,,,,,,,,,,,,,,,,,,,,,,,,,,,,,3383.5790016856045,,form submission,,,,healthy,,strawberry.png,,,,,,,,,,,,,,,strawberry,,,,,,,,,,,,,,,,,,,,,,,,,,,,,,,,,,,,,,,,,,,,,,,,,,,,,,,,,false,,,,,,,,,283639.19999822974,283638.9200016856,280238.698,280239.335000515,280255.341,283654.575,,,,100
rating_sequence,flow.Sequence,2_4_2_1_2,2021-05-24T16:04:54.847Z,,,,,,,,,,,,,,,,,,,,,,,,,,,,,,,,,,,,,,,,,,,,,,,,,,,,,,,,,,,,,,,,,,,,,,,,,,,,,,,,,,,,,,,,,,,,,,,,,,,,,,,,,,,,,,,,,,,,3883.5390016856254,,completion,,,,healthy,,strawberry.png,,,,,,,,,,,,,,,strawberry,,,,,,,,,,,,,,,,,,,,,,,,,,,,,,,,,,,,,,,,,,,,,,,,,,,,,,,,,false,,,,,,,,,283639.4400000572,283638.9200016856,279738.764,279745.31500041485,279755.381,283654.575,,,,
fixCross,canvas.Screen,2_4_2_1_3_0,2021-05-24T16:04:55.346Z,,,,,,,,,,,,,,,,,,,,,,,,,,,,,,,,,,,,,,,,,,,,,,,,,,,,,,,,,,,,,,,,,,,,,,,,,,,,,,,,,,,,,,,,,,,,,,,,,,,,,,,,,,,,,,,,,,,,499.9099999999744,,timeout,,,,unhealthy,,m&m.png,,,,,,,,,,,,,,,m&m,,,,,,,,,,,,,,,,,,,,,,,,,,,,,,,,,,,,,,,,,,,,,,,,,,,,,,,,,false,,,,,,,,,284138.5300010443,284137.817,283637.986,283639.5800001919,283654.575,284154.485,,,,
Rating,html.Form,2_4_2_1_3_1,2021-05-24T16:05:00.669Z,,,,,,,,,,,,,,,,,,,,,,,,,,,,,,,,,,,,,,,,,,,,,,,,,,,,,,,,,,,,,,,,,,,,,,,,,,,,,,,,,,,,,,,,,,,,,,,,,,,,,,,,,,,,,,,,,,,,5306.07500143291,,form submission,,,,unhealthy,,m&m.png,,,,,,,,,,,,,,,m&m,,,,,,,,,,,,,,,,,,,,,,,,,,,,,,,,,,,,,,,,,,,,,,,,,,,,,,,,,false,,,,,,,,,289460.7499986887,289460.5600014329,284137.817,284138.7149989605,284154.485,289470.083,,,,54
rating_sequence,flow.Sequence,2_4_2_1_3,2021-05-24T16:05:00.669Z,,,,,,,,,,,,,,,,,,,,,,,,,,,,,,,,,,,,,,,,,,,,,,,,,,,,,,,,,,,,,,,,,,,,,,,,,,,,,,,,,,,,,,,,,,,,,,,,,,,,,,,,,,,,,,,,,,,,5805.985001432884,,completion,,,,unhealthy,,m&m.png,,,,,,,,,,,,,,,m&m,,,,,,,,,,,,,,,,,,,,,,,,,,,,,,,,,,,,,,,,,,,,,,,,,,,,,,,,,false,,,,,,,,,289460.92500165105,289460.5600014329,283637.986,283639.5450010896,283654.575,289470.083,,,,
fixCross,canvas.Screen,2_4_2_1_4_0,2021-05-24T16:05:01.162Z,,,,,,,,,,,,,,,,,,,,,,,,,,,,,,,,,,,,,,,,,,,,,,,,,,,,,,,,,,,,,,,,,,,,,,,,,,,,,,,,,,,,,,,,,,,,,,,,,,,,,,,,,,,,,,,,,,,,499.90400000003865,,timeout,,,,unhealthy,,candy.png,,,,,,,,,,,,,,,candy,,,,,,,,,,,,,,,,,,,,,,,,,,,,,,,,,,,,,,,,,,,,,,,,,,,,,,,,,false,,,,,,,,,289953.765001148,289953.306,289453.456,289461.0299989581,289470.083,289969.987,,,,
Rating,html.Form,2_4_2_1_4_1,2021-05-24T16:05:05.128Z,,,,,,,,,,,,,,,,,,,,,,,,,,,,,,,,,,,,,,,,,,,,,,,,,,,,,,,,,,,,,,,,,,,,,,,,,,,,,,,,,,,,,,,,,,,,,,,,,,,,,,,,,,,,,,,,,,,,3949.927998114086,,form submission,,,,unhealthy,,candy.png,,,,,,,,,,,,,,,candy,,,,,,,,,,,,,,,,,,,,,,,,,,,,,,,,,,,,,,,,,,,,,,,,,,,,,,,,,false,,,,,,,,,293920.2199988067,293919.9149981141,289953.306,289953.89499887824,289969.987,293935.824,,,,24
rating_sequence,flow.Sequence,2_4_2_1_4,2021-05-24T16:05:05.128Z,,,,,,,,,,,,,,,,,,,,,,,,,,,,,,,,,,,,,,,,,,,,,,,,,,,,,,,,,,,,,,,,,,,,,,,,,,,,,,,,,,,,,,,,,,,,,,,,,,,,,,,,,,,,,,,,,,,,4449.831998114125,,completion,,,,unhealthy,,candy.png,,,,,,,,,,,,,,,candy,,,,,,,,,,,,,,,,,,,,,,,,,,,,,,,,,,,,,,,,,,,,,,,,,,,,,,,,,false,,,,,,,,,293920.46999931335,293919.9149981141,289453.456,289460.99499985576,289470.083,293935.824,,,,
fixCross,canvas.Screen,2_4_2_1_5_0,2021-05-24T16:05:05.628Z,,,,,,,,,,,,,,,,,,,,,,,,,,,,,,,,,,,,,,,,,,,,,,,,,,,,,,,,,,,,,,,,,,,,,,,,,,,,,,,,,,,,,,,,,,,,,,,,,,,,,,,,,,,,,,,,,,,,499.95100000000093,,timeout,,,,healthy,,grape.png,,,,,,,,,,,,,,,grape,,,,,,,,,,,,,,,,,,,,,,,,,,,,,,,,,,,,,,,,,,,,,,,,,,,,,,,,,false,,,,,,,,,294419.7500012815,294419.082,293919.23,293920.71000114083,293935.824,294435.775,,,,
Rating,html.Form,2_4_2_1_5_1,2021-05-24T16:05:10.667Z,,,,,,,,,,,,,,,,,,,,,,,,,,,,,,,,,,,,,,,,,,,,,,,,,,,,,,,,,,,,,,,,,,,,,,,,,,,,,,,,,,,,,,,,,,,,,,,,,,,,,,,,,,,,,,,,,,,,5023.290001457906,,form submission,,,,healthy,,grape.png,,,,,,,,,,,,,,,grape,,,,,,,,,,,,,,,,,,,,,,,,,,,,,,,,,,,,,,,,,,,,,,,,,,,,,,,,,false,,,,,,,,,299459.3299999833,299459.06500145793,294419.082,294419.9800007045,294435.775,299468.04,,,,59
rating_sequence,flow.Sequence,2_4_2_1_5,2021-05-24T16:05:10.667Z,,,,,,,,,,,,,,,,,,,,,,,,,,,,,,,,,,,,,,,,,,,,,,,,,,,,,,,,,,,,,,,,,,,,,,,,,,,,,,,,,,,,,,,,,,,,,,,,,,,,,,,,,,,,,,,,,,,,5523.241001457907,,completion,,,,healthy,,grape.png,,,,,,,,,,,,,,,grape,,,,,,,,,,,,,,,,,,,,,,,,,,,,,,,,,,,,,,,,,,,,,,,,,,,,,,,,,false,,,,,,,,,299459.60000157356,299459.06500145793,293919.23,293920.6250011921,293935.824,299468.04,,,,
fixCross,canvas.Screen,2_4_2_1_6_0,2021-05-24T16:05:11.160Z,,,,,,,,,,,,,,,,,,,,,,,,,,,,,,,,,,,,,,,,,,,,,,,,,,,,,,,,,,,,,,,,,,,,,,,,,,,,,,,,,,,,,,,,,,,,,,,,,,,,,,,,,,,,,,,,,,,,499.91500000003725,,timeout,,,,unhealthy,,marshmallow.png,,,,,,,,,,,,,,,marshmallow,,,,,,,,,,,,,,,,,,,,,,,,,,,,,,,,,,,,,,,,,,,,,,,,,,,,,,,,,false,,,,,,,,,299951.7600014806,299951.282,299451.457,299459.79499816895,299468.04,299967.955,,,,
Rating,html.Form,2_4_2_1_6_1,2021-05-24T16:05:14.561Z,,,,,,,,,,,,,,,,,,,,,,,,,,,,,,,,,,,,,,,,,,,,,,,,,,,,,,,,,,,,,,,,,,,,,,,,,,,,,,,,,,,,,,,,,,,,,,,,,,,,,,,,,,,,,,,,,,,,3385.334999067767,,form submission,,,,unhealthy,,marshmallow.png,,,,,,,,,,,,,,,marshmallow,,,,,,,,,,,,,,,,,,,,,,,,,,,,,,,,,,,,,,,,,,,,,,,,,,,,,,,,,false,,,,,,,,,303353.48999872804,303353.2899990678,299951.282,299951.90500095487,299967.955,303367.302,,,,27
rating_sequence,flow.Sequence,2_4_2_1_6,2021-05-24T16:05:14.562Z,,,,,,,,,,,,,,,,,,,,,,,,,,,,,,,,,,,,,,,,,,,,,,,,,,,,,,,,,,,,,,,,,,,,,,,,,,,,,,,,,,,,,,,,,,,,,,,,,,,,,,,,,,,,,,,,,,,,3885.2499990678043,,completion,,,,unhealthy,,marshmallow.png,,,,,,,,,,,,,,,marshmallow,,,,,,,,,,,,,,,,,,,,,,,,,,,,,,,,,,,,,,,,,,,,,,,,,,,,,,,,,false,,,,,,,,,303353.6599986255,303353.2899990678,299451.457,299459.74000170827,299468.04,303367.302,,,,
fixCross,canvas.Screen,2_4_2_1_7_0,2021-05-24T16:05:15.059Z,,,,,,,,,,,,,,,,,,,,,,,,,,,,,,,,,,,,,,,,,,,,,,,,,,,,,,,,,,,,,,,,,,,,,,,,,,,,,,,,,,,,,,,,,,,,,,,,,,,,,,,,,,,,,,,,,,,,499.84499999997206,,timeout,,,,unhealthy,,gummybear.png,,,,,,,,,,,,,,,gummybear,,,,,,,,,,,,,,,,,,,,,,,,,,,,,,,,,,,,,,,,,,,,,,,,,,,,,,,,,false,,,,,,,,,303851.0150015354,303850.466,303350.704,303353.76499965787,303367.302,303867.147,,,,
Rating,html.Form,2_4_2_1_7_1,2021-05-24T16:05:18.385Z,,,,,,,,,,,,,,,,,,,,,,,,,,,,,,,,,,,,,,,,,,,,,,,,,,,,,,,,,,,,,,,,,,,,,,,,,,,,,,,,,,,,,,,,,,,,,,,,,,,,,,,,,,,,,,,,,,,,3310.1779991238145,,form submission,,,,unhealthy,,gummybear.png,,,,,,,,,,,,,,,gummybear,,,,,,,,,,,,,,,,,,,,,,,,,,,,,,,,,,,,,,,,,,,,,,,,,,,,,,,,,false,,,,,,,,,307177.5350011885,307177.3249991238,303850.466,303851.1600010097,303867.147,307183.125,,,,23
rating_sequence,flow.Sequence,2_4_2_1_7,2021-05-24T16:05:18.386Z,,,,,,,,,,,,,,,,,,,,,,,,,,,,,,,,,,,,,,,,,,,,,,,,,,,,,,,,,,,,,,,,,,,,,,,,,,,,,,,,,,,,,,,,,,,,,,,,,,,,,,,,,,,,,,,,,,,,3810.0229991237866,,completion,,,,unhealthy,,gummybear.png,,,,,,,,,,,,,,,gummybear,,,,,,,,,,,,,,,,,,,,,,,,,,,,,,,,,,,,,,,,,,,,,,,,,,,,,,,,,false,,,,,,,,,307177.7300015092,307177.3249991238,303350.704,303353.7349998951,303367.302,307183.125,,,,
fixCross,canvas.Screen,2_4_2_1_8_0,2021-05-24T16:05:18.875Z,,,,,,,,,,,,,,,,,,,,,,,,,,,,,,,,,,,,,,,,,,,,,,,,,,,,,,,,,,,,,,,,,,,,,,,,,,,,,,,,,,,,,,,,,,,,,,,,,,,,,,,,,,,,,,,,,,,,499.89000000001397,,timeout,,,,healthy,,coconut.png,,,,,,,,,,,,,,,coconut,,,,,,,,,,,,,,,,,,,,,,,,,,,,,,,,,,,,,,,,,,,,,,,,,,,,,,,,,false,,,,,,,,,307666.9249981642,307666.366,307166.501,307177.85499989986,307183.125,307683.015,,,,
Rating,html.Form,2_4_2_1_8_1,2021-05-24T16:05:22.542Z,,,,,,,,,,,,,,,,,,,,,,,,,,,,,,,,,,,,,,,,,,,,,,,,,,,,,,,,,,,,,,,,,,,,,,,,,,,,,,,,,,,,,,,,,,,,,,,,,,,,,,,,,,,,,,,,,,,,3650.424998328672,,form submission,,,,healthy,,coconut.png,,,,,,,,,,,,,,,coconut,,,,,,,,,,,,,,,,,,,,,,,,,,,,,,,,,,,,,,,,,,,,,,,,,,,,,,,,,false,,,,,,,,,311333.73000100255,311333.4399983287,307666.366,307667.0849993825,307683.015,311348.965,,,,100
rating_sequence,flow.Sequence,2_4_2_1_8,2021-05-24T16:05:22.542Z,,,,,,,,,,,,,,,,,,,,,,,,,,,,,,,,,,,,,,,,,,,,,,,,,,,,,,,,,,,,,,,,,,,,,,,,,,,,,,,,,,,,,,,,,,,,,,,,,,,,,,,,,,,,,,,,,,,,4150.314998328686,,completion,,,,healthy,,coconut.png,,,,,,,,,,,,,,,coconut,,,,,,,,,,,,,,,,,,,,,,,,,,,,,,,,,,,,,,,,,,,,,,,,,,,,,,,,,false,,,,,,,,,311334.01000127196,311333.4399983287,307166.501,307177.8200007975,307183.125,311348.965,,,,
fixCross,canvas.Screen,2_4_2_1_9_0,2021-05-24T16:05:23.041Z,,,,,,,,,,,,,,,,,,,,,,,,,,,,,,,,,,,,,,,,,,,,,,,,,,,,,,,,,,,,,,,,,,,,,,,,,,,,,,,,,,,,,,,,,,,,,,,,,,,,,,,,,,,,,,,,,,,,499.91300000000047,,timeout,,,,unhealthy,,praline.png,,,,,,,,,,,,,,,praline,,,,,,,,,,,,,,,,,,,,,,,,,,,,,,,,,,,,,,,,,,,,,,,,,,,,,,,,,false,,,,,,,,,311832.7549993992,311832.191,311332.319,311334.2150002718,311348.965,311848.878,,,,
Rating,html.Form,2_4_2_1_9_1,2021-05-24T16:05:27.818Z,,,,,,,,,,,,,,,,,,,,,,,,,,,,,,,,,,,,,,,,,,,,,,,,,,,,,,,,,,,,,,,,,,,,,,,,,,,,,,,,,,,,,,,,,,,,,,,,,,,,,,,,,,,,,,,,,,,,4761.236999115441,,form submission,,,,unhealthy,,praline.png,,,,,,,,,,,,,,,praline,,,,,,,,,,,,,,,,,,,,,,,,,,,,,,,,,,,,,,,,,,,,,,,,,,,,,,,,,false,,,,,,,,,316610.33000051975,316610.11499911547,311832.191,311832.92499929667,311848.878,316614.614,,,,100
rating_sequence,flow.Sequence,2_4_2_1_9,2021-05-24T16:05:27.818Z,,,,,,,,,,,,,,,,,,,,,,,,,,,,,,,,,,,,,,,,,,,,,,,,,,,,,,,,,,,,,,,,,,,,,,,,,,,,,,,,,,,,,,,,,,,,,,,,,,,,,,,,,,,,,,,,,,,,5261.1499991154415,,completion,,,,unhealthy,,praline.png,,,,,,,,,,,,,,,praline,,,,,,,,,,,,,,,,,,,,,,,,,,,,,,,,,,,,,,,,,,,,,,,,,,,,,,,,,false,,,,,,,,,316610.52000150084,316610.11499911547,311332.319,311334.15500074625,311348.965,316614.614,,,,
fixCross,canvas.Screen,2_4_2_1_10_0,2021-05-24T16:05:28.306Z,,,,,,,,,,,,,,,,,,,,,,,,,,,,,,,,,,,,,,,,,,,,,,,,,,,,,,,,,,,,,,,,,,,,,,,,,,,,,,,,,,,,,,,,,,,,,,,,,,,,,,,,,,,,,,,,,,,,499.94900000002235,,timeout,,,,healthy,,raspberry.png,,,,,,,,,,,,,,,raspberry,,,,,,,,,,,,,,,,,,,,,,,,,,,,,,,,,,,,,,,,,,,,,,,,,,,,,,,,,false,,,,,,,,,317098.34000095725,317097.79,316597.911,316610.64000055194,316614.614,317114.563,,,,
Rating,html.Form,2_4_2_1_10_1,2021-05-24T16:05:31.310Z,,,,,,,,,,,,,,,,,,,,,,,,,,,,,,,,,,,,,,,,,,,,,,,,,,,,,,,,,,,,,,,,,,,,,,,,,,,,,,,,,,,,,,,,,,,,,,,,,,,,,,,,,,,,,,,,,,,,2987.03199943254,,form submission,,,,healthy,,raspberry.png,,,,,,,,,,,,,,,raspberry,,,,,,,,,,,,,,,,,,,,,,,,,,,,,,,,,,,,,,,,,,,,,,,,,,,,,,,,,false,,,,,,,,,320101.95000097156,320101.59499943256,317097.79,317098.5199995339,317114.563,320113.907,,,,100
rating_sequence,flow.Sequence,2_4_2_1_10,2021-05-24T16:05:31.310Z,,,,,,,,,,,,,,,,,,,,,,,,,,,,,,,,,,,,,,,,,,,,,,,,,,,,,,,,,,,,,,,,,,,,,,,,,,,,,,,,,,,,,,,,,,,,,,,,,,,,,,,,,,,,,,,,,,,,3486.9809994325624,,completion,,,,healthy,,raspberry.png,,,,,,,,,,,,,,,raspberry,,,,,,,,,,,,,,,,,,,,,,,,,,,,,,,,,,,,,,,,,,,,,,,,,,,,,,,,,false,,,,,,,,,320102.2699996829,320101.59499943256,316597.911,316610.6050014496,316614.614,320113.907,,,,
fixCross,canvas.Screen,2_4_2_1_11_0,2021-05-24T16:05:31.805Z,,,,,,,,,,,,,,,,,,,,,,,,,,,,,,,,,,,,,,,,,,,,,,,,,,,,,,,,,,,,,,,,,,,,,,,,,,,,,,,,,,,,,,,,,,,,,,,,,,,,,,,,,,,,,,,,,,,,499.84399999998277,,timeout,,,,unhealthy,,chocolate.png,,,,,,,,,,,,,,,chocolate,,,,,,,,,,,,,,,,,,,,,,,,,,,,,,,,,,,,,,,,,,,,,,,,,,,,,,,,,false,,,,,,,,,320597.5750014186,320597.101,320097.233,320102.44499891996,320113.907,320613.751,,,,
Rating,html.Form,2_4_2_1_11_1,2021-05-24T16:05:38.403Z,,,,,,,,,,,,,,,,,,,,,,,,,,,,,,,,,,,,,,,,,,,,,,,,,,,,,,,,,,,,,,,,,,,,,,,,,,,,,,,,,,,,,,,,,,,,,,,,,,,,,,,,,,,,,,,,,,,,6581.478999721061,,form submission,,,,unhealthy,,chocolate.png,,,,,,,,,,,,,,,chocolate,,,,,,,,,,,,,,,,,,,,,,,,,,,,,,,,,,,,,,,,,,,,,,,,,,,,,,,,,false,,,,,,,,,327195.4099982977,327195.22999972105,320597.101,320597.69999980927,320613.751,327212.787,,,,70
rating_sequence,flow.Sequence,2_4_2_1_11,2021-05-24T16:05:38.403Z,,,,,,,,,,,,,,,,,,,,,,,,,,,,,,,,,,,,,,,,,,,,,,,,,,,,,,,,,,,,,,,,,,,,,,,,,,,,,,,,,,,,,,,,,,,,,,,,,,,,,,,,,,,,,,,,,,,,7081.322999721044,,completion,,,,unhealthy,,chocolate.png,,,,,,,,,,,,,,,chocolate,,,,,,,,,,,,,,,,,,,,,,,,,,,,,,,,,,,,,,,,,,,,,,,,,,,,,,,,,false,,,,,,,,,327195.5799981952,327195.22999972105,320097.233,320102.4099998176,320113.907,327212.787,,,,
fixCross,canvas.Screen,2_4_2_1_12_0,2021-05-24T16:05:38.905Z,,,,,,,,,,,,,,,,,,,,,,,,,,,,,,,,,,,,,,,,,,,,,,,,,,,,,,,,,,,,,,,,,,,,,,,,,,,,,,,,,,,,,,,,,,,,,,,,,,,,,,,,,,,,,,,,,,,,499.5899999999674,,timeout,,,,unhealthy,,chocolate_truffle.png,,,,,,,,,,,,,,,chocolate truffle,,,,,,,,,,,,,,,,,,,,,,,,,,,,,,,,,,,,,,,,,,,,,,,,,,,,,,,,,false,,,,,,,,,327696.78999856114,327695.72,327179.137,327195.74499875307,327212.787,327712.377,,,,
Rating,html.Form,2_4_2_1_12_1,2021-05-24T16:05:42.652Z,,,,,,,,,,,,,,,,,,,,,,,,,,,,,,,,,,,,,,,,,,,,,,,,,,,,,,,,,,,,,,,,,,,,,,,,,,,,,,,,,,,,,,,,,,,,,,,,,,,,,,,,,,,,,,,,,,,,3731.428001676104,,form submission,,,,unhealthy,,chocolate_truffle.png,,,,,,,,,,,,,,,chocolate truffle,,,,,,,,,,,,,,,,,,,,,,,,,,,,,,,,,,,,,,,,,,,,,,,,,,,,,,,,,false,,,,,,,,,331443.9949989319,331443.8050016761,327695.72,327697.09999859333,327712.377,331444.903,,,,62
rating_sequence,flow.Sequence,2_4_2_1_12,2021-05-24T16:05:42.652Z,,,,,,,,,,,,,,,,,,,,,,,,,,,,,,,,,,,,,,,,,,,,,,,,,,,,,,,,,,,,,,,,,,,,,,,,,,,,,,,,,,,,,,,,,,,,,,,,,,,,,,,,,,,,,,,,,,,,4231.018001676071,,completion,,,,unhealthy,,chocolate_truffle.png,,,,,,,,,,,,,,,chocolate truffle,,,,,,,,,,,,,,,,,,,,,,,,,,,,,,,,,,,,,,,,,,,,,,,,,,,,,,,,,false,,,,,,,,,331444.18999925256,331443.8050016761,327179.137,327195.6700012088,327212.787,331444.903,,,,
fixCross,canvas.Screen,2_4_2_1_13_0,2021-05-24T16:05:43.139Z,,,,,,,,,,,,,,,,,,,,,,,,,,,,,,,,,,,,,,,,,,,,,,,,,,,,,,,,,,,,,,,,,,,,,,,,,,,,,,,,,,,,,,,,,,,,,,,,,,,,,,,,,,,,,,,,,,,,499.93900000001304,,timeout,,,,healthy,,blueberry.png,,,,,,,,,,,,,,,blueberry,,,,,,,,,,,,,,,,,,,,,,,,,,,,,,,,,,,,,,,,,,,,,,,,,,,,,,,,,false,,,,,,,,,331930.81000074744,331929.734,331428.273,331444.3200007081,331444.903,331944.842,,,,
Rating,html.Form,2_4_2_1_13_1,2021-05-24T16:05:46.618Z,,,,,,,,,,,,,,,,,,,,,,,,,,,,,,,,,,,,,,,,,,,,,,,,,,,,,,,,,,,,,,,,,,,,,,,,,,,,,,,,,,,,,,,,,,,,,,,,,,,,,,,,,,,,,,,,,,,,3464.6079982893425,,form submission,,,,healthy,,blueberry.png,,,,,,,,,,,,,,,blueberry,,,,,,,,,,,,,,,,,,,,,,,,,,,,,,,,,,,,,,,,,,,,,,,,,,,,,,,,,false,,,,,,,,,335409.6550010145,335409.44999828935,331929.734,331931.1250001192,331944.842,335410.758,,,,100
rating_sequence,flow.Sequence,2_4_2_1_13,2021-05-24T16:05:46.618Z,,,,,,,,,,,,,,,,,,,,,,,,,,,,,,,,,,,,,,,,,,,,,,,,,,,,,,,,,,,,,,,,,,,,,,,,,,,,,,,,,,,,,,,,,,,,,,,,,,,,,,,,,,,,,,,,,,,,3964.5469982893555,,completion,,,,healthy,,blueberry.png,,,,,,,,,,,,,,,blueberry,,,,,,,,,,,,,,,,,,,,,,,,,,,,,,,,,,,,,,,,,,,,,,,,,,,,,,,,,false,,,,,,,,,335409.82500091195,335409.44999828935,331428.273,331444.2749992013,331444.903,335410.758,,,,
fixCross,canvas.Screen,2_4_2_1_14_0,2021-05-24T16:05:47.103Z,,,,,,,,,,,,,,,,,,,,,,,,,,,,,,,,,,,,,,,,,,,,,,,,,,,,,,,,,,,,,,,,,,,,,,,,,,,,,,,,,,,,,,,,,,,,,,,,,,,,,,,,,,,,,,,,,,,,499.9190000000526,,timeout,,,,healthy,,apple.png,,,,,,,,,,,,,,,apple,,,,,,,,,,,,,,,,,,,,,,,,,,,,,,,,,,,,,,,,,,,,,,,,,,,,,,,,,false,,,,,,,,,335895.3199982643,335894.11,335394.167,335409.94499996305,335410.758,335910.677,,,,
Rating,html.Form,2_4_2_1_14_1,2021-05-24T16:05:50.946Z,,,,,,,,,,,,,,,,,,,,,,,,,,,,,,,,,,,,,,,,,,,,,,,,,,,,,,,,,,,,,,,,,,,,,,,,,,,,,,,,,,,,,,,,,,,,,,,,,,,,,,,,,,,,,,,,,,,,3826.7279983918415,,form submission,,,,healthy,,apple.png,,,,,,,,,,,,,,,apple,,,,,,,,,,,,,,,,,,,,,,,,,,,,,,,,,,,,,,,,,,,,,,,,,,,,,,,,,false,,,,,,,,,339737.6350015402,339737.40499839187,335894.11,335895.66500112414,335910.677,339743.364,,,,91
rating_sequence,flow.Sequence,2_4_2_1_14,2021-05-24T16:05:50.946Z,,,,,,,,,,,,,,,,,,,,,,,,,,,,,,,,,,,,,,,,,,,,,,,,,,,,,,,,,,,,,,,,,,,,,,,,,,,,,,,,,,,,,,,,,,,,,,,,,,,,,,,,,,,,,,,,,,,,4326.646998391894,,completion,,,,healthy,,apple.png,,,,,,,,,,,,,,,apple,,,,,,,,,,,,,,,,,,,,,,,,,,,,,,,,,,,,,,,,,,,,,,,,,,,,,,,,,false,,,,,,,,,339737.8700003028,339737.40499839187,335394.167,335409.89999845624,335410.758,339743.364,,,,
fixCross,canvas.Screen,2_4_2_1_15_0,2021-05-24T16:05:51.435Z,,,,,,,,,,,,,,,,,,,,,,,,,,,,,,,,,,,,,,,,,,,,,,,,,,,,,,,,,,,,,,,,,,,,,,,,,,,,,,,,,,,,,,,,,,,,,,,,,,,,,,,,,,,,,,,,,,,,499.80300000001444,,timeout,,,,unhealthy,,maltesers.png,,,,,,,,,,,,,,,malteser,,,,,,,,,,,,,,,,,,,,,,,,,,,,,,,,,,,,,,,,,,,,,,,,,,,,,,,,,false,,,,,,,,,340226.9200012088,340226.465,339726.575,339738.0050010979,339743.364,340243.167,,,,
Rating,html.Form,2_4_2_1_15_1,2021-05-24T16:06:12.871Z,,,,,,,,,,,,,,,,,,,,,,,,,,,,,,,,,,,,,,,,,,,,,,,,,,,,,,,,,,,,,,,,,,,,,,,,,,,,,,,,,,,,,,,,,,,,,,,,,,,,,,,,,,,,,,,,,,,,21419.74799882935,,form submission,,,,unhealthy,,maltesers.png,,,,,,,,,,,,,,,malteser,,,,,,,,,,,,,,,,,,,,,,,,,,,,,,,,,,,,,,,,,,,,,,,,,,,,,,,,,false,,,,,,,,,361663.1850004196,361662.91499882936,340226.465,340227.04499959946,340243.167,361672.131,,,,25
rating_sequence,flow.Sequence,2_4_2_1_15,2021-05-24T16:06:12.871Z,,,,,,,,,,,,,,,,,,,,,,,,,,,,,,,,,,,,,,,,,,,,,,,,,,,,,,,,,,,,,,,,,,,,,,,,,,,,,,,,,,,,,,,,,,,,,,,,,,,,,,,,,,,,,,,,,,,,21919.550998829363,,completion,,,,unhealthy,,maltesers.png,,,,,,,,,,,,,,,malteser,,,,,,,,,,,,,,,,,,,,,,,,,,,,,,,,,,,,,,,,,,,,,,,,,,,,,,,,,false,,,,,,,,,361663.43500092626,361662.91499882936,339726.575,339737.9649989307,339743.364,361672.131,,,,
fixCross,canvas.Screen,2_4_2_1_16_0,2021-05-24T16:06:13.364Z,,,,,,,,,,,,,,,,,,,,,,,,,,,,,,,,,,,,,,,,,,,,,,,,,,,,,,,,,,,,,,,,,,,,,,,,,,,,,,,,,,,,,,,,,,,,,,,,,,,,,,,,,,,,,,,,,,,,499.9210000000312,,timeout,,,,unhealthy,,liqorice.png,,,,,,,,,,,,,,,liquorice,,,,,,,,,,,,,,,,,,,,,,,,,,,,,,,,,,,,,,,,,,,,,,,,,,,,,,,,,false,,,,,,,,,362155.7999998331,362155.339,361655.47,361663.63000124693,361672.131,362172.052,,,,
Rating,html.Form,2_4_2_1_16_1,2021-05-24T16:06:22.244Z,,,,,,,,,,,,,,,,,,,,,,,,,,,,,,,,,,,,,,,,,,,,,,,,,,,,,,,,,,,,,,,,,,,,,,,,,,,,,,,,,,,,,,,,,,,,,,,,,,,,,,,,,,,,,,,,,,,,8863.187998251175,,form submission,,,,unhealthy,,liqorice.png,,,,,,,,,,,,,,,liquorice,,,,,,,,,,,,,,,,,,,,,,,,,,,,,,,,,,,,,,,,,,,,,,,,,,,,,,,,,false,,,,,,,,,371035.4750007391,371035.2399982512,362155.339,362155.9199988842,362172.052,371036.908,,,,23
rating_sequence,flow.Sequence,2_4_2_1_16,2021-05-24T16:06:22.244Z,,,,,,,,,,,,,,,,,,,,,,,,,,,,,,,,,,,,,,,,,,,,,,,,,,,,,,,,,,,,,,,,,,,,,,,,,,,,,,,,,,,,,,,,,,,,,,,,,,,,,,,,,,,,,,,,,,,,9363.108998251206,,completion,,,,unhealthy,,liqorice.png,,,,,,,,,,,,,,,liquorice,,,,,,,,,,,,,,,,,,,,,,,,,,,,,,,,,,,,,,,,,,,,,,,,,,,,,,,,,false,,,,,,,,,371035.6899984181,371035.2399982512,361655.47,361663.55999931693,361672.131,371036.908,,,,
fixCross,canvas.Screen,2_4_2_1_17_0,2021-05-24T16:06:22.729Z,,,,,,,,,,,,,,,,,,,,,,,,,,,,,,,,,,,,,,,,,,,,,,,,,,,,,,,,,,,,,,,,,,,,,,,,,,,,,,,,,,,,,,,,,,,,,,,,,,,,,,,,,,,,,,,,,,,,499.8730000000214,,timeout,,,,healthy,,cherry.png,,,,,,,,,,,,,,,cherry,,,,,,,,,,,,,,,,,,,,,,,,,,,,,,,,,,,,,,,,,,,,,,,,,,,,,,,,,false,,,,,,,,,371520.6799991429,371520.131,371020.28,371035.81999987364,371036.908,371536.781,,,,
Rating,html.Form,2_4_2_1_17_1,2021-05-24T16:06:29.305Z,,,,,,,,,,,,,,,,,,,,,,,,,,,,,,,,,,,,,,,,,,,,,,,,,,,,,,,,,,,,,,,,,,,,,,,,,,,,,,,,,,,,,,,,,,,,,,,,,,,,,,,,,,,,,,,,,,,,6559.889001745207,,form submission,,,,healthy,,cherry.png,,,,,,,,,,,,,,,cherry,,,,,,,,,,,,,,,,,,,,,,,,,,,,,,,,,,,,,,,,,,,,,,,,,,,,,,,,,false,,,,,,,,,378096.8700014055,378096.6700017452,371520.131,371520.81000059843,371536.781,378102.138,,,,100
rating_sequence,flow.Sequence,2_4_2_1_17,2021-05-24T16:06:29.305Z,,,,,,,,,,,,,,,,,,,,,,,,,,,,,,,,,,,,,,,,,,,,,,,,,,,,,,,,,,,,,,,,,,,,,,,,,,,,,,,,,,,,,,,,,,,,,,,,,,,,,,,,,,,,,,,,,,,,7059.762001745228,,completion,,,,healthy,,cherry.png,,,,,,,,,,,,,,,cherry,,,,,,,,,,,,,,,,,,,,,,,,,,,,,,,,,,,,,,,,,,,,,,,,,,,,,,,,,false,,,,,,,,,378097.0599986613,378096.6700017452,371020.28,371035.79000011086,371036.908,378102.138,,,,
rating_loop,flow.Loop,2_4_2_1,2021-05-24T16:06:29.305Z,,,,,,,,,,,,,,,,,,,,,,,,,,,,,,,,,,,,,,,,,,,,,,,,,,,,,,,,,,,,,,,,,,,,,,,,,,,,,,,,,,,,,,,,,,,,,,,,,,,,,,,,,,,,,,,,,,,,116253.65100174522,,completion,,,,,,,,,,,,,,,,,,,,,,,,,,,,,,,,,,,,,,,,,,,,,,,,,,,,,,,,,,,,,,,,,,,,,,,,,,,,,,false,,,,,,,,,378097.2249992192,378096.6700017452,261809.112,261829.0949985385,261843.019,378102.138,,,,
data_transmission,html.Screen,2_4_2_2,2021-05-24T16:06:29.316Z,,,,,,,,,,,,,,,,,,,,,,,,,,,,,,,,,,,,,,,,,,,,,,,,,,,,,,,,,,,,,,,,,,,,,,,,,,,,,,,,,,,,,,,,,,,,,,,,,,,,,,,,,,,,,,,,,,,,NaN,,no compatible backend,,,,,,,,,,,,,,,Transferring data,,,,,,,,,,,,,,,,,,,,,,,,,,,,,,,,,,,,,,,,,,,,,,,,,,,,,,,,,,,,,,,false,,,Please wait a second…,,,,,,378107.7950000763,378107.5350008905,,378097.3449982703,,378102.138,,,,
instructions,html.Screen,2_4_2_3,2021-05-24T16:08:35.363Z,,,,,,,,,,,,,,,,,,,,,,,,,,,,,,,,,,,,,,,,,,,,,,,,,,,,,,,,,,,,,,,,,,,,,,,,,,,,,,,,,,,,,,,,,,,,,,,,,,,,,,,,,,,,,,,,,,,,126052.66200153186,,done,,,,,,,,,,,,,,,,,,,,,,,,,,,,,,,,,,,,,,,,,,,,,,,,,,,,,,,,,,,,,,,,,,,,,,,,,,,,,,false,,,,,,,,,504155.1200002432,504154.80000153184,378085.491,378108.0549992621,378102.138,504159.975,,,,
Q1,html.Screen,2_4_2_4_0,2021-05-24T16:08:58.705Z,,,,,,,,,,,,,,,,,,,,,,,,,,,,,,,,,,,,,,,,,,,,,,,,,,,,,,,,,,,,,,,,,,,,,,,,,,,,,,,,,,,,,,,,,,,,,,,,,,,,,,,,,,,,,,,,false,input_Q1==3,,,23332.540001446032,,response,,,,,,,,,,,,,,,,,,,,,,,,,Q1_i2,Q1_i4,Q1_i3,Q1_i1,2,4,3,1,false,false,correct,false,,,,,,,,,,,,,,,,,,,,,,,,,,,,,,,,,,,,,,,,,click #Q1_i3,false,,,,,,,,,527496.9849996269,527492.515001446,504144.179,504155.3100012243,504159.975,527505.256,,,,
Q1_correct,html.Screen,2_4_2_4_1,2021-05-24T16:09:02.001Z,,,,,,,,,,,,,,,,,,,,,,,,,,,,,,,,,,,,,,,,,,,,,,,,,,,,,,,,,,,,,,,,,,,,,,,,,,,,,,,,,,,,,,,,,,,,,,,,,,,,,,,,,,,,,,,,,,,,3287.2190000237897,,response,,,,,,,,,,,,,,,,,,,,,,,,,,,,,,,,,,,,,,,,,,,,,,,,,,,,,,,,,,,,,,,,,,,,,,,,,,,,,keypress,false,,,,,,,,,530793.3599986136,530792.4750000238,527488.601,527497.5100010633,527505.256,530804.592,,,,
Q2,html.Screen,2_4_2_4_2,2021-05-24T16:09:08.155Z,,,,,,,,,,,,,,,,,,,,,,,,,,,,,,,,,,,,,,,,,,,,,,,,,,,,,,,,,,,,,,,,,,,,,,,,,,,,,,,,,,,,,,,,,,,,,,,,,,,,,,,,,,,,,,,,,,,,6141.377998836571,,response,,,,,,,,,,,,,,,,,,,,,,,,,,,,,,,,,,,,,Q2_i1,Q2_i2,Q2_i3,Option 1,Option 2,Same amount,correct,opt2,same,,,,,,,,,,,,,,,,,,,,,,,,,,,,,,,,click #Q2_i1,false,,,,,,,,,536947.0349997282,536945.9699988365,530788.268,530793.4900000691,530804.592,536953.345,,,,
Q2_correct,html.Screen,2_4_2_4_3,2021-05-24T16:09:50.291Z,,,,,,,,,,,,,,,,,,,,,,,,,,,,,,,,,,,,,,,,,,,,,,,,,,,,,,,,,,,,,,,,,,,,,,,,,,,,,,,,,,,,,,,,,,,,,,,,,,,,,,,,,,,,,,,,,,,,42125.3050014365,,response,,,,,,,,,,,,,,,,,,,,,,,,,,,,,,,,,,,,,,,,,,,,,,,,,,,,,,,,,,,,,,,,,,,,,,,,,,,,,keypress,false,,,,,,,,,579082.9899981618,579078.6500014365,536936.671,536947.5499987602,536953.345,579094.883,,,,
Q4,html.Screen,2_4_2_4_4,2021-05-24T16:10:24.892Z,,,,,,,,,,,,,,,,,,,,,,,,,,,,,,,,,,,,,,,,,,,,,,,,,,,,,,,,,,,,,,,,,,,,,,,,,,,,,,,,,,,,,,,,,,,,,,,,,,,,,,,,,,,,,,,,,,,,34586.09700064489,,response,,,,,,,,,,,,,,,,,,,,,,,,,,,,,,,,,,,,,,,,,,,,,,Q4_i2,Q4_i3,Q4_i1,Q4_i4,Indicate the number of food items in each snack option,Press the arrow key that corresponds with the snack option with more food items,Press the arrow key that corresponds with the snack option I prefer,Press the space key,indicate,morefood,correct,pressspace,,,,,,,,,,,,,,,,,,,,click #Q4_i1,false,,,,,,,,,613683.749999851,613680.9800006449,579082.477,579083.7449990213,579094.883,613687.8,,,,
Q4_correct,html.Screen,2_4_2_4_5,2021-05-24T16:10:26.356Z,,,,,,,,,,,,,,,,,,,,,,,,,,,,,,,,,,,,,,,,,,,,,,,,,,,,,,,,,,,,,,,,,,,,,,,,,,,,,,,,,,,,,,,,,,,,,,,,,,,,,,,,,,,,,,,,,,,,1459.750001740409,,response,,,,,,,,,,,,,,,,,,,,,,,,,,,,,,,,,,,,,,,,,,,,,,,,,,,,,,,,,,,,,,,,,,,,,,,,,,,,,keypress,false,,,,,,,,,615148.2100002468,615147.5500017405,613671.148,613684.3549981713,613687.8,615154.168,,,,
Q5,html.Screen,2_4_2_4_6,2021-05-24T16:11:00.216Z,,,,,,,,,,,,,,,,,,,,,,,,,,,,,,,,,,,,,,,,,,,,,,,,,,,,,,,,,,,,,,,,,,,,,,,,,,,,,,,,,,,,,,,,,,,,,,,,,,,,,,,,,,,,,,,,,,,,33852.86699838715,,response,,,,,,,,,,,,,,,,,,,,,,,,,,,,,,,,,,,,,,,,,,,,,,,,,,,,,,,,,,Q5_i1,Q5_i3,Q5_i4,Q5_i2,Snack Option 2 has been chosen,There are more slices of kiwi in snack Option 1,Snack Option 1 has been chosen,There are more pieces of chocolate in snack Option 2,correct,morekiwi1,chose1,morechoc2,,,,,,,,click #Q5_i1,false,,,,,,,,,649007.800001651,649007.0349983871,615137.657,615148.3400017023,615154.168,649013.874,,,,
Q5_correct,html.Screen,2_4_2_4_7,2021-05-24T16:11:01.443Z,,,,,,,,,,,,,,,,,,,,,,,,,,,,,,,,,,,,,,,,,,,,,,,,,,,,,,,,,,,,,,,,,,,,,,,,,,,,,,,,,,,,,,,,,,,,,,,,,,,,,,,,,,,,,,,,,,,,1218.8810016344069,,response,,,,,,,,,,,,,,,,,,,,,,,,,,,,,,,,,,,,,,,,,,,,,,,,,,,,,,,,,,,,,,,,,,,,,,,,,,,,,keypress,false,,,,,,,,,650234.9699996412,650232.7550016344,648997.185,649007.9549998045,649013.874,650247.083,,,,
practice_sequence,flow.Sequence,2_4_2_4,2021-05-24T16:11:01.444Z,,,,,,,,,,,,,,,,,,,,,,,,,,,,,,,,,,,,,,,,,,,,,,,,,,,,,,,,,,,,,,,,,,,,,,,,,,,,,,,,,,,,,,,,,,,,,,,,,,,,,,,,,,,,,,,,,,,,146072.78000163438,,completion,,,,,,,,,,,,,,,,,,,,,,,,,,,,,,,,,,,,,,,,,,,,,,,,,,,,,,,,,,,,,,,,,,,,,,,,,,,,,,false,,,,,,,,,650236.0699996352,650232.7550016344,504144.179,504155.2649997175,504159.975,650247.083,,,,
final_instru,html.Screen,2_4_2_5,2021-05-24T16:11:49.569Z,,,,,,,,,,,,,,,,,,,,,,,,,,,,,,,,,,,,,,,,,,,,,,,,,,,,,,,,,,,,,,,,,,,,,,,,,,,,,,,,,,,,,,,,,,,,,,,,,,,,,,,,,,,,,,,,,,,,48112.7219990833,,done,,,,,,,,,,,,,,,,,,,,,,,,,,,,,,,,,,,,,,,,,,,,,,,,,,,,,,,,,,,,,,,,,,,,,,,,,,,,,,false,,,,,,,,,698360.1350001991,698359.8049990833,650230.54,650236.6200014949,650247.083,698370.419,,,,
blank_screen,canvas.Screen,2_4_2_6_0,2021-05-24T16:11:51.562Z,,,,,,,,,,,,,,,,,,,,,,,,,,,,,,,,,,,,,,,,,,,,,,,,,,,,,,,,,,,,,,,,,,,,,,,,,,,,,,,,,,,,,,,,,,,,,,,,,,,,,,,,,,,,,,,,,,,,2032.9400000000605,,timeout,,,,,,,,,,,,,,,,,,,,,,,,,,,,,,,,,,,,,,,,,,,,,,,,,,,,,,,,,,,,,,,,,,,,,,,,,,,,,,false,,,,,,,,,700353.8249991834,700353.37,698355.941,698360.4400008917,698370.419,700403.359,,,,
fixCross,canvas.Screen,2_4_2_6_1_0_0_0_0_0_0,2021-05-24T16:11:51.996Z,,,blank.png,blank.png,blank.png,blank.png,blank.png,blank.png,blank.png,"[""praline.png""]",blank.png,blank.png,blank.png,blank.png,blank.png,,,,,,,,,,,,,,,,,,,,,,,,,,,,,"[""praline.png""]","[""strawberry.png""]",PB18.png,,,,,,,,,,,0,6,"[""strawberry.png""]","[""strawberry.png""]","[""strawberry.png""]","[""strawberry.png""]","[""strawberry.png""]","[""strawberry.png""]",blank.png,PB18.png,PB15.png,"[""strawberry.png""]","[""strawberry.png""]","[""strawberry.png""]","[""strawberry.png""]","[""strawberry.png""]","[""strawberry.png""]","[""strawberry.png""]","[""strawberry.png""]","[""strawberry.png""]","[""strawberry.png""]",blank.png,blank.png,1,"[""praline.png""]",blank.png,blank.png,blank.png,4,"[""strawberry.png""]","[""strawberry.png""]","[""strawberry.png""]","[""strawberry.png""]",blank.png,blank.png,PB15.png,,,,,,,,,,,1,,,,,,,,,,,,,1183.094999999972,,timeout,,,,,,,,,,,,,4,,,,,,,,,,,,,,,,,,,,,,,,,,,,,,,,,,,,,,,,,,,,,,,,,,,,,,,,,"[""strawberry.png""]","[""praline.png""]",,,,1,,,false,,1,,,,,,,700787.1299982071,700786.6,700353.37,700411.0900014639,700403.359,701586.454,1,,,
timeout,canvas.Screen,2_4_2_6_1_0_0_0_0_0_1,2021-05-24T16:11:53.279Z,,,blank.png,blank.png,blank.png,blank.png,blank.png,blank.png,blank.png,"[""praline.png""]",blank.png,blank.png,blank.png,blank.png,blank.png,,,,,,,,,,,,,,,,,,,,,,,,,,,,,"[""praline.png""]","[""strawberry.png""]",PB18.png,,,,,,,,,,,0,6,"[""strawberry.png""]","[""strawberry.png""]","[""strawberry.png""]","[""strawberry.png""]","[""strawberry.png""]","[""strawberry.png""]",blank.png,PB18.png,PB15.png,"[""strawberry.png""]","[""strawberry.png""]","[""strawberry.png""]","[""strawberry.png""]","[""strawberry.png""]","[""strawberry.png""]","[""strawberry.png""]","[""strawberry.png""]","[""strawberry.png""]","[""strawberry.png""]",blank.png,blank.png,1,"[""praline.png""]",blank.png,blank.png,blank.png,4,"[""strawberry.png""]","[""strawberry.png""]","[""strawberry.png""]","[""strawberry.png""]",blank.png,blank.png,PB15.png,,,,,,,,,,,1,,,,,,,,,,,,,1366.390000000014,,timeout,,,,,,,,,,,,,4,,,,,,,,,,,,,,,,,,,,,,,,,,,,,,,,,,,,,,,,,,,,,,,,,,,,,,,,,"[""strawberry.png""]","[""praline.png""]",,,,1,,,false,,1,,,,,,,702070.1900012791,702069.683,700786.6,701590.9399986267,701586.454,702952.844,,,,
choice,canvas.Screen,2_4_2_6_1_0_0_0_0_0_2,2021-05-24T16:11:54.926Z,,,blank.png,blank.png,blank.png,blank.png,blank.png,blank.png,blank.png,"[""praline.png""]",blank.png,blank.png,blank.png,blank.png,blank.png,,,,,,,,,,,,,,,,,,,,,,,,,,,,,"[""praline.png""]","[""strawberry.png""]",PB18.png,,,,,,,,,,,0,6,"[""strawberry.png""]","[""strawberry.png""]","[""strawberry.png""]","[""strawberry.png""]","[""strawberry.png""]","[""strawberry.png""]",blank.png,PB18.png,PB15.png,"[""strawberry.png""]","[""strawberry.png""]","[""strawberry.png""]","[""strawberry.png""]","[""strawberry.png""]","[""strawberry.png""]","[""strawberry.png""]","[""strawberry.png""]","[""strawberry.png""]","[""strawberry.png""]",blank.png,blank.png,1,"[""praline.png""]",blank.png,blank.png,blank.png,4,"[""strawberry.png""]","[""strawberry.png""]","[""strawberry.png""]","[""strawberry.png""]",blank.png,blank.png,PB15.png,,,,,,,,,,,1,,,,,,,,,,,,,763.5360001143999,,response,,,,,,,,,,,,,4,,,,,,,,,,,,,,,,,,,,,,,,,,,,,,,,,,,,,,,,,,,,,,,,,,,,,,,,,"[""strawberry.png""]","[""praline.png""]",,,,1,right,keydown(ArrowRight),false,,1,,,,,,,703717.7649997175,703716.3800001144,702069.683,702958.0200016499,702952.844,704419.244,,1,,
square,canvas.Screen,2_4_2_6_1_0_0_0_0_0_3,2021-05-24T16:11:56.611Z,,,blank.png,blank.png,blank.png,blank.png,blank.png,blank.png,blank.png,"[""praline.png""]",blank.png,blank.png,blank.png,blank.png,blank.png,,,,,,,,,,,,,,,,,,,,,,,,,,,,,"[""praline.png""]","[""strawberry.png""]",PB18.png,,,,,,,,,,,0,6,"[""strawberry.png""]","[""strawberry.png""]","[""strawberry.png""]","[""strawberry.png""]","[""strawberry.png""]","[""strawberry.png""]",blank.png,PB18.png,PB15.png,"[""strawberry.png""]","[""strawberry.png""]","[""strawberry.png""]","[""strawberry.png""]","[""strawberry.png""]","[""strawberry.png""]","[""strawberry.png""]","[""strawberry.png""]","[""strawberry.png""]","[""strawberry.png""]",blank.png,blank.png,1,"[""praline.png""]",blank.png,blank.png,blank.png,4,"[""strawberry.png""]","[""strawberry.png""]","[""strawberry.png""]","[""strawberry.png""]",blank.png,blank.png,PB15.png,,,,,,,,,,,1,,,#808080,#33ff3f,,,,,,,,,999.7460000000428,,timeout,,,,,,,,,,,,,4,,,,,,,,,,,,,,,,,,,,,,,,,,,,,,,,,,,,,,,,,,,,,,,,,,,,,,,,,"[""strawberry.png""]","[""praline.png""]",,,,1,,,false,,1,,,,,white,black,705402.910001576,705402.347,704402.682,704411.8149988353,704419.244,705418.99,,,,
ITI_late,canvas.Screen,2_4_2_6_1_0_0_0_0_0_4,2021-05-24T16:11:57.611Z,,,blank.png,blank.png,blank.png,blank.png,blank.png,blank.png,blank.png,"[""praline.png""]",blank.png,blank.png,blank.png,blank.png,blank.png,,,,,,,,,,,,,,,,,,,,,,,,,,,,,"[""praline.png""]","[""strawberry.png""]",PB18.png,,,,,,,,,,,0,6,"[""strawberry.png""]","[""strawberry.png""]","[""strawberry.png""]","[""strawberry.png""]","[""strawberry.png""]","[""strawberry.png""]",blank.png,PB18.png,PB15.png,"[""strawberry.png""]","[""strawberry.png""]","[""strawberry.png""]","[""strawberry.png""]","[""strawberry.png""]","[""strawberry.png""]","[""strawberry.png""]","[""strawberry.png""]","[""strawberry.png""]","[""strawberry.png""]",blank.png,blank.png,1,"[""praline.png""]",blank.png,blank.png,blank.png,4,"[""strawberry.png""]","[""strawberry.png""]","[""strawberry.png""]","[""strawberry.png""]",blank.png,blank.png,PB15.png,,,,,,,,,,,1,,,,,,,,,,,,,999.8159999999916,,timeout,,,,,,,,,,,,white,4,,,,,,,,,,,,,,,,,,,,,,,,,,,,,,,,,,,,,,,,,,,,,,,,,,,,,,,,,"[""strawberry.png""]","[""praline.png""]",,,,1,,,false,,1,,,,,,,706402.7049988508,706402.146,705402.347,705404.8149995506,705418.99,706418.806,,,,
choice_sequence,flow.Sequence,2_4_2_6_1_0_0_0_0_0,2021-05-24T16:11:57.612Z,,,blank.png,blank.png,blank.png,blank.png,blank.png,blank.png,blank.png,"[""praline.png""]",blank.png,blank.png,blank.png,blank.png,blank.png,,,,,,,,,,,,,,,,,,,,,,,,,,,,,"[""praline.png""]","[""strawberry.png""]",PB18.png,,,,,,,,,,,0,6,"[""strawberry.png""]","[""strawberry.png""]","[""strawberry.png""]","[""strawberry.png""]","[""strawberry.png""]","[""strawberry.png""]",blank.png,PB18.png,PB15.png,"[""strawberry.png""]","[""strawberry.png""]","[""strawberry.png""]","[""strawberry.png""]","[""strawberry.png""]","[""strawberry.png""]","[""strawberry.png""]","[""strawberry.png""]","[""strawberry.png""]","[""strawberry.png""]",blank.png,blank.png,1,"[""praline.png""]",blank.png,blank.png,blank.png,4,"[""strawberry.png""]","[""strawberry.png""]","[""strawberry.png""]","[""strawberry.png""]",blank.png,blank.png,PB15.png,,,,,,,,,,,1,,,,,,,,,,,,,5998.786999999895,,completion,,,,,,,,,,,,,4,,,,,,,,,,,,,,,,,,,,,,,,,,,,,,,,,,,,,,,,,,,,,,,,,,,,,,,,,"[""strawberry.png""]","[""praline.png""]",,,,1,,,false,,1,,,,,,,706403.2250009477,706402.146,700353.37,700409.4250015914,700403.359,706418.806,,,,
fixCross,canvas.Screen,2_4_2_6_1_0_0_0_0_1_0,2021-05-24T16:11:58.211Z,,,blank.png,blank.png,blank.png,blank.png,blank.png,blank.png,blank.png,"[""praline.png""]",blank.png,blank.png,blank.png,blank.png,blank.png,,,,,,,,,,,,,,,,,,,,,,,,,,,,,"[""praline.png""]","[""strawberry.png""]",PB18.png,,,,,,,,,,,0,6,"[""strawberry.png""]","[""strawberry.png""]","[""strawberry.png""]","[""strawberry.png""]","[""strawberry.png""]","[""strawberry.png""]",blank.png,PB18.png,PB16.png,"[""strawberry.png""]","[""strawberry.png""]","[""strawberry.png""]","[""strawberry.png""]","[""strawberry.png""]","[""strawberry.png""]","[""strawberry.png""]","[""strawberry.png""]","[""strawberry.png""]","[""strawberry.png""]","[""strawberry.png""]",blank.png,1,"[""praline.png""]",blank.png,blank.png,blank.png,5,"[""strawberry.png""]","[""strawberry.png""]","[""strawberry.png""]","[""strawberry.png""]","[""strawberry.png""]",blank.png,PB16.png,,,,,,,,,,,1,,,,,,,,,,,,,1299.7280000000028,,timeout,,,,,,,,,,,,,4,,,,,,,,,,,,,,,,,,,,,,,,,,,,,,,,,,,,,,,,,,,,,,,,,,,,,,,,,"[""strawberry.png""]","[""praline.png""]",,,,1,,,false,,1,,,,,,,707002.6849992573,707002.079,706402.146,706411.2799987197,706418.806,707718.534,2,,,
timeout,canvas.Screen,2_4_2_6_1_0_0_0_0_1_1,2021-05-24T16:11:59.411Z,,,blank.png,blank.png,blank.png,blank.png,blank.png,blank.png,blank.png,"[""praline.png""]",blank.png,blank.png,blank.png,blank.png,blank.png,,,,,,,,,,,,,,,,,,,,,,,,,,,,,"[""praline.png""]","[""strawberry.png""]",PB18.png,,,,,,,,,,,0,6,"[""strawberry.png""]","[""strawberry.png""]","[""strawberry.png""]","[""strawberry.png""]","[""strawberry.png""]","[""strawberry.png""]",blank.png,PB18.png,PB16.png,"[""strawberry.png""]","[""strawberry.png""]","[""strawberry.png""]","[""strawberry.png""]","[""strawberry.png""]","[""strawberry.png""]","[""strawberry.png""]","[""strawberry.png""]","[""strawberry.png""]","[""strawberry.png""]","[""strawberry.png""]",blank.png,1,"[""praline.png""]",blank.png,blank.png,blank.png,5,"[""strawberry.png""]","[""strawberry.png""]","[""strawberry.png""]","[""strawberry.png""]","[""strawberry.png""]",blank.png,PB16.png,,,,,,,,,,,1,,,,,,,,,,,,,1283.0679999999702,,timeout,,,,,,,,,,,,,4,,,,,,,,,,,,,,,,,,,,,,,,,,,,,,,,,,,,,,,,,,,,,,,,,,,,,,,,,"[""strawberry.png""]","[""praline.png""]",,,,1,,,false,,1,,,,,,,708202.3199982941,708201.769,707002.079,707728.7050001323,707718.534,709001.602,,,,
choice,canvas.Screen,2_4_2_6_1_0_0_0_0_1_2,2021-05-24T16:12:02.819Z,,,blank.png,blank.png,blank.png,blank.png,blank.png,blank.png,blank.png,"[""praline.png""]",blank.png,blank.png,blank.png,blank.png,blank.png,,,,,,,,,,,,,,,,,,,,,,,,,,,,,"[""praline.png""]","[""strawberry.png""]",PB18.png,,,,,,,,,,,0,6,"[""strawberry.png""]","[""strawberry.png""]","[""strawberry.png""]","[""strawberry.png""]","[""strawberry.png""]","[""strawberry.png""]",blank.png,PB18.png,PB16.png,"[""strawberry.png""]","[""strawberry.png""]","[""strawberry.png""]","[""strawberry.png""]","[""strawberry.png""]","[""strawberry.png""]","[""strawberry.png""]","[""strawberry.png""]","[""strawberry.png""]","[""strawberry.png""]","[""strawberry.png""]",blank.png,1,"[""praline.png""]",blank.png,blank.png,blank.png,5,"[""strawberry.png""]","[""strawberry.png""]","[""strawberry.png""]","[""strawberry.png""]","[""strawberry.png""]",blank.png,PB16.png,,,,,,,,,,,1,,,,,,,,,,,,,2607.717999814078,,response,,,,,,,,,,,,,4,,,,,,,,,,,,,,,,,,,,,,,,,,,,,,,,,,,,,,,,,,,,,,,,,,,,,,,,,"[""strawberry.png""]","[""praline.png""]",,,,1,right,keydown(ArrowRight),false,,1,,,,,,,711610.3699989617,711609.319999814,708201.769,709000.3499984741,709001.602,712568.665,,2,,
square,canvas.Screen,2_4_2_6_1_0_0_0_0_1_3,2021-05-24T16:12:04.760Z,,,blank.png,blank.png,blank.png,blank.png,blank.png,blank.png,blank.png,"[""praline.png""]",blank.png,blank.png,blank.png,blank.png,blank.png,,,,,,,,,,,,,,,,,,,,,,,,,,,,,"[""praline.png""]","[""strawberry.png""]",PB18.png,,,,,,,,,,,0,6,"[""strawberry.png""]","[""strawberry.png""]","[""strawberry.png""]","[""strawberry.png""]","[""strawberry.png""]","[""strawberry.png""]",blank.png,PB18.png,PB16.png,"[""strawberry.png""]","[""strawberry.png""]","[""strawberry.png""]","[""strawberry.png""]","[""strawberry.png""]","[""strawberry.png""]","[""strawberry.png""]","[""strawberry.png""]","[""strawberry.png""]","[""strawberry.png""]","[""strawberry.png""]",blank.png,1,"[""praline.png""]",blank.png,blank.png,blank.png,5,"[""strawberry.png""]","[""strawberry.png""]","[""strawberry.png""]","[""strawberry.png""]","[""strawberry.png""]",blank.png,PB16.png,,,,,,,,,,,1,,,#808080,#33ff3f,,,,,,,,,998.6819999999134,,timeout,,,,,,,,,,,,,4,,,,,,,,,,,,,,,,,,,,,,,,,,,,,,,,,,,,,,,,,,,,,,,,,,,,,,,,,"[""strawberry.png""]","[""praline.png""]",,,,1,,,false,,1,,,,,white,black,713551.42499879,713550.682,712534.586,712549.7750006616,712568.665,713567.347,,,,
ITI_late,canvas.Screen,2_4_2_6_1_0_0_0_0_1_4,2021-05-24T16:12:05.010Z,,,blank.png,blank.png,blank.png,blank.png,blank.png,blank.png,blank.png,"[""praline.png""]",blank.png,blank.png,blank.png,blank.png,blank.png,,,,,,,,,,,,,,,,,,,,,,,,,,,,,"[""praline.png""]","[""strawberry.png""]",PB18.png,,,,,,,,,,,0,6,"[""strawberry.png""]","[""strawberry.png""]","[""strawberry.png""]","[""strawberry.png""]","[""strawberry.png""]","[""strawberry.png""]",blank.png,PB18.png,PB16.png,"[""strawberry.png""]","[""strawberry.png""]","[""strawberry.png""]","[""strawberry.png""]","[""strawberry.png""]","[""strawberry.png""]","[""strawberry.png""]","[""strawberry.png""]","[""strawberry.png""]","[""strawberry.png""]","[""strawberry.png""]",blank.png,1,"[""praline.png""]",blank.png,blank.png,blank.png,5,"[""strawberry.png""]","[""strawberry.png""]","[""strawberry.png""]","[""strawberry.png""]","[""strawberry.png""]",blank.png,PB16.png,,,,,,,,,,,1,,,,,,,,,,,,,249.94000000006054,,timeout,,,,,,,,,,,,white,4,,,,,,,,,,,,,,,,,,,,,,,,,,,,,,,,,,,,,,,,,,,,,,,,,,,,,,,,,"[""strawberry.png""]","[""praline.png""]",,,,1,,,false,,1,,,,,,,713801.4299981296,713800.642,713550.682,713556.1500005424,713567.347,713817.287,,,,
choice_sequence,flow.Sequence,2_4_2_6_1_0_0_0_0_1,2021-05-24T16:12:05.011Z,,,blank.png,blank.png,blank.png,blank.png,blank.png,blank.png,blank.png,"[""praline.png""]",blank.png,blank.png,blank.png,blank.png,blank.png,,,,,,,,,,,,,,,,,,,,,,,,,,,,,"[""praline.png""]","[""strawberry.png""]",PB18.png,,,,,,,,,,,0,6,"[""strawberry.png""]","[""strawberry.png""]","[""strawberry.png""]","[""strawberry.png""]","[""strawberry.png""]","[""strawberry.png""]",blank.png,PB18.png,PB16.png,"[""strawberry.png""]","[""strawberry.png""]","[""strawberry.png""]","[""strawberry.png""]","[""strawberry.png""]","[""strawberry.png""]","[""strawberry.png""]","[""strawberry.png""]","[""strawberry.png""]","[""strawberry.png""]","[""strawberry.png""]",blank.png,1,"[""praline.png""]",blank.png,blank.png,blank.png,5,"[""strawberry.png""]","[""strawberry.png""]","[""strawberry.png""]","[""strawberry.png""]","[""strawberry.png""]",blank.png,PB16.png,,,,,,,,,,,1,,,,,,,,,,,,,7381.83600000001,,completion,,,,,,,,,,,,,4,,,,,,,,,,,,,,,,,,,,,,,,,,,,,,,,,,,,,,,,,,,,,,,,,,,,,,,,,"[""strawberry.png""]","[""praline.png""]",,,,1,,,false,,1,,,,,,,713802.3199997842,713800.642,706402.146,706409.6250012517,706418.806,713817.287,,,,
fixCross,canvas.Screen,2_4_2_6_1_0_0_0_0_2_0,2021-05-24T16:12:05.709Z,,,blank.png,blank.png,blank.png,blank.png,blank.png,blank.png,blank.png,"[""praline.png""]",blank.png,blank.png,blank.png,blank.png,blank.png,,,,,,,,,,,,,,,,,,,,,,,,,,,,,"[""praline.png""]","[""strawberry.png""]",PB18.png,,,,,,,,,,,0,6,"[""strawberry.png""]","[""strawberry.png""]","[""strawberry.png""]","[""strawberry.png""]","[""strawberry.png""]","[""strawberry.png""]",blank.png,PB18.png,PB12.png,"[""strawberry.png""]","[""strawberry.png""]","[""strawberry.png""]","[""strawberry.png""]","[""strawberry.png""]","[""strawberry.png""]","[""strawberry.png""]","[""strawberry.png""]",blank.png,blank.png,blank.png,blank.png,1,"[""praline.png""]",blank.png,blank.png,blank.png,2,"[""strawberry.png""]","[""strawberry.png""]",blank.png,blank.png,blank.png,blank.png,PB12.png,,,,,,,,,,,1,,,,,,,,,,,,,1399.7289999999339,,timeout,,,,,,,,,,,,,4,,,,,,,,,,,,,,,,,,,,,,,,,,,,,,,,,,,,,,,,,,,,,,,,,,,,,,,,,"[""strawberry.png""]","[""praline.png""]",,,,1,,,false,,1,,,,,,,714500.9949989617,714500.482,713800.642,713811.1199997365,713817.287,715217.016,3,,,
timeout,canvas.Screen,2_4_2_6_1_0_0_0_0_2_1,2021-05-24T16:12:06.909Z,,,blank.png,blank.png,blank.png,blank.png,blank.png,blank.png,blank.png,"[""praline.png""]",blank.png,blank.png,blank.png,blank.png,blank.png,,,,,,,,,,,,,,,,,,,,,,,,,,,,,"[""praline.png""]","[""strawberry.png""]",PB18.png,,,,,,,,,,,0,6,"[""strawberry.png""]","[""strawberry.png""]","[""strawberry.png""]","[""strawberry.png""]","[""strawberry.png""]","[""strawberry.png""]",blank.png,PB18.png,PB12.png,"[""strawberry.png""]","[""strawberry.png""]","[""strawberry.png""]","[""strawberry.png""]","[""strawberry.png""]","[""strawberry.png""]","[""strawberry.png""]","[""strawberry.png""]",blank.png,blank.png,blank.png,blank.png,1,"[""praline.png""]",blank.png,blank.png,blank.png,2,"[""strawberry.png""]","[""strawberry.png""]",blank.png,blank.png,blank.png,blank.png,PB12.png,,,,,,,,,,,1,,,,,,,,,,,,,1166.4400000000605,,timeout,,,,,,,,,,,,,4,,,,,,,,,,,,,,,,,,,,,,,,,,,,,,,,,,,,,,,,,,,,,,,,,,,,,,,,,"[""strawberry.png""]","[""praline.png""]",,,,1,,,false,,1,,,,,,,715700.81499964,715700.244,714500.482,715223.655000329,715217.016,716383.456,,,,
choice,canvas.Screen,2_4_2_6_1_0_0_0_0_2_2,2021-05-24T16:12:13.982Z,,,blank.png,blank.png,blank.png,blank.png,blank.png,blank.png,blank.png,"[""praline.png""]",blank.png,blank.png,blank.png,blank.png,blank.png,,,,,,,,,,,,,,,,,,,,,,,,,,,,,"[""praline.png""]","[""strawberry.png""]",PB18.png,,,,,,,,,,,0,6,"[""strawberry.png""]","[""strawberry.png""]","[""strawberry.png""]","[""strawberry.png""]","[""strawberry.png""]","[""strawberry.png""]",blank.png,PB18.png,PB12.png,"[""strawberry.png""]","[""strawberry.png""]","[""strawberry.png""]","[""strawberry.png""]","[""strawberry.png""]","[""strawberry.png""]","[""strawberry.png""]","[""strawberry.png""]",blank.png,blank.png,blank.png,blank.png,1,"[""praline.png""]",blank.png,blank.png,blank.png,2,"[""strawberry.png""]","[""strawberry.png""]",blank.png,blank.png,blank.png,blank.png,PB12.png,,,,,,,,,,,1,,,,,,,,,,,,,6389.628998130793,,response,,,,,,,,,,,,,4,,,,,,,,,,,,,,,,,,,,,,,,,,,,,,,,,,,,,,,,,,,,,,,,,,,,,,,,,"[""strawberry.png""]","[""praline.png""]",,,,1,right,keydown(ArrowRight),false,,1,,,,,,,722774.105001241,722773.0849981308,715700.244,716380.1649995148,716383.456,723415.345,,3,,
square,canvas.Screen,2_4_2_6_1_0_0_0_0_2_3,2021-05-24T16:12:15.608Z,,,blank.png,blank.png,blank.png,blank.png,blank.png,blank.png,blank.png,"[""praline.png""]",blank.png,blank.png,blank.png,blank.png,blank.png,,,,,,,,,,,,,,,,,,,,,,,,,,,,,"[""praline.png""]","[""strawberry.png""]",PB18.png,,,,,,,,,,,0,6,"[""strawberry.png""]","[""strawberry.png""]","[""strawberry.png""]","[""strawberry.png""]","[""strawberry.png""]","[""strawberry.png""]",blank.png,PB18.png,PB12.png,"[""strawberry.png""]","[""strawberry.png""]","[""strawberry.png""]","[""strawberry.png""]","[""strawberry.png""]","[""strawberry.png""]","[""strawberry.png""]","[""strawberry.png""]",blank.png,blank.png,blank.png,blank.png,1,"[""praline.png""]",blank.png,blank.png,blank.png,2,"[""strawberry.png""]","[""strawberry.png""]",blank.png,blank.png,blank.png,blank.png,PB12.png,,,,,,,,,,,1,,,#808080,#33ff3f,,,,,,,,,999.8790000000736,,timeout,,,,,,,,,,,,,4,,,,,,,,,,,,,,,,,,,,,,,,,,,,,,,,,,,,,,,,,,,,,,,,,,,,,,,,,"[""strawberry.png""]","[""praline.png""]",,,,1,,,false,,1,,,,,white,black,724400.1149982214,724398.649,723399.404,723402.6399999857,723415.345,724415.224,,,,
ITI_late,canvas.Screen,2_4_2_6_1_0_0_0_0_2_4,2021-05-24T16:12:16.607Z,,,blank.png,blank.png,blank.png,blank.png,blank.png,blank.png,blank.png,"[""praline.png""]",blank.png,blank.png,blank.png,blank.png,blank.png,,,,,,,,,,,,,,,,,,,,,,,,,,,,,"[""praline.png""]","[""strawberry.png""]",PB18.png,,,,,,,,,,,0,6,"[""strawberry.png""]","[""strawberry.png""]","[""strawberry.png""]","[""strawberry.png""]","[""strawberry.png""]","[""strawberry.png""]",blank.png,PB18.png,PB12.png,"[""strawberry.png""]","[""strawberry.png""]","[""strawberry.png""]","[""strawberry.png""]","[""strawberry.png""]","[""strawberry.png""]","[""strawberry.png""]","[""strawberry.png""]",blank.png,blank.png,blank.png,blank.png,1,"[""praline.png""]",blank.png,blank.png,blank.png,2,"[""strawberry.png""]","[""strawberry.png""]",blank.png,blank.png,blank.png,blank.png,PB12.png,,,,,,,,,,,1,,,,,,,,,,,,,999.7249999999767,,timeout,,,,,,,,,,,,black,4,,,,,,,,,,,,,,,,,,,,,,,,,,,,,,,,,,,,,,,,,,,,,,,,,,,,,,,,,"[""strawberry.png""]","[""praline.png""]",,,,1,,,false,,1,,,,,,,725398.9350013435,725398.291,724398.649,724409.4749987125,724415.224,725414.949,,,,
choice_sequence,flow.Sequence,2_4_2_6_1_0_0_0_0_2,2021-05-24T16:12:16.607Z,,,blank.png,blank.png,blank.png,blank.png,blank.png,blank.png,blank.png,"[""praline.png""]",blank.png,blank.png,blank.png,blank.png,blank.png,,,,,,,,,,,,,,,,,,,,,,,,,,,,,"[""praline.png""]","[""strawberry.png""]",PB18.png,,,,,,,,,,,0,6,"[""strawberry.png""]","[""strawberry.png""]","[""strawberry.png""]","[""strawberry.png""]","[""strawberry.png""]","[""strawberry.png""]",blank.png,PB18.png,PB12.png,"[""strawberry.png""]","[""strawberry.png""]","[""strawberry.png""]","[""strawberry.png""]","[""strawberry.png""]","[""strawberry.png""]","[""strawberry.png""]","[""strawberry.png""]",blank.png,blank.png,blank.png,blank.png,1,"[""praline.png""]",blank.png,blank.png,blank.png,2,"[""strawberry.png""]","[""strawberry.png""]",blank.png,blank.png,blank.png,blank.png,PB12.png,,,,,,,,,,,1,,,,,,,,,,,,,11581.003999999957,,completion,,,,,,,,,,,,,4,,,,,,,,,,,,,,,,,,,,,,,,,,,,,,,,,,,,,,,,,,,,,,,,,,,,,,,,,"[""strawberry.png""]","[""praline.png""]",,,,1,,,false,,1,,,,,,,725399.4099982083,725398.291,713800.642,713809.4700016081,713817.287,725414.949,,,,
fixCross,canvas.Screen,2_4_2_6_1_0_0_0_0_3_0,2021-05-24T16:12:17.257Z,,,blank.png,blank.png,blank.png,blank.png,blank.png,blank.png,blank.png,"[""praline.png""]",blank.png,blank.png,blank.png,blank.png,blank.png,,,,,,,,,,,,,,,,,,,,,,,,,,,,,"[""praline.png""]","[""strawberry.png""]",PB18.png,,,,,,,,,,,0,6,"[""strawberry.png""]","[""strawberry.png""]","[""strawberry.png""]","[""strawberry.png""]","[""strawberry.png""]","[""strawberry.png""]",blank.png,PB18.png,PB07.png,"[""strawberry.png""]","[""strawberry.png""]","[""strawberry.png""]","[""strawberry.png""]","[""strawberry.png""]","[""strawberry.png""]","[""strawberry.png""]",blank.png,blank.png,blank.png,blank.png,blank.png,1,"[""praline.png""]",blank.png,blank.png,blank.png,1,"[""strawberry.png""]",blank.png,blank.png,blank.png,blank.png,blank.png,PB07.png,,,,,,,,,,,1,,,,,,,,,,,,,1333.0570000000298,,timeout,,,,,,,,,,,,,4,,,,,,,,,,,,,,,,,,,,,,,,,,,,,,,,,,,,,,,,,,,,,,,,,,,,,,,,,"[""strawberry.png""]","[""praline.png""]",,,,1,,,false,,1,,,,,,,726048.6400015652,726048.159,725398.291,725407.349999994,725414.949,726748.006,4,,,
timeout,canvas.Screen,2_4_2_6_1_0_0_0_0_3_1,2021-05-24T16:12:18.440Z,,,blank.png,blank.png,blank.png,blank.png,blank.png,blank.png,blank.png,"[""praline.png""]",blank.png,blank.png,blank.png,blank.png,blank.png,,,,,,,,,,,,,,,,,,,,,,,,,,,,,"[""praline.png""]","[""strawberry.png""]",PB18.png,,,,,,,,,,,0,6,"[""strawberry.png""]","[""strawberry.png""]","[""strawberry.png""]","[""strawberry.png""]","[""strawberry.png""]","[""strawberry.png""]",blank.png,PB18.png,PB07.png,"[""strawberry.png""]","[""strawberry.png""]","[""strawberry.png""]","[""strawberry.png""]","[""strawberry.png""]","[""strawberry.png""]","[""strawberry.png""]",blank.png,blank.png,blank.png,blank.png,blank.png,1,"[""praline.png""]",blank.png,blank.png,blank.png,1,"[""strawberry.png""]",blank.png,blank.png,blank.png,blank.png,blank.png,PB07.png,,,,,,,,,,,1,,,,,,,,,,,,,1183.1030000000028,,timeout,,,,,,,,,,,,,4,,,,,,,,,,,,,,,,,,,,,,,,,,,,,,,,,,,,,,,,,,,,,,,,,,,,,,,,,"[""strawberry.png""]","[""praline.png""]",,,,1,,,false,,1,,,,,,,727231.795001775,727231.256,726048.159,726752.1199993789,726748.006,727931.109,,,,
choice,canvas.Screen,2_4_2_6_1_0_0_0_0_3_2,2021-05-24T16:12:19.714Z,,,blank.png,blank.png,blank.png,blank.png,blank.png,blank.png,blank.png,"[""praline.png""]",blank.png,blank.png,blank.png,blank.png,blank.png,,,,,,,,,,,,,,,,,,,,,,,,,,,,,"[""praline.png""]","[""strawberry.png""]",PB18.png,,,,,,,,,,,0,6,"[""strawberry.png""]","[""strawberry.png""]","[""strawberry.png""]","[""strawberry.png""]","[""strawberry.png""]","[""strawberry.png""]",blank.png,PB18.png,PB07.png,"[""strawberry.png""]","[""strawberry.png""]","[""strawberry.png""]","[""strawberry.png""]","[""strawberry.png""]","[""strawberry.png""]","[""strawberry.png""]",blank.png,blank.png,blank.png,blank.png,blank.png,1,"[""praline.png""]",blank.png,blank.png,blank.png,1,"[""strawberry.png""]",blank.png,blank.png,blank.png,blank.png,blank.png,PB07.png,,,,,,,,,,,1,,,,,,,,,,,,,573.6460015150951,,response,,,,,,,,,,,,,4,,,,,,,,,,,,,,,,,,,,,,,,,,,,,,,,,,,,,,,,,,,,,,,,,,,,,,,,,"[""strawberry.png""]","[""praline.png""]",,,,1,right,keydown(ArrowRight),false,,1,,,,,,,728505.8749988675,728504.7550015152,727231.256,727898.4850011766,727931.109,729097.544,,4,,
square,canvas.Screen,2_4_2_6_1_0_0_0_0_3_3,2021-05-24T16:12:21.289Z,,,blank.png,blank.png,blank.png,blank.png,blank.png,blank.png,blank.png,"[""praline.png""]",blank.png,blank.png,blank.png,blank.png,blank.png,,,,,,,,,,,,,,,,,,,,,,,,,,,,,"[""praline.png""]","[""strawberry.png""]",PB18.png,,,,,,,,,,,0,6,"[""strawberry.png""]","[""strawberry.png""]","[""strawberry.png""]","[""strawberry.png""]","[""strawberry.png""]","[""strawberry.png""]",blank.png,PB18.png,PB07.png,"[""strawberry.png""]","[""strawberry.png""]","[""strawberry.png""]","[""strawberry.png""]","[""strawberry.png""]","[""strawberry.png""]","[""strawberry.png""]",blank.png,blank.png,blank.png,blank.png,blank.png,1,"[""praline.png""]",blank.png,blank.png,blank.png,1,"[""strawberry.png""]",blank.png,blank.png,blank.png,blank.png,blank.png,PB07.png,,,,,,,,,,,1,,,#808080,#33ff3f,,,,,,,,,999.7820000000065,,timeout,,,,,,,,,,,,,4,,,,,,,,,,,,,,,,,,,,,,,,,,,,,,,,,,,,,,,,,,,,,,,,,,,,,,,,,"[""strawberry.png""]","[""praline.png""]",,,,1,,,false,,1,,,,,white,black,730081.1799988151,730080.677,729080.981,729093.6600007117,729097.544,730097.326,,,,
ITI_late,canvas.Screen,2_4_2_6_1_0_0_0_0_3_4,2021-05-24T16:12:21.539Z,,,blank.png,blank.png,blank.png,blank.png,blank.png,blank.png,blank.png,"[""praline.png""]",blank.png,blank.png,blank.png,blank.png,blank.png,,,,,,,,,,,,,,,,,,,,,,,,,,,,,"[""praline.png""]","[""strawberry.png""]",PB18.png,,,,,,,,,,,0,6,"[""strawberry.png""]","[""strawberry.png""]","[""strawberry.png""]","[""strawberry.png""]","[""strawberry.png""]","[""strawberry.png""]",blank.png,PB18.png,PB07.png,"[""strawberry.png""]","[""strawberry.png""]","[""strawberry.png""]","[""strawberry.png""]","[""strawberry.png""]","[""strawberry.png""]","[""strawberry.png""]",blank.png,blank.png,blank.png,blank.png,blank.png,1,"[""praline.png""]",blank.png,blank.png,blank.png,1,"[""strawberry.png""]",blank.png,blank.png,blank.png,blank.png,blank.png,PB07.png,,,,,,,,,,,1,,,,,,,,,,,,,249.95200000004843,,timeout,,,,,,,,,,,,white,4,,,,,,,,,,,,,,,,,,,,,,,,,,,,,,,,,,,,,,,,,,,,,,,,,,,,,,,,,"[""strawberry.png""]","[""praline.png""]",,,,1,,,false,,1,,,,,,,730331.1499990523,730330.629,730080.677,730083.0500014126,730097.326,730347.278,,,,
choice_sequence,flow.Sequence,2_4_2_6_1_0_0_0_0_3,2021-05-24T16:12:21.540Z,,,blank.png,blank.png,blank.png,blank.png,blank.png,blank.png,blank.png,"[""praline.png""]",blank.png,blank.png,blank.png,blank.png,blank.png,,,,,,,,,,,,,,,,,,,,,,,,,,,,,"[""praline.png""]","[""strawberry.png""]",PB18.png,,,,,,,,,,,0,6,"[""strawberry.png""]","[""strawberry.png""]","[""strawberry.png""]","[""strawberry.png""]","[""strawberry.png""]","[""strawberry.png""]",blank.png,PB18.png,PB07.png,"[""strawberry.png""]","[""strawberry.png""]","[""strawberry.png""]","[""strawberry.png""]","[""strawberry.png""]","[""strawberry.png""]","[""strawberry.png""]",blank.png,blank.png,blank.png,blank.png,blank.png,1,"[""praline.png""]",blank.png,blank.png,blank.png,1,"[""strawberry.png""]",blank.png,blank.png,blank.png,blank.png,blank.png,PB07.png,,,,,,,,,,,1,,,,,,,,,,,,,4915.679999999935,,completion,,,,,,,,,,,,,4,,,,,,,,,,,,,,,,,,,,,,,,,,,,,,,,,,,,,,,,,,,,,,,,,,,,,,,,,"[""strawberry.png""]","[""praline.png""]",,,,1,,,false,,1,,,,,,,730331.6700011492,730330.629,725398.291,725405.7950004935,725414.949,730347.278,,,,
fixCross,canvas.Screen,2_4_2_6_1_0_0_0_0_4_0,2021-05-24T16:12:21.839Z,,,blank.png,blank.png,blank.png,blank.png,blank.png,blank.png,blank.png,"[""praline.png""]",blank.png,blank.png,blank.png,blank.png,blank.png,,,,,,,,,,,,,,,,,,,,,,,,,,,,,"[""praline.png""]","[""strawberry.png""]",PB18.png,,,,,,,,,,,0,6,"[""strawberry.png""]","[""strawberry.png""]","[""strawberry.png""]","[""strawberry.png""]","[""strawberry.png""]","[""strawberry.png""]",blank.png,PB18.png,PB01.png,"[""strawberry.png""]","[""strawberry.png""]","[""strawberry.png""]","[""strawberry.png""]","[""strawberry.png""]","[""strawberry.png""]",blank.png,blank.png,blank.png,blank.png,blank.png,blank.png,1,"[""praline.png""]",blank.png,blank.png,blank.png,0,blank.png,blank.png,blank.png,blank.png,blank.png,blank.png,PB01.png,,,,,,,,,,,1,,,,,,,,,,,,,949.8099999999395,,timeout,,,,,,,,,,,,,4,,,,,,,,,,,,,,,,,,,,,,,,,,,,,,,,,,,,,,,,,,,,,,,,,,,,,,,,,"[""strawberry.png""]","[""praline.png""]",,,,1,,,false,,1,,,,,,,730631.060000509,730630.567,730330.629,730336.7349989712,730347.278,731297.088,5,,,
timeout,canvas.Screen,2_4_2_6_1_0_0_0_0_4_1,2021-05-24T16:12:22.989Z,,,blank.png,blank.png,blank.png,blank.png,blank.png,blank.png,blank.png,"[""praline.png""]",blank.png,blank.png,blank.png,blank.png,blank.png,,,,,,,,,,,,,,,,,,,,,,,,,,,,,"[""praline.png""]","[""strawberry.png""]",PB18.png,,,,,,,,,,,0,6,"[""strawberry.png""]","[""strawberry.png""]","[""strawberry.png""]","[""strawberry.png""]","[""strawberry.png""]","[""strawberry.png""]",blank.png,PB18.png,PB01.png,"[""strawberry.png""]","[""strawberry.png""]","[""strawberry.png""]","[""strawberry.png""]","[""strawberry.png""]","[""strawberry.png""]",blank.png,blank.png,blank.png,blank.png,blank.png,blank.png,1,"[""praline.png""]",blank.png,blank.png,blank.png,0,blank.png,blank.png,blank.png,blank.png,blank.png,blank.png,PB01.png,,,,,,,,,,,1,,,,,,,,,,,,,1133.1260000000475,,timeout,,,,,,,,,,,,,4,,,,,,,,,,,,,,,,,,,,,,,,,,,,,,,,,,,,,,,,,,,,,,,,,,,,,,,,,"[""strawberry.png""]","[""praline.png""]",,,,1,,,false,,1,,,,,,,731780.839998275,731780.334,730630.567,731301.7549999058,731297.088,732430.214,,,,
choice,canvas.Screen,2_4_2_6_1_0_0_0_0_4_2,2021-05-24T16:12:23.654Z,,,blank.png,blank.png,blank.png,blank.png,blank.png,blank.png,blank.png,"[""praline.png""]",blank.png,blank.png,blank.png,blank.png,blank.png,,,,,,,,,,,,,,,,,,,,,,,,,,,,,"[""praline.png""]","[""strawberry.png""]",PB18.png,,,,,,,,,,,0,6,"[""strawberry.png""]","[""strawberry.png""]","[""strawberry.png""]","[""strawberry.png""]","[""strawberry.png""]","[""strawberry.png""]",blank.png,PB18.png,PB01.png,"[""strawberry.png""]","[""strawberry.png""]","[""strawberry.png""]","[""strawberry.png""]","[""strawberry.png""]","[""strawberry.png""]",blank.png,blank.png,blank.png,blank.png,blank.png,blank.png,1,"[""praline.png""]",blank.png,blank.png,blank.png,0,blank.png,blank.png,blank.png,blank.png,blank.png,blank.png,PB01.png,,,,,,,,,,,1,,,,,,,,,,,,,573.3310016903561,,response,,,,,,,,,,,,,4,,,,,,,,,,,,,,,,,,,,,,,,,,,,,,,,,,,,,,,,,,,,,,,,,,,,,,,,,"[""strawberry.png""]","[""praline.png""]",,,,1,left,keydown(ArrowLeft),false,,1,,,,,,,732446.1649991572,732353.6650016904,731780.334,732429.9850016832,,733096.732,,5,,
square,canvas.Screen,2_4_2_6_1_0_0_0_0_4_3,2021-05-24T16:12:25.289Z,,,blank.png,blank.png,blank.png,blank.png,blank.png,blank.png,blank.png,"[""praline.png""]",blank.png,blank.png,blank.png,blank.png,blank.png,,,,,,,,,,,,,,,,,,,,,,,,,,,,,"[""praline.png""]","[""strawberry.png""]",PB18.png,,,,,,,,,,,0,6,"[""strawberry.png""]","[""strawberry.png""]","[""strawberry.png""]","[""strawberry.png""]","[""strawberry.png""]","[""strawberry.png""]",blank.png,PB18.png,PB01.png,"[""strawberry.png""]","[""strawberry.png""]","[""strawberry.png""]","[""strawberry.png""]","[""strawberry.png""]","[""strawberry.png""]",blank.png,blank.png,blank.png,blank.png,blank.png,blank.png,1,"[""praline.png""]",blank.png,blank.png,blank.png,0,blank.png,blank.png,blank.png,blank.png,blank.png,blank.png,PB01.png,,,,,,,,,,,1,,,#33ff3f,#808080,,,,,,,,,999.8170000000391,,timeout,,,,,,,,,,,,,4,,,,,,,,,,,,,,,,,,,,,,,,,,,,,,,,,,,,,,,,,,,,,,,,,,,,,,,,,"[""strawberry.png""]","[""praline.png""]",,,,1,,,false,,1,,,,,black,white,734080.6050002575,734079.868,732430.214,733085.3749997914,733096.732,734096.549,,,,
ITI_late,canvas.Screen,2_4_2_6_1_0_0_0_0_4_4,2021-05-24T16:12:25.788Z,,,blank.png,blank.png,blank.png,blank.png,blank.png,blank.png,blank.png,"[""praline.png""]",blank.png,blank.png,blank.png,blank.png,blank.png,,,,,,,,,,,,,,,,,,,,,,,,,,,,,"[""praline.png""]","[""strawberry.png""]",PB18.png,,,,,,,,,,,0,6,"[""strawberry.png""]","[""strawberry.png""]","[""strawberry.png""]","[""strawberry.png""]","[""strawberry.png""]","[""strawberry.png""]",blank.png,PB18.png,PB01.png,"[""strawberry.png""]","[""strawberry.png""]","[""strawberry.png""]","[""strawberry.png""]","[""strawberry.png""]","[""strawberry.png""]",blank.png,blank.png,blank.png,blank.png,blank.png,blank.png,1,"[""praline.png""]",blank.png,blank.png,blank.png,0,blank.png,blank.png,blank.png,blank.png,blank.png,blank.png,PB01.png,,,,,,,,,,,1,,,,,,,,,,,,,499.88100000005215,,timeout,,,,,,,,,,,,white,4,,,,,,,,,,,,,,,,,,,,,,,,,,,,,,,,,,,,,,,,,,,,,,,,,,,,,,,,,"[""strawberry.png""]","[""praline.png""]",,,,1,,,false,,1,,,,,,,734580.2799984813,734579.764,734079.868,734083.2450017333,734096.549,734596.43,,,,
choice_sequence,flow.Sequence,2_4_2_6_1_0_0_0_0_4,2021-05-24T16:12:25.789Z,,,blank.png,blank.png,blank.png,blank.png,blank.png,blank.png,blank.png,"[""praline.png""]",blank.png,blank.png,blank.png,blank.png,blank.png,,,,,,,,,,,,,,,,,,,,,,,,,,,,,"[""praline.png""]","[""strawberry.png""]",PB18.png,,,,,,,,,,,0,6,"[""strawberry.png""]","[""strawberry.png""]","[""strawberry.png""]","[""strawberry.png""]","[""strawberry.png""]","[""strawberry.png""]",blank.png,PB18.png,PB01.png,"[""strawberry.png""]","[""strawberry.png""]","[""strawberry.png""]","[""strawberry.png""]","[""strawberry.png""]","[""strawberry.png""]",blank.png,blank.png,blank.png,blank.png,blank.png,blank.png,1,"[""praline.png""]",blank.png,blank.png,blank.png,0,blank.png,blank.png,blank.png,blank.png,blank.png,blank.png,PB01.png,,,,,,,,,,,1,,,,,,,,,,,,,4232.485999999917,,completion,,,,,,,,,,,,,4,,,,,,,,,,,,,,,,,,,,,,,,,,,,,,,,,,,,,,,,,,,,,,,,,,,,,,,,,"[""strawberry.png""]","[""praline.png""]",,,,1,,,false,,1,,,,,,,734580.8000005782,734579.764,730330.629,730335.6500007212,730347.278,734596.43,,,,
fixCross,canvas.Screen,2_4_2_6_1_0_0_0_0_5_0,2021-05-24T16:12:26.188Z,,,blank.png,blank.png,blank.png,blank.png,blank.png,blank.png,blank.png,"[""praline.png""]",blank.png,blank.png,blank.png,blank.png,blank.png,,,,,,,,,,,,,,,,,,,,,,,,,,,,,"[""praline.png""]","[""strawberry.png""]",PB18.png,,,,,,,,,,,0,6,"[""strawberry.png""]","[""strawberry.png""]","[""strawberry.png""]","[""strawberry.png""]","[""strawberry.png""]","[""strawberry.png""]",blank.png,PB18.png,PB17.png,"[""strawberry.png""]","[""strawberry.png""]","[""strawberry.png""]","[""strawberry.png""]","[""strawberry.png""]","[""strawberry.png""]","[""strawberry.png""]","[""strawberry.png""]","[""strawberry.png""]","[""strawberry.png""]","[""strawberry.png""]","[""strawberry.png""]",1,"[""praline.png""]",blank.png,blank.png,blank.png,6,"[""strawberry.png""]","[""strawberry.png""]","[""strawberry.png""]","[""strawberry.png""]","[""strawberry.png""]","[""strawberry.png""]",PB17.png,,,,,,,,,,,1,,,,,,,,,,,,,1149.8679999999003,,timeout,,,,,,,,,,,,,4,,,,,,,,,,,,,,,,,,,,,,,,,,,,,,,,,,,,,,,,,,,,,,,,,,,,,,,,,"[""strawberry.png""]","[""praline.png""]",,,,1,,,false,,1,,,,,,,734980.1700003445,734979.669,734579.764,734585.7799984515,734596.43,735746.298,6,,,
timeout,canvas.Screen,2_4_2_6_1_0_0_0_0_5_1,2021-05-24T16:12:27.438Z,,,blank.png,blank.png,blank.png,blank.png,blank.png,blank.png,blank.png,"[""praline.png""]",blank.png,blank.png,blank.png,blank.png,blank.png,,,,,,,,,,,,,,,,,,,,,,,,,,,,,"[""praline.png""]","[""strawberry.png""]",PB18.png,,,,,,,,,,,0,6,"[""strawberry.png""]","[""strawberry.png""]","[""strawberry.png""]","[""strawberry.png""]","[""strawberry.png""]","[""strawberry.png""]",blank.png,PB18.png,PB17.png,"[""strawberry.png""]","[""strawberry.png""]","[""strawberry.png""]","[""strawberry.png""]","[""strawberry.png""]","[""strawberry.png""]","[""strawberry.png""]","[""strawberry.png""]","[""strawberry.png""]","[""strawberry.png""]","[""strawberry.png""]","[""strawberry.png""]",1,"[""praline.png""]",blank.png,blank.png,blank.png,6,"[""strawberry.png""]","[""strawberry.png""]","[""strawberry.png""]","[""strawberry.png""]","[""strawberry.png""]","[""strawberry.png""]",PB17.png,,,,,,,,,,,1,,,,,,,,,,,,,1316.3230000000913,,timeout,,,,,,,,,,,,,4,,,,,,,,,,,,,,,,,,,,,,,,,,,,,,,,,,,,,,,,,,,,,,,,,,,,,,,,,"[""strawberry.png""]","[""praline.png""]",,,,1,,,false,,1,,,,,,,736229.9700006843,736229.418,734979.669,735755.5550001562,735746.298,737062.621,,,,
choice,canvas.Screen,2_4_2_6_1_0_0_0_0_5_2,2021-05-24T16:12:28.274Z,,,blank.png,blank.png,blank.png,blank.png,blank.png,blank.png,blank.png,"[""praline.png""]",blank.png,blank.png,blank.png,blank.png,blank.png,,,,,,,,,,,,,,,,,,,,,,,,,,,,,"[""praline.png""]","[""strawberry.png""]",PB18.png,,,,,,,,,,,0,6,"[""strawberry.png""]","[""strawberry.png""]","[""strawberry.png""]","[""strawberry.png""]","[""strawberry.png""]","[""strawberry.png""]",blank.png,PB18.png,PB17.png,"[""strawberry.png""]","[""strawberry.png""]","[""strawberry.png""]","[""strawberry.png""]","[""strawberry.png""]","[""strawberry.png""]","[""strawberry.png""]","[""strawberry.png""]","[""strawberry.png""]","[""strawberry.png""]","[""strawberry.png""]","[""strawberry.png""]",1,"[""praline.png""]",blank.png,blank.png,blank.png,6,"[""strawberry.png""]","[""strawberry.png""]","[""strawberry.png""]","[""strawberry.png""]","[""strawberry.png""]","[""strawberry.png""]",PB17.png,,,,,,,,,,,1,,,,,,,,,,,,,830.4669989474351,,response,,,,,,,,,,,,,4,,,,,,,,,,,,,,,,,,,,,,,,,,,,,,,,,,,,,,,,,,,,,,,,,,,,,,,,,"[""strawberry.png""]","[""praline.png""]",,,,1,right,keydown(ArrowRight),false,,1,,,,,,,737066.004998982,737059.8849989474,736229.418,737049.7950017452,,737895.741,,6,,
square,canvas.Screen,2_4_2_6_1_0_0_0_0_5_3,2021-05-24T16:12:30.088Z,,,blank.png,blank.png,blank.png,blank.png,blank.png,blank.png,blank.png,"[""praline.png""]",blank.png,blank.png,blank.png,blank.png,blank.png,,,,,,,,,,,,,,,,,,,,,,,,,,,,,"[""praline.png""]","[""strawberry.png""]",PB18.png,,,,,,,,,,,0,6,"[""strawberry.png""]","[""strawberry.png""]","[""strawberry.png""]","[""strawberry.png""]","[""strawberry.png""]","[""strawberry.png""]",blank.png,PB18.png,PB17.png,"[""strawberry.png""]","[""strawberry.png""]","[""strawberry.png""]","[""strawberry.png""]","[""strawberry.png""]","[""strawberry.png""]","[""strawberry.png""]","[""strawberry.png""]","[""strawberry.png""]","[""strawberry.png""]","[""strawberry.png""]","[""strawberry.png""]",1,"[""praline.png""]",blank.png,blank.png,blank.png,6,"[""strawberry.png""]","[""strawberry.png""]","[""strawberry.png""]","[""strawberry.png""]","[""strawberry.png""]","[""strawberry.png""]",PB17.png,,,,,,,,,,,1,,,#808080,#33ff3f,,,,,,,,,999.8169999999227,,timeout,,,,,,,,,,,,,4,,,,,,,,,,,,,,,,,,,,,,,,,,,,,,,,,,,,,,,,,,,,,,,,,,,,,,,,,"[""strawberry.png""]","[""praline.png""]",,,,1,,,false,,1,,,,,white,black,738879.4699981809,738878.9,737062.621,737887.0950005949,737895.741,738895.558,,,,
ITI_late,canvas.Screen,2_4_2_6_1_0_0_0_0_5_4,2021-05-24T16:12:30.337Z,,,blank.png,blank.png,blank.png,blank.png,blank.png,blank.png,blank.png,"[""praline.png""]",blank.png,blank.png,blank.png,blank.png,blank.png,,,,,,,,,,,,,,,,,,,,,,,,,,,,,"[""praline.png""]","[""strawberry.png""]",PB18.png,,,,,,,,,,,0,6,"[""strawberry.png""]","[""strawberry.png""]","[""strawberry.png""]","[""strawberry.png""]","[""strawberry.png""]","[""strawberry.png""]",blank.png,PB18.png,PB17.png,"[""strawberry.png""]","[""strawberry.png""]","[""strawberry.png""]","[""strawberry.png""]","[""strawberry.png""]","[""strawberry.png""]","[""strawberry.png""]","[""strawberry.png""]","[""strawberry.png""]","[""strawberry.png""]","[""strawberry.png""]","[""strawberry.png""]",1,"[""praline.png""]",blank.png,blank.png,blank.png,6,"[""strawberry.png""]","[""strawberry.png""]","[""strawberry.png""]","[""strawberry.png""]","[""strawberry.png""]","[""strawberry.png""]",PB17.png,,,,,,,,,,,1,,,,,,,,,,,,,249.9440000000177,,timeout,,,,,,,,,,,,white,4,,,,,,,,,,,,,,,,,,,,,,,,,,,,,,,,,,,,,,,,,,,,,,,,,,,,,,,,,"[""strawberry.png""]","[""praline.png""]",,,,1,,,false,,1,,,,,,,739129.3400004506,739128.83,738878.9,738882.6199993491,738895.558,739145.502,,,,
choice_sequence,flow.Sequence,2_4_2_6_1_0_0_0_0_5,2021-05-24T16:12:30.338Z,,,blank.png,blank.png,blank.png,blank.png,blank.png,blank.png,blank.png,"[""praline.png""]",blank.png,blank.png,blank.png,blank.png,blank.png,,,,,,,,,,,,,,,,,,,,,,,,,,,,,"[""praline.png""]","[""strawberry.png""]",PB18.png,,,,,,,,,,,0,6,"[""strawberry.png""]","[""strawberry.png""]","[""strawberry.png""]","[""strawberry.png""]","[""strawberry.png""]","[""strawberry.png""]",blank.png,PB18.png,PB17.png,"[""strawberry.png""]","[""strawberry.png""]","[""strawberry.png""]","[""strawberry.png""]","[""strawberry.png""]","[""strawberry.png""]","[""strawberry.png""]","[""strawberry.png""]","[""strawberry.png""]","[""strawberry.png""]","[""strawberry.png""]","[""strawberry.png""]",1,"[""praline.png""]",blank.png,blank.png,blank.png,6,"[""strawberry.png""]","[""strawberry.png""]","[""strawberry.png""]","[""strawberry.png""]","[""strawberry.png""]","[""strawberry.png""]",PB17.png,,,,,,,,,,,1,,,,,,,,,,,,,4532.399999999907,,completion,,,,,,,,,,,,,4,,,,,,,,,,,,,,,,,,,,,,,,,,,,,,,,,,,,,,,,,,,,,,,,,,,,,,,,,"[""strawberry.png""]","[""praline.png""]",,,,1,,,false,,1,,,,,,,739129.8150010407,739128.83,734579.764,734584.7099982202,734596.43,739145.502,,,,
fixCross,canvas.Screen,2_4_2_6_1_0_0_0_0_6_0,2021-05-24T16:12:31.087Z,,,blank.png,"[""praline.png""]",blank.png,blank.png,blank.png,blank.png,blank.png,blank.png,blank.png,blank.png,blank.png,blank.png,blank.png,,,,,,,,,,,,,,,,,,,,,,,,,,,,,"[""praline.png""]","[""strawberry.png""]",PB14.png,,,,,,,,,,,0,6,"[""strawberry.png""]","[""strawberry.png""]","[""strawberry.png""]","[""strawberry.png""]","[""strawberry.png""]","[""strawberry.png""]",blank.png,PB18.png,PB18.png,"[""strawberry.png""]","[""strawberry.png""]","[""strawberry.png""]",blank.png,blank.png,blank.png,"[""strawberry.png""]","[""strawberry.png""]","[""strawberry.png""]","[""strawberry.png""]","[""strawberry.png""]","[""strawberry.png""]",1,"[""praline.png""]",blank.png,blank.png,blank.png,3,"[""strawberry.png""]","[""strawberry.png""]","[""strawberry.png""]",blank.png,blank.png,blank.png,PB14.png,,,,,,,,,,,1,,,,,,,,,,,,,1449.7060000000056,,timeout,,,,,,,,,,,,,3,,,,,,,,,,,,,,,,,,,,,,,,,,,,,,,,,,,,,,,,,,,,,,,,,,,,,,,,,"[""strawberry.png""]","[""praline.png""]",,,,1,,,false,,1,,,,,,,739879.2450018227,739878.718,739128.83,739134.3300007284,739145.502,740595.208,7,,,
timeout,canvas.Screen,2_4_2_6_1_0_0_0_0_6_1,2021-05-24T16:12:32.287Z,,,blank.png,"[""praline.png""]",blank.png,blank.png,blank.png,blank.png,blank.png,blank.png,blank.png,blank.png,blank.png,blank.png,blank.png,,,,,,,,,,,,,,,,,,,,,,,,,,,,,"[""praline.png""]","[""strawberry.png""]",PB14.png,,,,,,,,,,,0,6,"[""strawberry.png""]","[""strawberry.png""]","[""strawberry.png""]","[""strawberry.png""]","[""strawberry.png""]","[""strawberry.png""]",blank.png,PB18.png,PB18.png,"[""strawberry.png""]","[""strawberry.png""]","[""strawberry.png""]",blank.png,blank.png,blank.png,"[""strawberry.png""]","[""strawberry.png""]","[""strawberry.png""]","[""strawberry.png""]","[""strawberry.png""]","[""strawberry.png""]",1,"[""praline.png""]",blank.png,blank.png,blank.png,3,"[""strawberry.png""]","[""strawberry.png""]","[""strawberry.png""]",blank.png,blank.png,blank.png,PB14.png,,,,,,,,,,,1,,,,,,,,,,,,,1183.0960000000196,,timeout,,,,,,,,,,,,,3,,,,,,,,,,,,,,,,,,,,,,,,,,,,,,,,,,,,,,,,,,,,,,,,,,,,,,,,,"[""strawberry.png""]","[""praline.png""]",,,,1,,,false,,1,,,,,,,741078.9549984038,741078.448,739878.718,740604.5349985361,740595.208,741778.304,,,,
choice,canvas.Screen,2_4_2_6_1_0_0_0_0_6_2,2021-05-24T16:12:34.296Z,,,blank.png,"[""praline.png""]",blank.png,blank.png,blank.png,blank.png,blank.png,blank.png,blank.png,blank.png,blank.png,blank.png,blank.png,,,,,,,,,,,,,,,,,,,,,,,,,,,,,"[""praline.png""]","[""strawberry.png""]",PB14.png,,,,,,,,,,,0,6,"[""strawberry.png""]","[""strawberry.png""]","[""strawberry.png""]","[""strawberry.png""]","[""strawberry.png""]","[""strawberry.png""]",blank.png,PB18.png,PB18.png,"[""strawberry.png""]","[""strawberry.png""]","[""strawberry.png""]",blank.png,blank.png,blank.png,"[""strawberry.png""]","[""strawberry.png""]","[""strawberry.png""]","[""strawberry.png""]","[""strawberry.png""]","[""strawberry.png""]",1,"[""praline.png""]",blank.png,blank.png,blank.png,3,"[""strawberry.png""]","[""strawberry.png""]","[""strawberry.png""]",blank.png,blank.png,blank.png,PB14.png,,,,,,,,,,,1,,,,,,,,,,,,,1309.0610014400445,,response,,,,,,,,,,,,,3,,,,,,,,,,,,,,,,,,,,,,,,,,,,,,,,,,,,,,,,,,,,,,,,,,,,,,,,,"[""strawberry.png""]","[""praline.png""]",,,,1,left,keydown(ArrowLeft),false,,1,,,,,,,743088.3000008762,743087.36500144,741078.448,741766.2600018084,741778.304,743827.902,,7,,
square,canvas.Screen,2_4_2_6_1_0_0_0_0_6_3,2021-05-24T16:12:36.020Z,,,blank.png,"[""praline.png""]",blank.png,blank.png,blank.png,blank.png,blank.png,blank.png,blank.png,blank.png,blank.png,blank.png,blank.png,,,,,,,,,,,,,,,,,,,,,,,,,,,,,"[""praline.png""]","[""strawberry.png""]",PB14.png,,,,,,,,,,,0,6,"[""strawberry.png""]","[""strawberry.png""]","[""strawberry.png""]","[""strawberry.png""]","[""strawberry.png""]","[""strawberry.png""]",blank.png,PB18.png,PB18.png,"[""strawberry.png""]","[""strawberry.png""]","[""strawberry.png""]",blank.png,blank.png,blank.png,"[""strawberry.png""]","[""strawberry.png""]","[""strawberry.png""]","[""strawberry.png""]","[""strawberry.png""]","[""strawberry.png""]",1,"[""praline.png""]",blank.png,blank.png,blank.png,3,"[""strawberry.png""]","[""strawberry.png""]","[""strawberry.png""]",blank.png,blank.png,blank.png,PB14.png,,,,,,,,,,,1,,,#33ff3f,#808080,,,,,,,,,999.8059999999823,,timeout,,,,,,,,,,,,,3,,,,,,,,,,,,,,,,,,,,,,,,,,,,,,,,,,,,,,,,,,,,,,,,,,,,,,,,,"[""strawberry.png""]","[""praline.png""]",,,,1,,,false,,1,,,,,black,white,744811.7399998009,744811.014,743811.437,743820.3749991953,743827.902,744827.708,,,,
ITI_late,canvas.Screen,2_4_2_6_1_0_0_0_0_6_4,2021-05-24T16:12:37.269Z,,,blank.png,"[""praline.png""]",blank.png,blank.png,blank.png,blank.png,blank.png,blank.png,blank.png,blank.png,blank.png,blank.png,blank.png,,,,,,,,,,,,,,,,,,,,,,,,,,,,,"[""praline.png""]","[""strawberry.png""]",PB14.png,,,,,,,,,,,0,6,"[""strawberry.png""]","[""strawberry.png""]","[""strawberry.png""]","[""strawberry.png""]","[""strawberry.png""]","[""strawberry.png""]",blank.png,PB18.png,PB18.png,"[""strawberry.png""]","[""strawberry.png""]","[""strawberry.png""]",blank.png,blank.png,blank.png,"[""strawberry.png""]","[""strawberry.png""]","[""strawberry.png""]","[""strawberry.png""]","[""strawberry.png""]","[""strawberry.png""]",1,"[""praline.png""]",blank.png,blank.png,blank.png,3,"[""strawberry.png""]","[""strawberry.png""]","[""strawberry.png""]",blank.png,blank.png,blank.png,PB14.png,,,,,,,,,,,1,,,,,,,,,,,,,1283.0600000000559,,timeout,,,,,,,,,,,,white,3,,,,,,,,,,,,,,,,,,,,,,,,,,,,,,,,,,,,,,,,,,,,,,,,,,,,,,,,,"[""strawberry.png""]","[""praline.png""]",,,,1,,,false,,1,,,,,,,746061.2599998713,746060.761,744811.014,744816.3149990141,744827.708,746110.768,,,,
choice_sequence,flow.Sequence,2_4_2_6_1_0_0_0_0_6,2021-05-24T16:12:37.270Z,,,blank.png,"[""praline.png""]",blank.png,blank.png,blank.png,blank.png,blank.png,blank.png,blank.png,blank.png,blank.png,blank.png,blank.png,,,,,,,,,,,,,,,,,,,,,,,,,,,,,"[""praline.png""]","[""strawberry.png""]",PB14.png,,,,,,,,,,,0,6,"[""strawberry.png""]","[""strawberry.png""]","[""strawberry.png""]","[""strawberry.png""]","[""strawberry.png""]","[""strawberry.png""]",blank.png,PB18.png,PB18.png,"[""strawberry.png""]","[""strawberry.png""]","[""strawberry.png""]",blank.png,blank.png,blank.png,"[""strawberry.png""]","[""strawberry.png""]","[""strawberry.png""]","[""strawberry.png""]","[""strawberry.png""]","[""strawberry.png""]",1,"[""praline.png""]",blank.png,blank.png,blank.png,3,"[""strawberry.png""]","[""strawberry.png""]","[""strawberry.png""]",blank.png,blank.png,blank.png,PB14.png,,,,,,,,,,,1,,,,,,,,,,,,,6915.259000000078,,completion,,,,,,,,,,,,,3,,,,,,,,,,,,,,,,,,,,,,,,,,,,,,,,,,,,,,,,,,,,,,,,,,,,,,,,,"[""strawberry.png""]","[""praline.png""]",,,,1,,,false,,1,,,,,,,746061.7149993777,746060.761,739128.83,739133.3049982786,739145.502,746110.768,,,,
choice_loop,flow.Loop,2_4_2_6_1_0_0_0_0,2021-05-24T16:12:37.270Z,,,,,,,,,,,,,,,,,,,,,,,,,,,,,,,,,,,,,,,,,,,,"[""praline.png""]","[""strawberry.png""]",,,,,,,,,,,,,,,,,,,,,,,,,,,,,,,,,,,,,,,,,,,,,,,,,,,,,,,,,,,,,,,,,,,,,,,45657.402,,completion,,,,,,,,,,,,,,,,,,,,,,,,,,,,,,,,,,,,,,,,,,,,,,,,,,,,,,,,,,,,,,,,,,,,,,"[""strawberry.png""]","[""praline.png""]",,,,1,,,false,,,,,,,,,746062.0599985123,746060.761,700353.37,700404.9099981785,700403.359,746110.768,,,,
choice_frame,html.Frame,2_4_2_6_1_0_0_0,2021-05-24T16:12:37.270Z,,,,,,,,,,,,,,,,,,,,,,,,,,,,,,,,,,,,,,,,,,,,,,,,,,,,,,,,,,,,,,,,,,,,,,,,,,,,,,,,,,,,,,,,,,,,,,,,,,,,,,,,,,,,,,,,,,,,45658.810998884146,,,,,,,,,,,,,,,,,,,,,,,,,,,,,,,,,,,,,,,,,,,,,,,,,,,,,,,,,,,,,,,,,,,,,,,,,,,,,1,,,false,,,,,,,,,746062.3250007629,746062.1699988842,700353.37,700358.5500009358,700403.359,746127.415,,,,
sublock_1,flow.Sequence,2_4_2_6_1_0_0,2021-05-24T16:12:37.271Z,,,,,,,,,,,,,,,,,,,,,,,,,,,,,,,,,,,,,,,,,,,,,,,,,,,,,,,,,,,,,,,,,,,,,,,,,,,,,,,,,,,,,,,,,,,,,,,,,,,,,,,,,,,,,,,,,,,,45658.810998884146,,completion,,,,,,,,,,,,,,,,,,,,,,,,,,,,,,,,,,,,,,,,,,,,,,,,,,,,,,,,,,,,,,,,,,,,,,,,,,,1,,,false,,,,,,,,,746062.4700002372,746062.1699988842,700353.37,700358.4700003266,700403.359,746127.415,,,,
fixCross,canvas.Screen,2_4_2_6_1_0_1_0_0_0_0,2021-05-24T16:12:38.019Z,,,blank.png,blank.png,blank.png,blank.png,blank.png,blank.png,blank.png,"[""praline.png""]",blank.png,blank.png,blank.png,blank.png,blank.png,,,,,,,,,,,,,,,,,,,,,,,,,,,,,"[""praline.png""]","[""strawberry.png""]",PB18.png,,,,,,,,,,,0,6,"[""strawberry.png""]","[""strawberry.png""]","[""strawberry.png""]","[""strawberry.png""]","[""strawberry.png""]","[""strawberry.png""]",blank.png,PB18.png,PB07.png,"[""strawberry.png""]","[""strawberry.png""]","[""strawberry.png""]","[""strawberry.png""]","[""strawberry.png""]","[""strawberry.png""]","[""strawberry.png""]",blank.png,blank.png,blank.png,blank.png,blank.png,1,"[""praline.png""]",blank.png,blank.png,blank.png,1,"[""strawberry.png""]",blank.png,blank.png,blank.png,blank.png,blank.png,PB07.png,,,,,,,,,,,1,,,,,,,,,,,,,1399.738000000012,,timeout,,,,,,,,,,,,,4,,,,,,,,,,,,,,,,,,,,,,,,,,,,,,,,,,,,,,,,,,,,,,,,,,,,,,,,,"[""strawberry.png""]","[""praline.png""]",,,,4,,,false,,1,,,,,,,746811.1050017178,746810.626,746110.768,746112.1050007641,746127.415,747527.153,8,,,
timeout,canvas.Screen,2_4_2_6_1_0_1_0_0_0_1,2021-05-24T16:12:39.219Z,,,blank.png,blank.png,blank.png,blank.png,blank.png,blank.png,blank.png,"[""praline.png""]",blank.png,blank.png,blank.png,blank.png,blank.png,,,,,,,,,,,,,,,,,,,,,,,,,,,,,"[""praline.png""]","[""strawberry.png""]",PB18.png,,,,,,,,,,,0,6,"[""strawberry.png""]","[""strawberry.png""]","[""strawberry.png""]","[""strawberry.png""]","[""strawberry.png""]","[""strawberry.png""]",blank.png,PB18.png,PB07.png,"[""strawberry.png""]","[""strawberry.png""]","[""strawberry.png""]","[""strawberry.png""]","[""strawberry.png""]","[""strawberry.png""]","[""strawberry.png""]",blank.png,blank.png,blank.png,blank.png,blank.png,1,"[""praline.png""]",blank.png,blank.png,blank.png,1,"[""strawberry.png""]",blank.png,blank.png,blank.png,blank.png,blank.png,PB07.png,,,,,,,,,,,1,,,,,,,,,,,,,1166.4299999999348,,timeout,,,,,,,,,,,,,4,,,,,,,,,,,,,,,,,,,,,,,,,,,,,,,,,,,,,,,,,,,,,,,,,,,,,,,,,"[""strawberry.png""]","[""praline.png""]",,,,4,,,false,,1,,,,,,,748010.8999982476,748010.388,746810.626,747484.5650009811,747527.153,748693.583,,,,
choice,canvas.Screen,2_4_2_6_1_0_1_0_0_0_2,2021-05-24T16:12:40.167Z,,,blank.png,blank.png,blank.png,blank.png,blank.png,blank.png,blank.png,"[""praline.png""]",blank.png,blank.png,blank.png,blank.png,blank.png,,,,,,,,,,,,,,,,,,,,,,,,,,,,,"[""praline.png""]","[""strawberry.png""]",PB18.png,,,,,,,,,,,0,6,"[""strawberry.png""]","[""strawberry.png""]","[""strawberry.png""]","[""strawberry.png""]","[""strawberry.png""]","[""strawberry.png""]",blank.png,PB18.png,PB07.png,"[""strawberry.png""]","[""strawberry.png""]","[""strawberry.png""]","[""strawberry.png""]","[""strawberry.png""]","[""strawberry.png""]","[""strawberry.png""]",blank.png,blank.png,blank.png,blank.png,blank.png,1,"[""praline.png""]",blank.png,blank.png,blank.png,1,"[""strawberry.png""]",blank.png,blank.png,blank.png,blank.png,blank.png,PB07.png,,,,,,,,,,,1,,,,,,,,,,,,,263.7769994182745,,response,,,,,,,,,,,,,4,,,,,,,,,,,,,,,,,,,,,,,,,,,,,,,,,,,,,,,,,,,,,,,,,,,,,,,,,"[""strawberry.png""]","[""praline.png""]",,,,4,left,keydown(ArrowLeft),false,,1,,,,,,,748958.9050002396,748957.3599994183,748010.388,748691.8849982321,748693.583,749726.72,,8,,
square,canvas.Screen,2_4_2_6_1_0_1_0_0_0_3,2021-05-24T16:12:41.919Z,,,blank.png,blank.png,blank.png,blank.png,blank.png,blank.png,blank.png,"[""praline.png""]",blank.png,blank.png,blank.png,blank.png,blank.png,,,,,,,,,,,,,,,,,,,,,,,,,,,,,"[""praline.png""]","[""strawberry.png""]",PB18.png,,,,,,,,,,,0,6,"[""strawberry.png""]","[""strawberry.png""]","[""strawberry.png""]","[""strawberry.png""]","[""strawberry.png""]","[""strawberry.png""]",blank.png,PB18.png,PB07.png,"[""strawberry.png""]","[""strawberry.png""]","[""strawberry.png""]","[""strawberry.png""]","[""strawberry.png""]","[""strawberry.png""]","[""strawberry.png""]",blank.png,blank.png,blank.png,blank.png,blank.png,1,"[""praline.png""]",blank.png,blank.png,blank.png,1,"[""strawberry.png""]",blank.png,blank.png,blank.png,blank.png,blank.png,PB07.png,,,,,,,,,,,1,,,#33ff3f,#808080,,,,,,,,,999.783000000054,,timeout,,,,,,,,,,,,,4,,,,,,,,,,,,,,,,,,,,,,,,,,,,,,,,,,,,,,,,,,,,,,,,,,,,,,,,,"[""strawberry.png""]","[""praline.png""]",,,,4,,,false,,1,,,,,black,white,750710.4800008237,750709.837,749676.801,749692.919999361,749726.72,750726.503,,,,
ITI_late,canvas.Screen,2_4_2_6_1_0_1_0_0_0_4,2021-05-24T16:12:42.168Z,,,blank.png,blank.png,blank.png,blank.png,blank.png,blank.png,blank.png,"[""praline.png""]",blank.png,blank.png,blank.png,blank.png,blank.png,,,,,,,,,,,,,,,,,,,,,,,,,,,,,"[""praline.png""]","[""strawberry.png""]",PB18.png,,,,,,,,,,,0,6,"[""strawberry.png""]","[""strawberry.png""]","[""strawberry.png""]","[""strawberry.png""]","[""strawberry.png""]","[""strawberry.png""]",blank.png,PB18.png,PB07.png,"[""strawberry.png""]","[""strawberry.png""]","[""strawberry.png""]","[""strawberry.png""]","[""strawberry.png""]","[""strawberry.png""]","[""strawberry.png""]",blank.png,blank.png,blank.png,blank.png,blank.png,1,"[""praline.png""]",blank.png,blank.png,blank.png,1,"[""strawberry.png""]",blank.png,blank.png,blank.png,blank.png,blank.png,PB07.png,,,,,,,,,,,1,,,,,,,,,,,,,249.93699999991804,,timeout,,,,,,,,,,,,white,4,,,,,,,,,,,,,,,,,,,,,,,,,,,,,,,,,,,,,,,,,,,,,,,,,,,,,,,,,"[""strawberry.png""]","[""praline.png""]",,,,4,,,false,,1,,,,,,,750960.2899998426,750959.771,750709.837,750712.4850004911,750726.503,750976.44,,,,
choice_sequence,flow.Sequence,2_4_2_6_1_0_1_0_0_0,2021-05-24T16:12:42.169Z,,,blank.png,blank.png,blank.png,blank.png,blank.png,blank.png,blank.png,"[""praline.png""]",blank.png,blank.png,blank.png,blank.png,blank.png,,,,,,,,,,,,,,,,,,,,,,,,,,,,,"[""praline.png""]","[""strawberry.png""]",PB18.png,,,,,,,,,,,0,6,"[""strawberry.png""]","[""strawberry.png""]","[""strawberry.png""]","[""strawberry.png""]","[""strawberry.png""]","[""strawberry.png""]",blank.png,PB18.png,PB07.png,"[""strawberry.png""]","[""strawberry.png""]","[""strawberry.png""]","[""strawberry.png""]","[""strawberry.png""]","[""strawberry.png""]","[""strawberry.png""]",blank.png,blank.png,blank.png,blank.png,blank.png,1,"[""praline.png""]",blank.png,blank.png,blank.png,1,"[""strawberry.png""]",blank.png,blank.png,blank.png,blank.png,blank.png,PB07.png,,,,,,,,,,,1,,,,,,,,,,,,,4832.3559999999125,,completion,,,,,,,,,,,,,4,,,,,,,,,,,,,,,,,,,,,,,,,,,,,,,,,,,,,,,,,,,,,,,,,,,,,,,,,"[""strawberry.png""]","[""praline.png""]",,,,4,,,false,,1,,,,,,,750960.8099982142,750959.771,746110.768,746111.0100001097,746127.415,750976.44,,,,
fixCross,canvas.Screen,2_4_2_6_1_0_1_0_0_1_0,2021-05-24T16:12:42.668Z,,,blank.png,"[""praline.png""]",blank.png,blank.png,blank.png,blank.png,blank.png,blank.png,blank.png,blank.png,blank.png,blank.png,blank.png,,,,,,,,,,,,,,,,,,,,,,,,,,,,,"[""praline.png""]","[""strawberry.png""]",PB12.png,,,,,,,,,,,0,6,"[""strawberry.png""]","[""strawberry.png""]","[""strawberry.png""]","[""strawberry.png""]","[""strawberry.png""]","[""strawberry.png""]",blank.png,PB18.png,PB18.png,"[""strawberry.png""]","[""strawberry.png""]",blank.png,blank.png,blank.png,blank.png,"[""strawberry.png""]","[""strawberry.png""]","[""strawberry.png""]","[""strawberry.png""]","[""strawberry.png""]","[""strawberry.png""]",1,"[""praline.png""]",blank.png,blank.png,blank.png,2,"[""strawberry.png""]","[""strawberry.png""]",blank.png,blank.png,blank.png,blank.png,PB12.png,,,,,,,,,,,1,,,,,,,,,,,,,1183.1080000000075,,timeout,,,,,,,,,,,,,3,,,,,,,,,,,,,,,,,,,,,,,,,,,,,,,,,,,,,,,,,,,,,,,,,,,,,,,,,"[""strawberry.png""]","[""praline.png""]",,,,4,,,false,,1,,,,,,,751460.2000005543,751459.671,750959.771,750966.4350003004,750976.44,752159.548,9,,,
timeout,canvas.Screen,2_4_2_6_1_0_1_0_0_1_1,2021-05-24T16:12:43.852Z,,,blank.png,"[""praline.png""]",blank.png,blank.png,blank.png,blank.png,blank.png,blank.png,blank.png,blank.png,blank.png,blank.png,blank.png,,,,,,,,,,,,,,,,,,,,,,,,,,,,,"[""praline.png""]","[""strawberry.png""]",PB12.png,,,,,,,,,,,0,6,"[""strawberry.png""]","[""strawberry.png""]","[""strawberry.png""]","[""strawberry.png""]","[""strawberry.png""]","[""strawberry.png""]",blank.png,PB18.png,PB18.png,"[""strawberry.png""]","[""strawberry.png""]",blank.png,blank.png,blank.png,blank.png,"[""strawberry.png""]","[""strawberry.png""]","[""strawberry.png""]","[""strawberry.png""]","[""strawberry.png""]","[""strawberry.png""]",1,"[""praline.png""]",blank.png,blank.png,blank.png,2,"[""strawberry.png""]","[""strawberry.png""]",blank.png,blank.png,blank.png,blank.png,PB12.png,,,,,,,,,,,1,,,,,,,,,,,,,1333.0590000000084,,timeout,,,,,,,,,,,,,3,,,,,,,,,,,,,,,,,,,,,,,,,,,,,,,,,,,,,,,,,,,,,,,,,,,,,,,,,"[""strawberry.png""]","[""praline.png""]",,,,4,,,false,,1,,,,,,,752643.5450017452,752642.78,751459.671,752138.8249993324,752159.548,753492.607,,,,
choice,canvas.Screen,2_4_2_6_1_0_1_0_0_1_2,2021-05-24T16:12:44.925Z,,,blank.png,"[""praline.png""]",blank.png,blank.png,blank.png,blank.png,blank.png,blank.png,blank.png,blank.png,blank.png,blank.png,blank.png,,,,,,,,,,,,,,,,,,,,,,,,,,,,,"[""praline.png""]","[""strawberry.png""]",PB12.png,,,,,,,,,,,0,6,"[""strawberry.png""]","[""strawberry.png""]","[""strawberry.png""]","[""strawberry.png""]","[""strawberry.png""]","[""strawberry.png""]",blank.png,PB18.png,PB18.png,"[""strawberry.png""]","[""strawberry.png""]",blank.png,blank.png,blank.png,blank.png,"[""strawberry.png""]","[""strawberry.png""]","[""strawberry.png""]","[""strawberry.png""]","[""strawberry.png""]","[""strawberry.png""]",1,"[""praline.png""]",blank.png,blank.png,blank.png,2,"[""strawberry.png""]","[""strawberry.png""]",blank.png,blank.png,blank.png,blank.png,PB12.png,,,,,,,,,,,1,,,,,,,,,,,,,222.67300012044143,,response,,,,,,,,,,,,,3,,,,,,,,,,,,,,,,,,,,,,,,,,,,,,,,,,,,,,,,,,,,,,,,,,,,,,,,,"[""strawberry.png""]","[""praline.png""]",,,,4,left,keydown(ArrowLeft),false,,1,,,,,,,753716.5450006723,753715.2800001204,752642.78,753490.3750009835,753492.607,754559.067,,9,,
square,canvas.Screen,2_4_2_6_1_0_1_0_0_1_3,2021-05-24T16:12:46.751Z,,,blank.png,"[""praline.png""]",blank.png,blank.png,blank.png,blank.png,blank.png,blank.png,blank.png,blank.png,blank.png,blank.png,blank.png,,,,,,,,,,,,,,,,,,,,,,,,,,,,,"[""praline.png""]","[""strawberry.png""]",PB12.png,,,,,,,,,,,0,6,"[""strawberry.png""]","[""strawberry.png""]","[""strawberry.png""]","[""strawberry.png""]","[""strawberry.png""]","[""strawberry.png""]",blank.png,PB18.png,PB18.png,"[""strawberry.png""]","[""strawberry.png""]",blank.png,blank.png,blank.png,blank.png,"[""strawberry.png""]","[""strawberry.png""]","[""strawberry.png""]","[""strawberry.png""]","[""strawberry.png""]","[""strawberry.png""]",1,"[""praline.png""]",blank.png,blank.png,blank.png,2,"[""strawberry.png""]","[""strawberry.png""]",blank.png,blank.png,blank.png,blank.png,PB12.png,,,,,,,,,,,1,,,#33ff3f,#808080,,,,,,,,,999.7909999999683,,timeout,,,,,,,,,,,,,3,,,,,,,,,,,,,,,,,,,,,,,,,,,,,,,,,,,,,,,,,,,,,,,,,,,,,,,,,"[""strawberry.png""]","[""praline.png""]",,,,4,,,false,,1,,,,,black,white,755542.9549999535,755542.191,754525.86,754531.1250016093,754559.067,755558.858,,,,
ITI_late,canvas.Screen,2_4_2_6_1_0_1_0_0_1_4,2021-05-24T16:12:48.001Z,,,blank.png,"[""praline.png""]",blank.png,blank.png,blank.png,blank.png,blank.png,blank.png,blank.png,blank.png,blank.png,blank.png,blank.png,,,,,,,,,,,,,,,,,,,,,,,,,,,,,"[""praline.png""]","[""strawberry.png""]",PB12.png,,,,,,,,,,,0,6,"[""strawberry.png""]","[""strawberry.png""]","[""strawberry.png""]","[""strawberry.png""]","[""strawberry.png""]","[""strawberry.png""]",blank.png,PB18.png,PB18.png,"[""strawberry.png""]","[""strawberry.png""]",blank.png,blank.png,blank.png,blank.png,"[""strawberry.png""]","[""strawberry.png""]","[""strawberry.png""]","[""strawberry.png""]","[""strawberry.png""]","[""strawberry.png""]",1,"[""praline.png""]",blank.png,blank.png,blank.png,2,"[""strawberry.png""]","[""strawberry.png""]",blank.png,blank.png,blank.png,blank.png,PB12.png,,,,,,,,,,,1,,,,,,,,,,,,,1249.7439999999478,,timeout,,,,,,,,,,,,white,3,,,,,,,,,,,,,,,,,,,,,,,,,,,,,,,,,,,,,,,,,,,,,,,,,,,,,,,,,"[""strawberry.png""]","[""praline.png""]",,,,4,,,false,,1,,,,,,,756792.4700006843,756791.944,755542.191,755545.9299981594,755558.858,756808.602,,,,
choice_sequence,flow.Sequence,2_4_2_6_1_0_1_0_0_1,2021-05-24T16:12:48.001Z,,,blank.png,"[""praline.png""]",blank.png,blank.png,blank.png,blank.png,blank.png,blank.png,blank.png,blank.png,blank.png,blank.png,blank.png,,,,,,,,,,,,,,,,,,,,,,,,,,,,,"[""praline.png""]","[""strawberry.png""]",PB12.png,,,,,,,,,,,0,6,"[""strawberry.png""]","[""strawberry.png""]","[""strawberry.png""]","[""strawberry.png""]","[""strawberry.png""]","[""strawberry.png""]",blank.png,PB18.png,PB18.png,"[""strawberry.png""]","[""strawberry.png""]",blank.png,blank.png,blank.png,blank.png,"[""strawberry.png""]","[""strawberry.png""]","[""strawberry.png""]","[""strawberry.png""]","[""strawberry.png""]","[""strawberry.png""]",1,"[""praline.png""]",blank.png,blank.png,blank.png,2,"[""strawberry.png""]","[""strawberry.png""]",blank.png,blank.png,blank.png,blank.png,PB12.png,,,,,,,,,,,1,,,,,,,,,,,,,5815.504000000074,,completion,,,,,,,,,,,,,3,,,,,,,,,,,,,,,,,,,,,,,,,,,,,,,,,,,,,,,,,,,,,,,,,,,,,,,,,"[""strawberry.png""]","[""praline.png""]",,,,4,,,false,,1,,,,,,,756793.0000014603,756791.944,750959.771,750964.8349992931,750976.44,756808.602,,,,
fixCross,canvas.Screen,2_4_2_6_1_0_1_0_0_2_0,2021-05-24T16:12:48.351Z,,,blank.png,blank.png,blank.png,blank.png,blank.png,blank.png,blank.png,"[""praline.png""]",blank.png,blank.png,blank.png,blank.png,blank.png,,,,,,,,,,,,,,,,,,,,,,,,,,,,,"[""praline.png""]","[""strawberry.png""]",PB18.png,,,,,,,,,,,0,6,"[""strawberry.png""]","[""strawberry.png""]","[""strawberry.png""]","[""strawberry.png""]","[""strawberry.png""]","[""strawberry.png""]",blank.png,PB18.png,PB16.png,"[""strawberry.png""]","[""strawberry.png""]","[""strawberry.png""]","[""strawberry.png""]","[""strawberry.png""]","[""strawberry.png""]","[""strawberry.png""]","[""strawberry.png""]","[""strawberry.png""]","[""strawberry.png""]","[""strawberry.png""]",blank.png,1,"[""praline.png""]",blank.png,blank.png,blank.png,5,"[""strawberry.png""]","[""strawberry.png""]","[""strawberry.png""]","[""strawberry.png""]","[""strawberry.png""]",blank.png,PB16.png,,,,,,,,,,,1,,,,,,,,,,,,,1416.4400000000605,,timeout,,,,,,,,,,,,,4,,,,,,,,,,,,,,,,,,,,,,,,,,,,,,,,,,,,,,,,,,,,,,,,,,,,,,,,,"[""strawberry.png""]","[""praline.png""]",,,,4,,,false,,1,,,,,,,757142.5199992955,757141.857,756791.944,756797.974999994,756808.602,758225.042,10,,,
