sender,sender_type,sender_id,timestamp,meta,,Blank,DownLeft1,DownLeft2,DownLeft3,DownLeft4,DownLeft5,DownLeft6,DownRight1,DownRight2,DownRight3,DownRight4,DownRight5,DownRight6,FoodHabits_Fru_item1,FoodHabits_Fru_item2,FoodHabits_Fru_item3,FoodHabits_Fru_item4,FoodHabits_Fru_item5,FoodHabits_Fru_item6,FoodHabits_Fru_item7,FoodHabits_Meat_item1,FoodHabits_Meat_item2,FoodHabits_Meat_item3,FoodHabits_Meat_item4,FoodHabits_Meat_item5,FoodHabits_Meat_item6,FoodHabits_Meat_item7,FoodHabits_Swe_item1,FoodHabits_Swe_item2,FoodHabits_Swe_item3,FoodHabits_Swe_item4,FoodHabits_Swe_item5,FoodHabits_Swe_item6,FoodHabits_Swe_item7,FoodHabits_Veg_item1,FoodHabits_Veg_item2,FoodHabits_Veg_item3,FoodHabits_Veg_item4,FoodHabits_Veg_item5,FoodHabits_Veg_item6,FoodHabits_Veg_item7,ImgA,ImgB,LeftBar,PSS_item01,PSS_item02,PSS_item03,PSS_item04,PSS_item05,PSS_item06,PSS_item07,PSS_item08,PSS_item09,PSS_item10,RefA,RefB,RefB1,RefB2,RefB3,RefB4,RefB5,RefB6,RefB7,Ref_PB,RightBar,UpLeft1,UpLeft2,UpLeft3,UpLeft4,UpLeft5,UpLeft6,UpRight1,UpRight2,UpRight3,UpRight4,UpRight5,UpRight6,VarA,VarA1,VarA2,VarA3,VarA4,VarB,VarB1,VarB2,VarB3,VarB4,VarB5,VarB6,Var_PB,attCheck_fileA,attCheck_fileB,attCheck_fileC,attCheck_fileD,attCheck_options,attCheck_valueA,attCheck_valueB,attCheck_valueC,attCheck_valueD,attention_check,block,browser_name,choseL,choseR,consent_form1,consent_form2,consentconfirmation_form1,consentconfirmation_form2,correct,correctResponse,diet,disorder,duration,edu,ended_on,enjoy,full_version,gender,group,hunger,img,imgTask,input_age,input_meal,input_occ,input_remark,lateRespFeed,list,major_version,message,mixQ_item1,mixQ_item2,mixQ_item3,mixQ_item4,mixQ_item5,name,navigator_appName,navigator_userAgent,os,pracQ1_IDa,pracQ1_IDb,pracQ1_IDc,pracQ1_IDd,pracQ1_optionA,pracQ1_optionB,pracQ1_optionC,pracQ1_optionD,pracQ1_valueA,pracQ1_valueB,pracQ1_valueC,pracQ1_valueD,pracQ2_IDa,pracQ2_IDb,pracQ2_IDc,pracQ2_optionA,pracQ2_optionB,pracQ2_optionC,pracQ2_valueA,pracQ2_valueB,pracQ2_valueC,pracQ4_IDa,pracQ4_IDb,pracQ4_IDc,pracQ4_IDd,pracQ4_optionA,pracQ4_optionB,pracQ4_optionC,pracQ4_optionD,pracQ4_valueA,pracQ4_valueB,pracQ4_valueC,pracQ4_valueD,pracQ5_IDa,pracQ5_IDb,pracQ5_IDc,pracQ5_IDd,pracQ5_optionA,pracQ5_optionB,pracQ5_optionC,pracQ5_optionD,pracQ5_valueA,pracQ5_valueB,pracQ5_valueC,pracQ5_valueD,prefHealty,prefUnhealthy,prolific_ID,psessionID,pstudyID,rep,response,response_action,skip,snack,sublock,subtitle,task_difficulty,task_engagement,task_focus,textL,textR,time_commit,time_end,time_render,time_run,time_show,time_switch,trial_count,trial_countO,url,valence
Title,html.Page,0,2021-01-15T13:08:35.601Z,"{""labjs_version"":""20.1.1"",""labjs_build"":{""flavor"":""production"",""commit"":""c48ac4ada3769e8d34489594ab03097d5f256ac7""},""location"":""https://run.pavlovia.org/E3lab/rebund/html/?PROLIFIC_PID={{%PROLIFIC_PID%}}&STUDY_ID={{%STUDY_ID%}}&SESSION_ID={{%SESSION_ID%}}"",""userAgent"":""Mozilla/5.0 (Windows NT 6.1; Win64; x64) AppleWebKit/537.36 (KHTML, like Gecko) Chrome/87.0.4280.141 Safari/537.36"",""platform"":""Win32"",""language"":""pl-PL"",""locale"":""pl"",""timeZone"":""Europe/Warsaw"",""timezoneOffset"":-60,""screen_width"":1920,""screen_height"":1080,""scroll_width"":1920,""scroll_height"":926,""window_innerWidth"":1920,""window_innerHeight"":974,""devicePixelRatio"":1}",,,,,,,,,,,,,,,,,,,,,,,,,,,,,,,,,,,,,,,,,,,,,,,,,,,,,,,,,,,,,,,,,,,,,,,,,,,,,,,,,,,,,,,,,,,,,,,,,,,,,,,,,,,,,,,,,,10727.540999999945,,form submission,,,,,,,,,,,,,,,,,,,,,,,,,,,,,,,,,,,,,,,,,,,,,,,,,,,,,,,,,,,,,,,,,,,,,,,,,,,,,,,,,,,,,,,12543.964999999844,12543.609999999944,1799.403,1794.149999999945,1816.069,12548.973,,,"{""PROLIFIC_PID"":""{{%PROLIFIC_PID%}}"",""STUDY_ID"":""{{%STUDY_ID%}}"",""SESSION_ID"":""{{%SESSION_ID%}}""}",
get_systemInfo,canvas.Screen,1,2021-01-15T13:08:35.612Z,,,,,,,,,,,,,,,,,,,,,,,,,,,,,,,,,,,,,,,,,,,,,,,,,,,,,,,,,,,,,,,,,,,,,,,,,,,,,,,,,,,,,,,,,,,,,,,,,,,,,,,,Chrome,,,,,,,,,,,60364.25200000001,,timeout,,87.0.4280.141,,,,,,,,,,,,87,,,,,,,,Netscape,"Mozilla/5.0 (Windows NT 6.1; Win64; x64) AppleWebKit/537.36 (KHTML, like Gecko) Chrome/87.0.4280.141 Safari/537.36",Windows,,,,,,,,,,,,,,,,,,,,,,,,,,,,,,,,,,,,,,,,,,,,,,,,{{%PROLIFIC_PID%}},,{{%STUDY_ID%}},,,,,,,,,,,,,12554.964999999811,12554.709999999886,12532.307,12544.949999999972,12548.973,72913.225,,,,
ConsentForm,html.Form,2_0,2021-01-15T13:10:25.655Z,,,,,,,,,,,,,,,,,,,,,,,,,,,,,,,,,,,,,,,,,,,,,,,,,,,,,,,,,,,,,,,,,,,,,,,,,,,,,,,,,,,,,,,,,,,,,,,,,,,,,,,,,,,true,true,,,,,,,49684.76499999997,,form submission,,,,,,,,,,,,,,,,,,,,,,,,,,,,,,,,,,,,,,,,,,,,,,,,,,,,,,,,,,,,,,,,,,,,,,,,,,,,,,,,,,,,,,,122598.19999999991,122597.98999999998,12554.709999999886,72928.04999999999,72913.225,122611.237,,,,
PepTalk,html.Page,2_1,2021-01-15T13:12:21.178Z,,,,,,,,,,,,,,,,,,,,,,,,,,,,,,,,,,,,,,,,,,,,,,,,,,,,,,,,,,,,,,,,,,,,,,,,,,,,,,,,,,,,,,,,,,,,,,,,,,,,,,,,,,,,,,,,,,,115508.59799999997,,form submission,,,,,,,,,,,,,,,,,,,,,,,,,,,,,,,,,,,,,,,,,,,,,,,,,,,,,,,,,,,,,,,,,,,,,,,,,,,,,,,,,,,,,,,238120.05499999988,238119.83499999996,122594.571,122598.31999999983,122611.237,238123.283,,,,
Demographics,html.Form,2_2,2021-01-15T13:13:42.864Z,,,,,,,,,,,,,,,,,,,,,,,,,,,,,,,,,,,,,,,,,,,,,,,,,,,,,,,,,,,,,,,,,,,,,,,,,,,,,,,,,,,,,,,,,,,,,,,,,,,,,,,,,,,,,,,,,,,81681.80199999997,3,form submission,,,2,,,,,33,,Dental Technician,,,,,,,,,,,,,,,,,,,,,,,,,,,,,,,,,,,,,,,,,,,,,,,,,,,,,,,,,,,,,,,,,,,,,,,,,,,,,319805.29000000004,319805.08499999996,238106.617,238120.17999999988,238123.283,319820.015,,,,
InclusionCrit,html.Form,2_3,2021-01-15T13:14:06.977Z,,,,,,,,,,,,,,,,,,,,,,,,,,,,,,,,,,,,,,,,,,,,,,,,,,,,,,,,,,,,,,,,,,,,,,,,,,,,,,,,,,,,,,,,,,,,,,,,,,,,,,,,,,,,,,,,,1,1,24098.420000000042,,form submission,0,,,,,,,,,,,,,,,,,,,,,,,,,,,,,,,,,,,,,,,,,,,,,,,,,,,,,,,,,,,,,,,,,,,,,,,,,,,,,,,,,,,,,,343918.6299999999,343918.43500000006,319803.349,319805.48499999987,319820.015,343919.051,,,,
Selection,html.Page,2_4_0,2021-01-15T13:14:32.311Z,,,,,,,,,,,,,,,,,,,,,,,,,,,,,,,,,,,,,,,,,,,,,,,,,,,,,,,,,,,,,,,,,,,,,,,,,,,,,,,,,,,,,,,,,,,,,,,,,,,,,,,,,,,,,,,,,,,25332.958999999973,,form submission,,,,,,,,,,,,,,,,,,,,,,,,,,,,,,,,,,,,,,,,,,,,,,,,,,,,,,,,,,,,,,,,,,,,,,,,,,,,,,,0,,,,,,,,369252.1999999999,369252.00999999995,343902.385,343918.82499999995,343919.051,369268.037,,,,
Load,html.Page,2_4_1,2021-01-15T13:14:32.327Z,,,,,,,,,,,,,,,,,,,,,,,,,,,,,,,,,,,,,,,,,,,,,,,,,,,,,,,,,,,,,,,,,,,,,,,,,,,,,,,,,,,,,,,,,,,,,,,,,,,,,,,,,,,,,,,,,,,9616.282000000007,,timeout,,,,,,,,,,,,,,,,,,,,,,,,,,,,,,,,,,,,,,,,,,,,,,,,,,,,,,,,,,,,,,,,,,,,,,,,,,,,,,,,,,,,,,,369268.69999999984,369268.49500000005,369251.371,369252.33,369268.037,378884.319,,,,
ratings_instructions,html.Screen,2_4_2_0,2021-01-15T13:15:10.292Z,,,,,,,,,,,,,,,,,,,,,,,,,,,,,,,,,,,,,,,,,,,,,,,,,,,,,,,,,,,,,,,,,,,,,,,,,,,,,,,,,,,,,,,,,,,,,,,,,,,,,,,,,,,,,,,,,,,28348.201,,response,,,,,,,,,,,,,,,,,,,,,,,,,,,,,,,,,,,,,,,,,,,,,,,,,,,,,,,,,,,,,,,,,,,,,,,,,,,,continue,keypress(Space),false,,,,,,,,,407234.1199999998,407232.52,369268.49500000005,378917.72500000003,378884.319,407233.185,0,0,,
fixCross,canvas.Screen,2_4_2_1_0_0,2021-01-15T13:15:10.776Z,,,,,,,,,,,,,,,,,,,,,,,,,,,,,,,,,,,,,,,,,,,,,,,,,,,,,,,,,,,,,,,,,,,,,,,,,,,,,,,,,,,,,,,,,,,,,,,,,,,,,,,,,,,,,,,,,,,499.9799999999814,,timeout,,,,healthy,,blueberry.png,,,,,,,,,,,,,,,blueberry,,,,,,,,,,,,,,,,,,,,,,,,,,,,,,,,,,,,,,,,,,,,,,,,,,,,,,,,,false,,,,,,,,,407717.63499999995,407716.499,407216.519,407234.3799999999,407233.185,407733.165,,,,
Rating,html.Form,2_4_2_1_0_1,2021-01-15T13:15:19.765Z,,,,,,,,,,,,,,,,,,,,,,,,,,,,,,,,,,,,,,,,,,,,,,,,,,,,,,,,,,,,,,,,,,,,,,,,,,,,,,,,,,,,,,,,,,,,,,,,,,,,,,,,,,,,,,,,,,,8973.169999999867,,form submission,,,,healthy,,blueberry.png,,,,,,,,,,,,,,,blueberry,,,,,,,,,,,,,,,,,,,,,,,,,,,,,,,,,,,,,,,,,,,,,,,,,,,,,,,,,false,,,,,,,,,416706.56499999994,416706.33499999985,407716.499,407717.76,407733.165,416716.139,,,,76
rating_sequence,flow.Sequence,2_4_2_1_0,2021-01-15T13:15:19.765Z,,,,,,,,,,,,,,,,,,,,,,,,,,,,,,,,,,,,,,,,,,,,,,,,,,,,,,,,,,,,,,,,,,,,,,,,,,,,,,,,,,,,,,,,,,,,,,,,,,,,,,,,,,,,,,,,,,,9473.149999999849,,completion,,,,healthy,,blueberry.png,,,,,,,,,,,,,,,blueberry,,,,,,,,,,,,,,,,,,,,,,,,,,,,,,,,,,,,,,,,,,,,,,,,,,,,,,,,,false,,,,,,,,,416706.83499999996,416706.33499999985,407216.519,407234.33999999997,407233.185,416716.139,,,,
fixCross,canvas.Screen,2_4_2_1_1_0,2021-01-15T13:15:20.258Z,,,,,,,,,,,,,,,,,,,,,,,,,,,,,,,,,,,,,,,,,,,,,,,,,,,,,,,,,,,,,,,,,,,,,,,,,,,,,,,,,,,,,,,,,,,,,,,,,,,,,,,,,,,,,,,,,,,499.9799999999814,,timeout,,,,healthy,,grape.png,,,,,,,,,,,,,,,grape,,,,,,,,,,,,,,,,,,,,,,,,,,,,,,,,,,,,,,,,,,,,,,,,,,,,,,,,,false,,,,,,,,,417200.065,417199.453,416699.473,416706.96499999985,416716.139,417216.119,,,,
Rating,html.Form,2_4_2_1_1_1,2021-01-15T13:15:27.310Z,,,,,,,,,,,,,,,,,,,,,,,,,,,,,,,,,,,,,,,,,,,,,,,,,,,,,,,,,,,,,,,,,,,,,,,,,,,,,,,,,,,,,,,,,,,,,,,,,,,,,,,,,,,,,,,,,,,7034.785999999847,,form submission,,,,healthy,,grape.png,,,,,,,,,,,,,,,grape,,,,,,,,,,,,,,,,,,,,,,,,,,,,,,,,,,,,,,,,,,,,,,,,,,,,,,,,,false,,,,,,,,,424251.1300000001,424250.90499999985,417199.453,417200.16999999987,417216.119,424265.837,,,,26
rating_sequence,flow.Sequence,2_4_2_1_1,2021-01-15T13:15:27.310Z,,,,,,,,,,,,,,,,,,,,,,,,,,,,,,,,,,,,,,,,,,,,,,,,,,,,,,,,,,,,,,,,,,,,,,,,,,,,,,,,,,,,,,,,,,,,,,,,,,,,,,,,,,,,,,,,,,,7534.765999999829,,completion,,,,healthy,,grape.png,,,,,,,,,,,,,,,grape,,,,,,,,,,,,,,,,,,,,,,,,,,,,,,,,,,,,,,,,,,,,,,,,,,,,,,,,,false,,,,,,,,,424251.3300000001,424250.90499999985,416699.473,416706.93000000005,416716.139,424265.837,,,,
fixCross,canvas.Screen,2_4_2_1_2_0,2021-01-15T13:15:27.809Z,,,,,,,,,,,,,,,,,,,,,,,,,,,,,,,,,,,,,,,,,,,,,,,,,,,,,,,,,,,,,,,,,,,,,,,,,,,,,,,,,,,,,,,,,,,,,,,,,,,,,,,,,,,,,,,,,,,499.9799999999814,,timeout,,,,healthy,,cherry.png,,,,,,,,,,,,,,,cherry,,,,,,,,,,,,,,,,,,,,,,,,,,,,,,,,,,,,,,,,,,,,,,,,,,,,,,,,,false,,,,,,,,,424750.415,424749.151,424249.171,424251.4499999997,424265.837,424765.817,,,,
Rating,html.Form,2_4_2_1_2_1,2021-01-15T13:15:31.560Z,,,,,,,,,,,,,,,,,,,,,,,,,,,,,,,,,,,,,,,,,,,,,,,,,,,,,,,,,,,,,,,,,,,,,,,,,,,,,,,,,,,,,,,,,,,,,,,,,,,,,,,,,,,,,,,,,,,3735.0929999997607,,form submission,,,,healthy,,cherry.png,,,,,,,,,,,,,,,cherry,,,,,,,,,,,,,,,,,,,,,,,,,,,,,,,,,,,,,,,,,,,,,,,,,,,,,,,,,false,,,,,,,,,428501.0750000001,428500.90999999974,424749.151,424750.50999999983,424765.817,428515.667,,,,42
rating_sequence,flow.Sequence,2_4_2_1_2,2021-01-15T13:15:31.560Z,,,,,,,,,,,,,,,,,,,,,,,,,,,,,,,,,,,,,,,,,,,,,,,,,,,,,,,,,,,,,,,,,,,,,,,,,,,,,,,,,,,,,,,,,,,,,,,,,,,,,,,,,,,,,,,,,,,4235.072999999742,,completion,,,,healthy,,cherry.png,,,,,,,,,,,,,,,cherry,,,,,,,,,,,,,,,,,,,,,,,,,,,,,,,,,,,,,,,,,,,,,,,,,,,,,,,,,false,,,,,,,,,428501.205,428500.90999999974,424249.171,424251.41499999975,424265.837,428515.667,,,,
fixCross,canvas.Screen,2_4_2_1_3_0,2021-01-15T13:15:32.058Z,,,,,,,,,,,,,,,,,,,,,,,,,,,,,,,,,,,,,,,,,,,,,,,,,,,,,,,,,,,,,,,,,,,,,,,,,,,,,,,,,,,,,,,,,,,,,,,,,,,,,,,,,,,,,,,,,,,499.9799999999814,,timeout,,,,unhealthy,,praline.png,,,,,,,,,,,,,,,praline,,,,,,,,,,,,,,,,,,,,,,,,,,,,,,,,,,,,,,,,,,,,,,,,,,,,,,,,,false,,,,,,,,,428999.73999999976,428998.981,428499.001,428501.315,428515.667,429015.647,,,,
Rating,html.Form,2_4_2_1_3_1,2021-01-15T13:15:38.808Z,,,,,,,,,,,,,,,,,,,,,,,,,,,,,,,,,,,,,,,,,,,,,,,,,,,,,,,,,,,,,,,,,,,,,,,,,,,,,,,,,,,,,,,,,,,,,,,,,,,,,,,,,,,,,,,,,,,6733.468000000052,,form submission,,,,unhealthy,,praline.png,,,,,,,,,,,,,,,praline,,,,,,,,,,,,,,,,,,,,,,,,,,,,,,,,,,,,,,,,,,,,,,,,,,,,,,,,,false,,,,,,,,,435749.3049999998,435749.11500000005,428998.981,428999.87999999983,429015.647,435765.377,,,,58
rating_sequence,flow.Sequence,2_4_2_1_3,2021-01-15T13:15:38.808Z,,,,,,,,,,,,,,,,,,,,,,,,,,,,,,,,,,,,,,,,,,,,,,,,,,,,,,,,,,,,,,,,,,,,,,,,,,,,,,,,,,,,,,,,,,,,,,,,,,,,,,,,,,,,,,,,,,,7233.448000000033,,completion,,,,unhealthy,,praline.png,,,,,,,,,,,,,,,praline,,,,,,,,,,,,,,,,,,,,,,,,,,,,,,,,,,,,,,,,,,,,,,,,,,,,,,,,,false,,,,,,,,,435749.45500000013,435749.11500000005,428499.001,428501.2849999998,428515.667,435765.377,,,,
fixCross,canvas.Screen,2_4_2_1_4_0,2021-01-15T13:15:39.309Z,,,,,,,,,,,,,,,,,,,,,,,,,,,,,,,,,,,,,,,,,,,,,,,,,,,,,,,,,,,,,,,,,,,,,,,,,,,,,,,,,,,,,,,,,,,,,,,,,,,,,,,,,,,,,,,,,,,499.9800000000396,,timeout,,,,unhealthy,,m&m.png,,,,,,,,,,,,,,,m&m,,,,,,,,,,,,,,,,,,,,,,,,,,,,,,,,,,,,,,,,,,,,,,,,,,,,,,,,,false,,,,,,,,,436249.98000000004,436248.691,435748.711,435749.56500000006,435765.377,436265.357,,,,
Rating,html.Form,2_4_2_1_4_1,2021-01-15T13:15:45.952Z,,,,,,,,,,,,,,,,,,,,,,,,,,,,,,,,,,,,,,,,,,,,,,,,,,,,,,,,,,,,,,,,,,,,,,,,,,,,,,,,,,,,,,,,,,,,,,,,,,,,,,,,,,,,,,,,,,,6627.467999999877,,form submission,,,,unhealthy,,m&m.png,,,,,,,,,,,,,,,m&m,,,,,,,,,,,,,,,,,,,,,,,,,,,,,,,,,,,,,,,,,,,,,,,,,,,,,,,,,false,,,,,,,,,442892.9899999998,442892.8249999999,436248.691,436250.07000000007,436265.357,442898.425,,,,45
rating_sequence,flow.Sequence,2_4_2_1_4,2021-01-15T13:15:45.952Z,,,,,,,,,,,,,,,,,,,,,,,,,,,,,,,,,,,,,,,,,,,,,,,,,,,,,,,,,,,,,,,,,,,,,,,,,,,,,,,,,,,,,,,,,,,,,,,,,,,,,,,,,,,,,,,,,,,7127.447999999917,,completion,,,,unhealthy,,m&m.png,,,,,,,,,,,,,,,m&m,,,,,,,,,,,,,,,,,,,,,,,,,,,,,,,,,,,,,,,,,,,,,,,,,,,,,,,,,false,,,,,,,,,442893.14000000013,442892.8249999999,435748.711,435749.5349999999,435765.377,442898.425,,,,
fixCross,canvas.Screen,2_4_2_1_5_0,2021-01-15T13:15:46.441Z,,,,,,,,,,,,,,,,,,,,,,,,,,,,,,,,,,,,,,,,,,,,,,,,,,,,,,,,,,,,,,,,,,,,,,,,,,,,,,,,,,,,,,,,,,,,,,,,,,,,,,,,,,,,,,,,,,,499.9800000000396,,timeout,,,,healthy,,raspberry.png,,,,,,,,,,,,,,,raspberry,,,,,,,,,,,,,,,,,,,,,,,,,,,,,,,,,,,,,,,,,,,,,,,,,,,,,,,,,false,,,,,,,,,443382.4300000001,443381.739,442881.759,442893.235,442898.425,443398.405,,,,
Rating,html.Form,2_4_2_1_5_1,2021-01-15T13:15:50.591Z,,,,,,,,,,,,,,,,,,,,,,,,,,,,,,,,,,,,,,,,,,,,,,,,,,,,,,,,,,,,,,,,,,,,,,,,,,,,,,,,,,,,,,,,,,,,,,,,,,,,,,,,,,,,,,,,,,,4134.294999999693,,form submission,,,,healthy,,raspberry.png,,,,,,,,,,,,,,,raspberry,,,,,,,,,,,,,,,,,,,,,,,,,,,,,,,,,,,,,,,,,,,,,,,,,,,,,,,,,false,,,,,,,,,447532.90000000014,447532.6999999997,443381.739,443382.5649999999,443398.405,447548.239,,,,56
rating_sequence,flow.Sequence,2_4_2_1_5,2021-01-15T13:15:50.592Z,,,,,,,,,,,,,,,,,,,,,,,,,,,,,,,,,,,,,,,,,,,,,,,,,,,,,,,,,,,,,,,,,,,,,,,,,,,,,,,,,,,,,,,,,,,,,,,,,,,,,,,,,,,,,,,,,,,4634.274999999732,,completion,,,,healthy,,raspberry.png,,,,,,,,,,,,,,,raspberry,,,,,,,,,,,,,,,,,,,,,,,,,,,,,,,,,,,,,,,,,,,,,,,,,,,,,,,,,false,,,,,,,,,447533.0549999999,447532.6999999997,442881.759,442893.20999999973,442898.425,447548.239,,,,
fixCross,canvas.Screen,2_4_2_1_6_0,2021-01-15T13:15:51.091Z,,,,,,,,,,,,,,,,,,,,,,,,,,,,,,,,,,,,,,,,,,,,,,,,,,,,,,,,,,,,,,,,,,,,,,,,,,,,,,,,,,,,,,,,,,,,,,,,,,,,,,,,,,,,,,,,,,,499.9799999999814,,timeout,,,,unhealthy,,candy.png,,,,,,,,,,,,,,,candy,,,,,,,,,,,,,,,,,,,,,,,,,,,,,,,,,,,,,,,,,,,,,,,,,,,,,,,,,false,,,,,,,,,448032.41500000015,448031.553,447531.573,447533.1649999998,447548.239,448048.219,,,,
Rating,html.Form,2_4_2_1_6_1,2021-01-15T13:15:58.993Z,,,,,,,,,,,,,,,,,,,,,,,,,,,,,,,,,,,,,,,,,,,,,,,,,,,,,,,,,,,,,,,,,,,,,,,,,,,,,,,,,,,,,,,,,,,,,,,,,,,,,,,,,,,,,,,,,,,7886.475999999966,,form submission,,,,unhealthy,,candy.png,,,,,,,,,,,,,,,candy,,,,,,,,,,,,,,,,,,,,,,,,,,,,,,,,,,,,,,,,,,,,,,,,,,,,,,,,,false,,,,,,,,,455934.8399999999,455934.69499999995,448031.553,448032.51,448048.219,455947.903,,,,4
rating_sequence,flow.Sequence,2_4_2_1_6,2021-01-15T13:15:58.994Z,,,,,,,,,,,,,,,,,,,,,,,,,,,,,,,,,,,,,,,,,,,,,,,,,,,,,,,,,,,,,,,,,,,,,,,,,,,,,,,,,,,,,,,,,,,,,,,,,,,,,,,,,,,,,,,,,,,8386.455999999947,,completion,,,,unhealthy,,candy.png,,,,,,,,,,,,,,,candy,,,,,,,,,,,,,,,,,,,,,,,,,,,,,,,,,,,,,,,,,,,,,,,,,,,,,,,,,false,,,,,,,,,455934.9649999999,455934.69499999995,447531.573,447533.1350000001,447548.239,455947.903,,,,
fixCross,canvas.Screen,2_4_2_1_7_0,2021-01-15T13:15:59.491Z,,,,,,,,,,,,,,,,,,,,,,,,,,,,,,,,,,,,,,,,,,,,,,,,,,,,,,,,,,,,,,,,,,,,,,,,,,,,,,,,,,,,,,,,,,,,,,,,,,,,,,,,,,,,,,,,,,,499.9799999999814,,timeout,,,,healthy,,orange.png,,,,,,,,,,,,,,,orange,,,,,,,,,,,,,,,,,,,,,,,,,,,,,,,,,,,,,,,,,,,,,,,,,,,,,,,,,false,,,,,,,,,456432.04000000015,456431.217,455931.237,455935.0599999998,455947.903,456447.883,,,,
Rating,html.Form,2_4_2_1_7_1,2021-01-15T13:16:09.061Z,,,,,,,,,,,,,,,,,,,,,,,,,,,,,,,,,,,,,,,,,,,,,,,,,,,,,,,,,,,,,,,,,,,,,,,,,,,,,,,,,,,,,,,,,,,,,,,,,,,,,,,,,,,,,,,,,,,9554.742000000086,,form submission,,,,healthy,,orange.png,,,,,,,,,,,,,,,orange,,,,,,,,,,,,,,,,,,,,,,,,,,,,,,,,,,,,,,,,,,,,,,,,,,,,,,,,,false,,,,,,,,,466002.80999999994,466002.62500000006,456431.217,456432.1799999998,456447.883,466014.167,,,,28
rating_sequence,flow.Sequence,2_4_2_1_7,2021-01-15T13:16:09.062Z,,,,,,,,,,,,,,,,,,,,,,,,,,,,,,,,,,,,,,,,,,,,,,,,,,,,,,,,,,,,,,,,,,,,,,,,,,,,,,,,,,,,,,,,,,,,,,,,,,,,,,,,,,,,,,,,,,,10054.722000000067,,completion,,,,healthy,,orange.png,,,,,,,,,,,,,,,orange,,,,,,,,,,,,,,,,,,,,,,,,,,,,,,,,,,,,,,,,,,,,,,,,,,,,,,,,,false,,,,,,,,,466002.96500000014,466002.62500000006,455931.237,455935.035,455947.903,466014.167,,,,
fixCross,canvas.Screen,2_4_2_1_8_0,2021-01-15T13:16:09.557Z,,,,,,,,,,,,,,,,,,,,,,,,,,,,,,,,,,,,,,,,,,,,,,,,,,,,,,,,,,,,,,,,,,,,,,,,,,,,,,,,,,,,,,,,,,,,,,,,,,,,,,,,,,,,,,,,,,,499.9799999999814,,timeout,,,,healthy,,strawberry.png,,,,,,,,,,,,,,,strawberry,,,,,,,,,,,,,,,,,,,,,,,,,,,,,,,,,,,,,,,,,,,,,,,,,,,,,,,,,false,,,,,,,,,466498.47999999975,466497.481,465997.501,466003.0699999998,466014.167,466514.147,,,,
Rating,html.Form,2_4_2_1_8_1,2021-01-15T13:16:12.821Z,,,,,,,,,,,,,,,,,,,,,,,,,,,,,,,,,,,,,,,,,,,,,,,,,,,,,,,,,,,,,,,,,,,,,,,,,,,,,,,,,,,,,,,,,,,,,,,,,,,,,,,,,,,,,,,,,,,3248.358000000124,,form submission,,,,healthy,,strawberry.png,,,,,,,,,,,,,,,strawberry,,,,,,,,,,,,,,,,,,,,,,,,,,,,,,,,,,,,,,,,,,,,,,,,,,,,,,,,,false,,,,,,,,,469762.65000000014,469762.5050000001,466497.481,466498.57500000007,466514.147,469764.017,,,,76
rating_sequence,flow.Sequence,2_4_2_1_8,2021-01-15T13:16:12.821Z,,,,,,,,,,,,,,,,,,,,,,,,,,,,,,,,,,,,,,,,,,,,,,,,,,,,,,,,,,,,,,,,,,,,,,,,,,,,,,,,,,,,,,,,,,,,,,,,,,,,,,,,,,,,,,,,,,,3748.3380000001052,,completion,,,,healthy,,strawberry.png,,,,,,,,,,,,,,,strawberry,,,,,,,,,,,,,,,,,,,,,,,,,,,,,,,,,,,,,,,,,,,,,,,,,,,,,,,,,false,,,,,,,,,469762.77500000014,469762.5050000001,465997.501,466003.03499999974,466014.167,469764.017,,,,
fixCross,canvas.Screen,2_4_2_1_9_0,2021-01-15T13:16:13.307Z,,,,,,,,,,,,,,,,,,,,,,,,,,,,,,,,,,,,,,,,,,,,,,,,,,,,,,,,,,,,,,,,,,,,,,,,,,,,,,,,,,,,,,,,,,,,,,,,,,,,,,,,,,,,,,,,,,,499.9799999999814,,timeout,,,,healthy,,coconut.png,,,,,,,,,,,,,,,coconut,,,,,,,,,,,,,,,,,,,,,,,,,,,,,,,,,,,,,,,,,,,,,,,,,,,,,,,,,false,,,,,,,,,470248.7299999998,470247.331,469747.351,469762.86500000017,469764.017,470263.997,,,,
Rating,html.Form,2_4_2_1_9_1,2021-01-15T13:16:17.577Z,,,,,,,,,,,,,,,,,,,,,,,,,,,,,,,,,,,,,,,,,,,,,,,,,,,,,,,,,,,,,,,,,,,,,,,,,,,,,,,,,,,,,,,,,,,,,,,,,,,,,,,,,,,,,,,,,,,4254.387999999861,,form submission,,,,healthy,,coconut.png,,,,,,,,,,,,,,,coconut,,,,,,,,,,,,,,,,,,,,,,,,,,,,,,,,,,,,,,,,,,,,,,,,,,,,,,,,,false,,,,,,,,,474518.5849999998,474518.38499999983,470247.331,470248.8699999999,470263.997,474530.493,,,,68
rating_sequence,flow.Sequence,2_4_2_1_9,2021-01-15T13:16:17.577Z,,,,,,,,,,,,,,,,,,,,,,,,,,,,,,,,,,,,,,,,,,,,,,,,,,,,,,,,,,,,,,,,,,,,,,,,,,,,,,,,,,,,,,,,,,,,,,,,,,,,,,,,,,,,,,,,,,,4754.367999999842,,completion,,,,healthy,,coconut.png,,,,,,,,,,,,,,,coconut,,,,,,,,,,,,,,,,,,,,,,,,,,,,,,,,,,,,,,,,,,,,,,,,,,,,,,,,,false,,,,,,,,,474518.7449999999,474518.38499999983,469747.351,469762.83999999985,469764.017,474530.493,,,,
fixCross,canvas.Screen,2_4_2_1_10_0,2021-01-15T13:16:18.074Z,,,,,,,,,,,,,,,,,,,,,,,,,,,,,,,,,,,,,,,,,,,,,,,,,,,,,,,,,,,,,,,,,,,,,,,,,,,,,,,,,,,,,,,,,,,,,,,,,,,,,,,,,,,,,,,,,,,499.9799999999814,,timeout,,,,unhealthy,,chocolate_truffle.png,,,,,,,,,,,,,,,chocolate truffle,,,,,,,,,,,,,,,,,,,,,,,,,,,,,,,,,,,,,,,,,,,,,,,,,,,,,,,,,false,,,,,,,,,475014.9550000001,475013.807,474513.827,474518.8549999998,474530.493,475030.473,,,,
Rating,html.Form,2_4_2_1_10_1,2021-01-15T13:16:22.587Z,,,,,,,,,,,,,,,,,,,,,,,,,,,,,,,,,,,,,,,,,,,,,,,,,,,,,,,,,,,,,,,,,,,,,,,,,,,,,,,,,,,,,,,,,,,,,,,,,,,,,,,,,,,,,,,,,,,4498.107000000135,,form submission,,,,unhealthy,,chocolate_truffle.png,,,,,,,,,,,,,,,chocolate truffle,,,,,,,,,,,,,,,,,,,,,,,,,,,,,,,,,,,,,,,,,,,,,,,,,,,,,,,,,false,,,,,,,,,479528.73999999976,479528.58000000013,475013.807,475015.05,475030.473,479530.293,,,,92
rating_sequence,flow.Sequence,2_4_2_1_10,2021-01-15T13:16:22.588Z,,,,,,,,,,,,,,,,,,,,,,,,,,,,,,,,,,,,,,,,,,,,,,,,,,,,,,,,,,,,,,,,,,,,,,,,,,,,,,,,,,,,,,,,,,,,,,,,,,,,,,,,,,,,,,,,,,,4998.087000000116,,completion,,,,unhealthy,,chocolate_truffle.png,,,,,,,,,,,,,,,chocolate truffle,,,,,,,,,,,,,,,,,,,,,,,,,,,,,,,,,,,,,,,,,,,,,,,,,,,,,,,,,false,,,,,,,,,479529.215,479528.58000000013,474513.827,474518.8199999998,474530.493,479530.293,,,,
fixCross,canvas.Screen,2_4_2_1_11_0,2021-01-15T13:16:23.073Z,,,,,,,,,,,,,,,,,,,,,,,,,,,,,,,,,,,,,,,,,,,,,,,,,,,,,,,,,,,,,,,,,,,,,,,,,,,,,,,,,,,,,,,,,,,,,,,,,,,,,,,,,,,,,,,,,,,499.9799999999814,,timeout,,,,unhealthy,,gummybear.png,,,,,,,,,,,,,,,gummybear,,,,,,,,,,,,,,,,,,,,,,,,,,,,,,,,,,,,,,,,,,,,,,,,,,,,,,,,,false,,,,,,,,,480014.1899999999,480013.607,479513.627,479529.3649999999,479530.293,480030.273,,,,
Rating,html.Form,2_4_2_1_11_1,2021-01-15T13:16:27.097Z,,,,,,,,,,,,,,,,,,,,,,,,,,,,,,,,,,,,,,,,,,,,,,,,,,,,,,,,,,,,,,,,,,,,,,,,,,,,,,,,,,,,,,,,,,,,,,,,,,,,,,,,,,,,,,,,,,,4007.986999999848,,form submission,,,,unhealthy,,gummybear.png,,,,,,,,,,,,,,,gummybear,,,,,,,,,,,,,,,,,,,,,,,,,,,,,,,,,,,,,,,,,,,,,,,,,,,,,,,,,false,,,,,,,,,484038.4549999999,484038.25999999983,480013.607,480014.32999999996,480030.273,484046.779,,,,1
rating_sequence,flow.Sequence,2_4_2_1_11,2021-01-15T13:16:27.097Z,,,,,,,,,,,,,,,,,,,,,,,,,,,,,,,,,,,,,,,,,,,,,,,,,,,,,,,,,,,,,,,,,,,,,,,,,,,,,,,,,,,,,,,,,,,,,,,,,,,,,,,,,,,,,,,,,,,4507.96699999983,,completion,,,,unhealthy,,gummybear.png,,,,,,,,,,,,,,,gummybear,,,,,,,,,,,,,,,,,,,,,,,,,,,,,,,,,,,,,,,,,,,,,,,,,,,,,,,,,false,,,,,,,,,484038.61000000004,484038.25999999983,479513.627,479529.32499999995,479530.293,484046.779,,,,
fixCross,canvas.Screen,2_4_2_1_12_0,2021-01-15T13:16:27.590Z,,,,,,,,,,,,,,,,,,,,,,,,,,,,,,,,,,,,,,,,,,,,,,,,,,,,,,,,,,,,,,,,,,,,,,,,,,,,,,,,,,,,,,,,,,,,,,,,,,,,,,,,,,,,,,,,,,,499.9800000000396,,timeout,,,,unhealthy,,marshmallow.png,,,,,,,,,,,,,,,marshmallow,,,,,,,,,,,,,,,,,,,,,,,,,,,,,,,,,,,,,,,,,,,,,,,,,,,,,,,,,false,,,,,,,,,484531.32499999995,484530.093,484030.113,484038.7099999998,484046.779,484546.759,,,,
Rating,html.Form,2_4_2_1_12_1,2021-01-15T13:16:31.647Z,,,,,,,,,,,,,,,,,,,,,,,,,,,,,,,,,,,,,,,,,,,,,,,,,,,,,,,,,,,,,,,,,,,,,,,,,,,,,,,,,,,,,,,,,,,,,,,,,,,,,,,,,,,,,,,,,,,4041.6709999997984,,form submission,,,,unhealthy,,marshmallow.png,,,,,,,,,,,,,,,marshmallow,,,,,,,,,,,,,,,,,,,,,,,,,,,,,,,,,,,,,,,,,,,,,,,,,,,,,,,,,false,,,,,,,,,488588.58999999985,488588.4299999998,484530.093,484531.4199999998,484546.759,488596.597,,,,0
rating_sequence,flow.Sequence,2_4_2_1_12,2021-01-15T13:16:31.647Z,,,,,,,,,,,,,,,,,,,,,,,,,,,,,,,,,,,,,,,,,,,,,,,,,,,,,,,,,,,,,,,,,,,,,,,,,,,,,,,,,,,,,,,,,,,,,,,,,,,,,,,,,,,,,,,,,,,4541.650999999838,,completion,,,,unhealthy,,marshmallow.png,,,,,,,,,,,,,,,marshmallow,,,,,,,,,,,,,,,,,,,,,,,,,,,,,,,,,,,,,,,,,,,,,,,,,,,,,,,,,false,,,,,,,,,488588.7250000001,488588.4299999998,484030.113,484038.6800000001,484046.779,488596.597,,,,
fixCross,canvas.Screen,2_4_2_1_13_0,2021-01-15T13:16:32.139Z,,,,,,,,,,,,,,,,,,,,,,,,,,,,,,,,,,,,,,,,,,,,,,,,,,,,,,,,,,,,,,,,,,,,,,,,,,,,,,,,,,,,,,,,,,,,,,,,,,,,,,,,,,,,,,,,,,,499.9799999999814,,timeout,,,,unhealthy,,chocolate.png,,,,,,,,,,,,,,,chocolate,,,,,,,,,,,,,,,,,,,,,,,,,,,,,,,,,,,,,,,,,,,,,,,,,,,,,,,,,false,,,,,,,,,489080.6199999997,489079.911,488579.931,488588.81999999995,488596.597,489096.577,,,,
Rating,html.Form,2_4_2_1_13_1,2021-01-15T13:16:36.681Z,,,,,,,,,,,,,,,,,,,,,,,,,,,,,,,,,,,,,,,,,,,,,,,,,,,,,,,,,,,,,,,,,,,,,,,,,,,,,,,,,,,,,,,,,,,,,,,,,,,,,,,,,,,,,,,,,,,4525.363000000012,,form submission,,,,unhealthy,,chocolate.png,,,,,,,,,,,,,,,chocolate,,,,,,,,,,,,,,,,,,,,,,,,,,,,,,,,,,,,,,,,,,,,,,,,,,,,,,,,,false,,,,,,,,,493622.1299999998,493621.94,489079.911,489080.75499999995,489096.577,493629.729,,,,78
rating_sequence,flow.Sequence,2_4_2_1_13,2021-01-15T13:16:36.681Z,,,,,,,,,,,,,,,,,,,,,,,,,,,,,,,,,,,,,,,,,,,,,,,,,,,,,,,,,,,,,,,,,,,,,,,,,,,,,,,,,,,,,,,,,,,,,,,,,,,,,,,,,,,,,,,,,,,5025.3429999999935,,completion,,,,unhealthy,,chocolate.png,,,,,,,,,,,,,,,chocolate,,,,,,,,,,,,,,,,,,,,,,,,,,,,,,,,,,,,,,,,,,,,,,,,,,,,,,,,,false,,,,,,,,,493622.28,493621.94,488579.931,488588.7899999998,488596.597,493629.729,,,,
fixCross,canvas.Screen,2_4_2_1_14_0,2021-01-15T13:16:37.172Z,,,,,,,,,,,,,,,,,,,,,,,,,,,,,,,,,,,,,,,,,,,,,,,,,,,,,,,,,,,,,,,,,,,,,,,,,,,,,,,,,,,,,,,,,,,,,,,,,,,,,,,,,,,,,,,,,,,499.9799999999814,,timeout,,,,unhealthy,,liqorice.png,,,,,,,,,,,,,,,liquorice,,,,,,,,,,,,,,,,,,,,,,,,,,,,,,,,,,,,,,,,,,,,,,,,,,,,,,,,,false,,,,,,,,,494113.91000000003,494113.043,493613.063,493622.39,493629.729,494129.709,,,,
Rating,html.Form,2_4_2_1_14_1,2021-01-15T13:16:42.265Z,,,,,,,,,,,,,,,,,,,,,,,,,,,,,,,,,,,,,,,,,,,,,,,,,,,,,,,,,,,,,,,,,,,,,,,,,,,,,,,,,,,,,,,,,,,,,,,,,,,,,,,,,,,,,,,,,,,5076.270999999775,,form submission,,,,unhealthy,,liqorice.png,,,,,,,,,,,,,,,liquorice,,,,,,,,,,,,,,,,,,,,,,,,,,,,,,,,,,,,,,,,,,,,,,,,,,,,,,,,,false,,,,,,,,,499206.14500000014,499205.97999999975,494113.043,494114.0099999998,494129.709,499212.839,,,,4
rating_sequence,flow.Sequence,2_4_2_1_14,2021-01-15T13:16:42.265Z,,,,,,,,,,,,,,,,,,,,,,,,,,,,,,,,,,,,,,,,,,,,,,,,,,,,,,,,,,,,,,,,,,,,,,,,,,,,,,,,,,,,,,,,,,,,,,,,,,,,,,,,,,,,,,,,,,,5576.2509999997565,,completion,,,,unhealthy,,liqorice.png,,,,,,,,,,,,,,,liquorice,,,,,,,,,,,,,,,,,,,,,,,,,,,,,,,,,,,,,,,,,,,,,,,,,,,,,,,,,false,,,,,,,,,499206.27999999985,499205.97999999975,493613.063,493622.355,493629.729,499212.839,,,,
fixCross,canvas.Screen,2_4_2_1_15_0,2021-01-15T13:16:42.756Z,,,,,,,,,,,,,,,,,,,,,,,,,,,,,,,,,,,,,,,,,,,,,,,,,,,,,,,,,,,,,,,,,,,,,,,,,,,,,,,,,,,,,,,,,,,,,,,,,,,,,,,,,,,,,,,,,,,499.9800000000396,,timeout,,,,healthy,,apple.png,,,,,,,,,,,,,,,apple,,,,,,,,,,,,,,,,,,,,,,,,,,,,,,,,,,,,,,,,,,,,,,,,,,,,,,,,,false,,,,,,,,,499697.0649999998,499696.153,499196.173,499206.3699999999,499212.839,499712.819,,,,
Rating,html.Form,2_4_2_1_15_1,2021-01-15T13:16:46.453Z,,,,,,,,,,,,,,,,,,,,,,,,,,,,,,,,,,,,,,,,,,,,,,,,,,,,,,,,,,,,,,,,,,,,,,,,,,,,,,,,,,,,,,,,,,,,,,,,,,,,,,,,,,,,,,,,,,,3681.1359999999986,,form submission,,,,healthy,,apple.png,,,,,,,,,,,,,,,apple,,,,,,,,,,,,,,,,,,,,,,,,,,,,,,,,,,,,,,,,,,,,,,,,,,,,,,,,,false,,,,,,,,,503394.1599999998,503393.955,499696.153,499697.20000000007,499712.819,503396.005,,,,97
rating_sequence,flow.Sequence,2_4_2_1_15,2021-01-15T13:16:46.453Z,,,,,,,,,,,,,,,,,,,,,,,,,,,,,,,,,,,,,,,,,,,,,,,,,,,,,,,,,,,,,,,,,,,,,,,,,,,,,,,,,,,,,,,,,,,,,,,,,,,,,,,,,,,,,,,,,,,4181.116000000038,,completion,,,,healthy,,apple.png,,,,,,,,,,,,,,,apple,,,,,,,,,,,,,,,,,,,,,,,,,,,,,,,,,,,,,,,,,,,,,,,,,,,,,,,,,false,,,,,,,,,503394.315,503393.955,499196.173,499206.34500000003,499212.839,503396.005,,,,
fixCross,canvas.Screen,2_4_2_1_16_0,2021-01-15T13:16:46.939Z,,,,,,,,,,,,,,,,,,,,,,,,,,,,,,,,,,,,,,,,,,,,,,,,,,,,,,,,,,,,,,,,,,,,,,,,,,,,,,,,,,,,,,,,,,,,,,,,,,,,,,,,,,,,,,,,,,,499.9799999999814,,timeout,,,,unhealthy,,maltesers.png,,,,,,,,,,,,,,,malteser,,,,,,,,,,,,,,,,,,,,,,,,,,,,,,,,,,,,,,,,,,,,,,,,,,,,,,,,,false,,,,,,,,,503880.32500000007,503879.319,503379.339,503394.4200000001,503396.005,503895.985,,,,
Rating,html.Form,2_4_2_1_16_1,2021-01-15T13:16:52.945Z,,,,,,,,,,,,,,,,,,,,,,,,,,,,,,,,,,,,,,,,,,,,,,,,,,,,,,,,,,,,,,,,,,,,,,,,,,,,,,,,,,,,,,,,,,,,,,,,,,,,,,,,,,,,,,,,,,,5989.964999999851,,form submission,,,,unhealthy,,maltesers.png,,,,,,,,,,,,,,,malteser,,,,,,,,,,,,,,,,,,,,,,,,,,,,,,,,,,,,,,,,,,,,,,,,,,,,,,,,,false,,,,,,,,,509886.16999999975,509885.94999999984,503879.319,503880.42,503895.985,509895.745,,,,28
rating_sequence,flow.Sequence,2_4_2_1_16,2021-01-15T13:16:52.945Z,,,,,,,,,,,,,,,,,,,,,,,,,,,,,,,,,,,,,,,,,,,,,,,,,,,,,,,,,,,,,,,,,,,,,,,,,,,,,,,,,,,,,,,,,,,,,,,,,,,,,,,,,,,,,,,,,,,6489.944999999832,,completion,,,,unhealthy,,maltesers.png,,,,,,,,,,,,,,,malteser,,,,,,,,,,,,,,,,,,,,,,,,,,,,,,,,,,,,,,,,,,,,,,,,,,,,,,,,,false,,,,,,,,,509886.3550000001,509885.94999999984,503379.339,503394.38999999996,503396.005,509895.745,,,,
fixCross,canvas.Screen,2_4_2_1_17_0,2021-01-15T13:16:53.438Z,,,,,,,,,,,,,,,,,,,,,,,,,,,,,,,,,,,,,,,,,,,,,,,,,,,,,,,,,,,,,,,,,,,,,,,,,,,,,,,,,,,,,,,,,,,,,,,,,,,,,,,,,,,,,,,,,,,499.9799999999814,,timeout,,,,healthy,,pear.png,,,,,,,,,,,,,,,pear,,,,,,,,,,,,,,,,,,,,,,,,,,,,,,,,,,,,,,,,,,,,,,,,,,,,,,,,,false,,,,,,,,,510379.735,510379.059,509879.079,509886.4800000001,509895.745,510395.725,,,,
Rating,html.Form,2_4_2_1_17_1,2021-01-15T13:16:58.949Z,,,,,,,,,,,,,,,,,,,,,,,,,,,,,,,,,,,,,,,,,,,,,,,,,,,,,,,,,,,,,,,,,,,,,,,,,,,,,,,,,,,,,,,,,,,,,,,,,,,,,,,,,,,,,,,,,,,5494.234999999986,,form submission,,,,healthy,,pear.png,,,,,,,,,,,,,,,pear,,,,,,,,,,,,,,,,,,,,,,,,,,,,,,,,,,,,,,,,,,,,,,,,,,,,,,,,,false,,,,,,,,,515890.11500000017,515889.95999999996,510379.059,510379.8400000001,510395.725,515895.505,,,,95
rating_sequence,flow.Sequence,2_4_2_1_17,2021-01-15T13:16:58.949Z,,,,,,,,,,,,,,,,,,,,,,,,,,,,,,,,,,,,,,,,,,,,,,,,,,,,,,,,,,,,,,,,,,,,,,,,,,,,,,,,,,,,,,,,,,,,,,,,,,,,,,,,,,,,,,,,,,,5994.214999999967,,completion,,,,healthy,,pear.png,,,,,,,,,,,,,,,pear,,,,,,,,,,,,,,,,,,,,,,,,,,,,,,,,,,,,,,,,,,,,,,,,,,,,,,,,,false,,,,,,,,,515890.23499999987,515889.95999999996,509879.079,509886.44500000007,509895.745,515895.505,,,,
rating_loop,flow.Loop,2_4_2_1,2021-01-15T13:16:58.949Z,,,,,,,,,,,,,,,,,,,,,,,,,,,,,,,,,,,,,,,,,,,,,,,,,,,,,,,,,,,,,,,,,,,,,,,,,,,,,,,,,,,,,,,,,,,,,,,,,,,,,,,,,,,,,,,,,,,108656.77499999997,,completion,,,,,,,,,,,,,,,,,,,,,,,,,,,,,,,,,,,,,,,,,,,,,,,,,,,,,,,,,,,,,,,,,,,,,,,,,,,,,,false,,,,,,,,,515890.37999999983,515889.95999999996,407216.519,407234.31000000006,407233.185,515895.505,,,,
data_transmission,html.Screen,2_4_2_2,2021-01-15T13:16:58.953Z,,,,,,,,,,,,,,,,,,,,,,,,,,,,,,,,,,,,,,,,,,,,,,,,,,,,,,,,,,,,,,,,,,,,,,,,,,,,,,,,,,,,,,,,,,,,,,,,,,,,,,,,,,,,,,,,,,,NaN,,no compatible backend,,,,,,,,,,,,,,,Transferring data,,,,,,,,,,,,,,,,,,,,,,,,,,,,,,,,,,,,,,,,,,,,,,,,,,,,,,,,,,,,,,,false,,,Please wait a second…,,,,,,515894.8850000002,515894.73,,515890.4699999998,,515895.505,,,,
instructions,html.Screen,2_4_2_3,2021-01-15T13:20:23.958Z,,,,,,,,,,,,,,,,,,,,,,,,,,,,,,,,,,,,,,,,,,,,,,,,,,,,,,,,,,,,,,,,,,,,,,,,,,,,,,,,,,,,,,,,,,,,,,,,,,,,,,,,,,,,,,,,,,,205002.58500000008,,done,,,,,,,,,,,,,,,,,,,,,,,,,,,,,,,,,,,,,,,,,,,,,,,,,,,,,,,,,,,,,,,,,,,,,,,,,,,,,,false,,,,,,,,,720898.315,720898.0900000001,515878.839,515895.03000000014,515895.505,720903.971,,,,
Q1,html.Screen,2_4_2_4_0,2021-01-15T13:20:40.748Z,,,,,,,,,,,,,,,,,,,,,,,,,,,,,,,,,,,,,,,,,,,,,,,,,,,,,,,,,,,,,,,,,,,,,,,,,,,,,,,,,,,,,,,,,,,,,,,,,,,,,,,,,,,,,,,false,input_Q1==3,,,16782.02399999986,,response,,,,,,,,,,,,,,,,,,,,,,,,,Q1_i1,Q1_i2,Q1_i4,Q1_i3,1,2,4,3,false,false,false,correct,,,,,,,,,,,,,,,,,,,,,,,,,,,,,,,,,,,,,,,,,click #Q1_i3,false,,,,,,,,,737687.68,737685.9949999999,720887.305,720898.49,720903.971,737686.633,,,,
Q1_correct,html.Screen,2_4_2_4_1,2021-01-15T13:20:43.244Z,,,,,,,,,,,,,,,,,,,,,,,,,,,,,,,,,,,,,,,,,,,,,,,,,,,,,,,,,,,,,,,,,,,,,,,,,,,,,,,,,,,,,,,,,,,,,,,,,,,,,,,,,,,,,,,,,,,2496.571999999811,,response,,,,,,,,,,,,,,,,,,,,,,,,,,,,,,,,,,,,,,,,,,,,,,,,,,,,,,,,,,,,,,,,,,,,,,,,,,,,,keypress,false,,,,,,,,,740183.7449999998,740183.2049999998,737669.967,737687.845,737686.633,740186.533,,,,
Q2,html.Screen,2_4_2_4_2,2021-01-15T13:20:52.415Z,,,,,,,,,,,,,,,,,,,,,,,,,,,,,,,,,,,,,,,,,,,,,,,,,,,,,,,,,,,,,,,,,,,,,,,,,,,,,,,,,,,,,,,,,,,,,,,,,,,,,,,,,,,,,,,,,,,9167.292000000132,,response,,,,,,,,,,,,,,,,,,,,,,,,,,,,,,,,,,,,,Q2_i2,Q2_i1,Q2_i3,Option 2,Option 1,Same amount,opt2,correct,same,,,,,,,,,,,,,,,,,,,,,,,,,,,,,,,,click #Q2_i1,false,,,,,,,,,749354.4849999999,749353.8250000002,740169.867,740183.8600000001,740186.533,749369.499,,,,
Q2_correct,html.Screen,2_4_2_4_3,2021-01-15T13:20:54.268Z,,,,,,,,,,,,,,,,,,,,,,,,,,,,,,,,,,,,,,,,,,,,,,,,,,,,,,,,,,,,,,,,,,,,,,,,,,,,,,,,,,,,,,,,,,,,,,,,,,,,,,,,,,,,,,,,,,,1837.555999999866,,response,,,,,,,,,,,,,,,,,,,,,,,,,,,,,,,,,,,,,,,,,,,,,,,,,,,,,,,,,,,,,,,,,,,,,,,,,,,,,keypress,false,,,,,,,,,751207.5799999997,751207.0549999998,749352.833,749354.6449999999,749369.499,751219.425,,,,
Q4,html.Screen,2_4_2_4_4,2021-01-15T13:21:17.157Z,,,,,,,,,,,,,,,,,,,,,,,,,,,,,,,,,,,,,,,,,,,,,,,,,,,,,,,,,,,,,,,,,,,,,,,,,,,,,,,,,,,,,,,,,,,,,,,,,,,,,,,,,,,,,,,,,,,22876.019999999902,,response,,,,,,,,,,,,,,,,,,,,,,,,,,,,,,,,,,,,,,,,,,,,,,Q4_i2,Q4_i1,Q4_i3,Q4_i4,Indicate the number of food items in each snack option,Press the arrow key that corresponds with the snack option I prefer,Press the arrow key that corresponds with the snack option with more food items,Press the space key,indicate,correct,morefood,pressspace,,,,,,,,,,,,,,,,,,,,click #Q4_i1,false,,,,,,,,,774096.0999999997,774095.445,751202.759,751207.6699999998,751219.425,774101.843,,,,
Q4_correct,html.Screen,2_4_2_4_5,2021-01-15T13:21:19.063Z,,,,,,,,,,,,,,,,,,,,,,,,,,,,,,,,,,,,,,,,,,,,,,,,,,,,,,,,,,,,,,,,,,,,,,,,,,,,,,,,,,,,,,,,,,,,,,,,,,,,,,,,,,,,,,,,,,,1900.60699999996,,response,,,,,,,,,,,,,,,,,,,,,,,,,,,,,,,,,,,,,,,,,,,,,,,,,,,,,,,,,,,,,,,,,,,,,,,,,,,,,keypress,false,,,,,,,,,776002.8849999999,776002.45,774085.177,774096.2650000001,774101.843,776018.433,,,,
Q5,html.Screen,2_4_2_4_6,2021-01-15T13:21:29.744Z,,,,,,,,,,,,,,,,,,,,,,,,,,,,,,,,,,,,,,,,,,,,,,,,,,,,,,,,,,,,,,,,,,,,,,,,,,,,,,,,,,,,,,,,,,,,,,,,,,,,,,,,,,,,,,,,,,,10664.68700000015,,response,,,,,,,,,,,,,,,,,,,,,,,,,,,,,,,,,,,,,,,,,,,,,,,,,,,,,,,,,,Q5_i2,Q5_i4,Q5_i1,Q5_i3,There are more pieces of chocolate in snack Option 2,Snack Option 1 has been chosen,Snack Option 2 has been chosen,There are more slices of kiwi in snack Option 1,morechoc2,chose1,correct,morekiwi1,,,,,,,,click #Q5_i1,false,,,,,,,,,786683.6950000002,786683.1200000001,776001.767,776002.9850000001,776018.433,786684.673,,,,
Q5_correct,html.Screen,2_4_2_4_7,2021-01-15T13:21:31.699Z,,,,,,,,,,,,,,,,,,,,,,,,,,,,,,,,,,,,,,,,,,,,,,,,,,,,,,,,,,,,,,,,,,,,,,,,,,,,,,,,,,,,,,,,,,,,,,,,,,,,,,,,,,,,,,,,,,,1953.8070000001462,,response,,,,,,,,,,,,,,,,,,,,,,,,,,,,,,,,,,,,,,,,,,,,,,,,,,,,,,,,,,,,,,,,,,,,,,,,,,,,,keypress,false,,,,,,,,,788638.915,788638.4800000001,786668.007,786683.8549999997,786684.673,788651.261,,,,
practice_sequence,flow.Sequence,2_4_2_4,2021-01-15T13:21:31.700Z,,,,,,,,,,,,,,,,,,,,,,,,,,,,,,,,,,,,,,,,,,,,,,,,,,,,,,,,,,,,,,,,,,,,,,,,,,,,,,,,,,,,,,,,,,,,,,,,,,,,,,,,,,,,,,,,,,,67734.50900000008,,completion,,,,,,,,,,,,,,,,,,,,,,,,,,,,,,,,,,,,,,,,,,,,,,,,,,,,,,,,,,,,,,,,,,,,,,,,,,,,,,false,,,,,,,,,788639.0449999999,788638.4800000001,720887.305,720898.455,720903.971,788651.261,,,,
final_instru,html.Screen,2_4_2_5,2021-01-15T13:22:17.391Z,,,,,,,,,,,,,,,,,,,,,,,,,,,,,,,,,,,,,,,,,,,,,,,,,,,,,,,,,,,,,,,,,,,,,,,,,,,,,,,,,,,,,,,,,,,,,,,,,,,,,,,,,,,,,,,,,,,45677.77899999998,,done,,,,,,,,,,,,,,,,,,,,,,,,,,,,,,,,,,,,,,,,,,,,,,,,,,,,,,,,,,,,,,,,,,,,,,,,,,,,,,false,,,,,,,,,834329.1749999998,834329.04,788634.595,788639.1100000001,788651.261,834332.767,,,,
blank_screen,canvas.Screen,2_4_2_6_0,2021-01-15T13:22:19.378Z,,,,,,,,,,,,,,,,,,,,,,,,,,,,,,,,,,,,,,,,,,,,,,,,,,,,,,,,,,,,,,,,,,,,,,,,,,,,,,,,,,,,,,,,,,,,,,,,,,,,,,,,,,,,,,,,,,,2016.5860000000102,,timeout,,,,,,,,,,,,,,,,,,,,,,,,,,,,,,,,,,,,,,,,,,,,,,,,,,,,,,,,,,,,,,,,,,,,,,,,,,,,,,false,,,,,,,,,836316.9750000002,836316.021,834316.101,834329.2999999999,834332.767,836349.353,,,,
fixCross,canvas.Screen,2_4_2_6_1_0_0_0_0_0_0,2021-01-15T13:22:19.796Z,,,blank.png,"[""chocolate_truffle.png""]",blank.png,blank.png,blank.png,blank.png,blank.png,blank.png,blank.png,blank.png,blank.png,blank.png,blank.png,,,,,,,,,,,,,,,,,,,,,,,,,,,,,"[""chocolate_truffle.png""]","[""apple.png""]",PB17.png,,,,,,,,,,,0,6,"[""apple.png""]","[""apple.png""]","[""apple.png""]","[""apple.png""]","[""apple.png""]","[""apple.png""]",blank.png,PB18.png,PB18.png,"[""apple.png""]","[""apple.png""]","[""apple.png""]","[""apple.png""]","[""apple.png""]","[""apple.png""]","[""apple.png""]","[""apple.png""]","[""apple.png""]","[""apple.png""]","[""apple.png""]","[""apple.png""]",1,"[""chocolate_truffle.png""]",blank.png,blank.png,blank.png,6,"[""apple.png""]","[""apple.png""]","[""apple.png""]","[""apple.png""]","[""apple.png""]","[""apple.png""]",PB17.png,,,,,,,,,,,1,,,,,,,,,,,,833.3000000000466,,timeout,,,,,,,,,,,,,3,,,,,,,,,,,,,,,,,,,,,,,,,,,,,,,,,,,,,,,,,,,,,,,,,,,,,,,,,"[""apple.png""]","[""chocolate_truffle.png""]",,,,6,,,false,,1,,,,,,,836734.07,836732.671,836316.021,836348.8099999999,836349.353,837182.653,1,,,
timeout,canvas.Screen,2_4_2_6_1_0_0_0_0_0_1,2021-01-15T13:22:20.729Z,,,blank.png,"[""chocolate_truffle.png""]",blank.png,blank.png,blank.png,blank.png,blank.png,blank.png,blank.png,blank.png,blank.png,blank.png,blank.png,,,,,,,,,,,,,,,,,,,,,,,,,,,,,"[""chocolate_truffle.png""]","[""apple.png""]",PB17.png,,,,,,,,,,,0,6,"[""apple.png""]","[""apple.png""]","[""apple.png""]","[""apple.png""]","[""apple.png""]","[""apple.png""]",blank.png,PB18.png,PB18.png,"[""apple.png""]","[""apple.png""]","[""apple.png""]","[""apple.png""]","[""apple.png""]","[""apple.png""]","[""apple.png""]","[""apple.png""]","[""apple.png""]","[""apple.png""]","[""apple.png""]","[""apple.png""]",1,"[""chocolate_truffle.png""]",blank.png,blank.png,blank.png,6,"[""apple.png""]","[""apple.png""]","[""apple.png""]","[""apple.png""]","[""apple.png""]","[""apple.png""]",PB17.png,,,,,,,,,,,1,,,,,,,,,,,,999.9599999999627,,timeout,,,,,,,,,,,,,3,,,,,,,,,,,,,,,,,,,,,,,,,,,,,,,,,,,,,,,,,,,,,,,,,,,,,,,,,"[""apple.png""]","[""chocolate_truffle.png""]",,,,6,,,false,,1,,,,,,,837667.1499999998,837665.967,836732.671,837239.3349999997,837182.653,838182.613,,,,
choice,canvas.Screen,2_4_2_6_1_0_0_0_0_0_2,2021-01-15T13:22:25.120Z,,,blank.png,"[""chocolate_truffle.png""]",blank.png,blank.png,blank.png,blank.png,blank.png,blank.png,blank.png,blank.png,blank.png,blank.png,blank.png,,,,,,,,,,,,,,,,,,,,,,,,,,,,,"[""chocolate_truffle.png""]","[""apple.png""]",PB17.png,,,,,,,,,,,0,6,"[""apple.png""]","[""apple.png""]","[""apple.png""]","[""apple.png""]","[""apple.png""]","[""apple.png""]",blank.png,PB18.png,PB18.png,"[""apple.png""]","[""apple.png""]","[""apple.png""]","[""apple.png""]","[""apple.png""]","[""apple.png""]","[""apple.png""]","[""apple.png""]","[""apple.png""]","[""apple.png""]","[""apple.png""]","[""apple.png""]",1,"[""chocolate_truffle.png""]",blank.png,blank.png,blank.png,6,"[""apple.png""]","[""apple.png""]","[""apple.png""]","[""apple.png""]","[""apple.png""]","[""apple.png""]",PB17.png,,,,,,,,,,,1,,,,,,,,,,,,3875.03199999989,,response,,,,,,,,,,,,,3,,,,,,,,,,,,,,,,,,,,,,,,,,,,,,,,,,,,,,,,,,,,,,,,,,,,,,,,,"[""apple.png""]","[""chocolate_truffle.png""]",,,,6,right,keydown(ArrowRight),false,,1,,,,,,,842058.3149999997,842057.6449999999,837665.967,838188.0799999998,838182.613,842565.771,,1,,
square,canvas.Screen,2_4_2_6_1_0_0_0_0_0_3,2021-01-15T13:22:26.612Z,,,blank.png,"[""chocolate_truffle.png""]",blank.png,blank.png,blank.png,blank.png,blank.png,blank.png,blank.png,blank.png,blank.png,blank.png,blank.png,,,,,,,,,,,,,,,,,,,,,,,,,,,,,"[""chocolate_truffle.png""]","[""apple.png""]",PB17.png,,,,,,,,,,,0,6,"[""apple.png""]","[""apple.png""]","[""apple.png""]","[""apple.png""]","[""apple.png""]","[""apple.png""]",blank.png,PB18.png,PB18.png,"[""apple.png""]","[""apple.png""]","[""apple.png""]","[""apple.png""]","[""apple.png""]","[""apple.png""]","[""apple.png""]","[""apple.png""]","[""apple.png""]","[""apple.png""]","[""apple.png""]","[""apple.png""]",1,"[""chocolate_truffle.png""]",blank.png,blank.png,blank.png,6,"[""apple.png""]","[""apple.png""]","[""apple.png""]","[""apple.png""]","[""apple.png""]","[""apple.png""]",PB17.png,,,,,,,,,,,1,,#808080,#33ff3f,,,,,,,,,999.9600000000792,,timeout,,,,,,,,,,,,,3,,,,,,,,,,,,,,,,,,,,,,,,,,,,,,,,,,,,,,,,,,,,,,,,,,,,,,,,,"[""apple.png""]","[""chocolate_truffle.png""]",,,,6,,,false,,1,,,,,white,black,843550.4550000001,843549.065,842532.439,842548.3949999998,842565.771,843565.731,,,,
ITI_late,canvas.Screen,2_4_2_6_1_0_0_0_0_0_4,2021-01-15T13:22:26.862Z,,,blank.png,"[""chocolate_truffle.png""]",blank.png,blank.png,blank.png,blank.png,blank.png,blank.png,blank.png,blank.png,blank.png,blank.png,blank.png,,,,,,,,,,,,,,,,,,,,,,,,,,,,,"[""chocolate_truffle.png""]","[""apple.png""]",PB17.png,,,,,,,,,,,0,6,"[""apple.png""]","[""apple.png""]","[""apple.png""]","[""apple.png""]","[""apple.png""]","[""apple.png""]",blank.png,PB18.png,PB18.png,"[""apple.png""]","[""apple.png""]","[""apple.png""]","[""apple.png""]","[""apple.png""]","[""apple.png""]","[""apple.png""]","[""apple.png""]","[""apple.png""]","[""apple.png""]","[""apple.png""]","[""apple.png""]",1,"[""chocolate_truffle.png""]",blank.png,blank.png,blank.png,6,"[""apple.png""]","[""apple.png""]","[""apple.png""]","[""apple.png""]","[""apple.png""]","[""apple.png""]",PB17.png,,,,,,,,,,,1,,,,,,,,,,,,249.9899999999907,,timeout,,,,,,,,,,,,white,3,,,,,,,,,,,,,,,,,,,,,,,,,,,,,,,,,,,,,,,,,,,,,,,,,,,,,,,,,"[""apple.png""]","[""chocolate_truffle.png""]",,,,6,,,false,,1,,,,,,,843800.4900000001,843799.055,843549.065,843551.8849999999,843565.731,843815.721,,,,
choice_sequence,flow.Sequence,2_4_2_6_1_0_0_0_0_0,2021-01-15T13:22:26.862Z,,,blank.png,"[""chocolate_truffle.png""]",blank.png,blank.png,blank.png,blank.png,blank.png,blank.png,blank.png,blank.png,blank.png,blank.png,blank.png,,,,,,,,,,,,,,,,,,,,,,,,,,,,,"[""chocolate_truffle.png""]","[""apple.png""]",PB17.png,,,,,,,,,,,0,6,"[""apple.png""]","[""apple.png""]","[""apple.png""]","[""apple.png""]","[""apple.png""]","[""apple.png""]",blank.png,PB18.png,PB18.png,"[""apple.png""]","[""apple.png""]","[""apple.png""]","[""apple.png""]","[""apple.png""]","[""apple.png""]","[""apple.png""]","[""apple.png""]","[""apple.png""]","[""apple.png""]","[""apple.png""]","[""apple.png""]",1,"[""chocolate_truffle.png""]",blank.png,blank.png,blank.png,6,"[""apple.png""]","[""apple.png""]","[""apple.png""]","[""apple.png""]","[""apple.png""]","[""apple.png""]",PB17.png,,,,,,,,,,,1,,,,,,,,,,,,7449.702000000048,,completion,,,,,,,,,,,,,3,,,,,,,,,,,,,,,,,,,,,,,,,,,,,,,,,,,,,,,,,,,,,,,,,,,,,,,,,"[""apple.png""]","[""chocolate_truffle.png""]",,,,6,,,false,,1,,,,,,,843800.8749999999,843799.055,836316.021,836347.695,836349.353,843815.721,,,,
fixCross,canvas.Screen,2_4_2_6_1_0_0_0_0_1_0,2021-01-15T13:22:27.211Z,,,blank.png,blank.png,blank.png,blank.png,blank.png,blank.png,blank.png,"[""chocolate_truffle.png""]",blank.png,blank.png,blank.png,blank.png,blank.png,,,,,,,,,,,,,,,,,,,,,,,,,,,,,"[""chocolate_truffle.png""]","[""apple.png""]",PB18.png,,,,,,,,,,,0,6,"[""apple.png""]","[""apple.png""]","[""apple.png""]","[""apple.png""]","[""apple.png""]","[""apple.png""]",blank.png,PB18.png,PB16.png,"[""apple.png""]","[""apple.png""]","[""apple.png""]","[""apple.png""]","[""apple.png""]","[""apple.png""]","[""apple.png""]","[""apple.png""]","[""apple.png""]","[""apple.png""]","[""apple.png""]",blank.png,1,"[""chocolate_truffle.png""]",blank.png,blank.png,blank.png,5,"[""apple.png""]","[""apple.png""]","[""apple.png""]","[""apple.png""]","[""apple.png""]",blank.png,PB16.png,,,,,,,,,,,1,,,,,,,,,,,,816.6339999999618,,timeout,,,,,,,,,,,,,4,,,,,,,,,,,,,,,,,,,,,,,,,,,,,,,,,,,,,,,,,,,,,,,,,,,,,,,,,"[""apple.png""]","[""chocolate_truffle.png""]",,,,6,,,false,,1,,,,,,,844149.465,844149.041,843799.055,843805.0400000002,843815.721,844632.355,2,,,
timeout,canvas.Screen,2_4_2_6_1_0_0_0_0_1_1,2021-01-15T13:22:28.178Z,,,blank.png,blank.png,blank.png,blank.png,blank.png,blank.png,blank.png,"[""chocolate_truffle.png""]",blank.png,blank.png,blank.png,blank.png,blank.png,,,,,,,,,,,,,,,,,,,,,,,,,,,,,"[""chocolate_truffle.png""]","[""apple.png""]",PB18.png,,,,,,,,,,,0,6,"[""apple.png""]","[""apple.png""]","[""apple.png""]","[""apple.png""]","[""apple.png""]","[""apple.png""]",blank.png,PB18.png,PB16.png,"[""apple.png""]","[""apple.png""]","[""apple.png""]","[""apple.png""]","[""apple.png""]","[""apple.png""]","[""apple.png""]","[""apple.png""]","[""apple.png""]","[""apple.png""]","[""apple.png""]",blank.png,1,"[""chocolate_truffle.png""]",blank.png,blank.png,blank.png,5,"[""apple.png""]","[""apple.png""]","[""apple.png""]","[""apple.png""]","[""apple.png""]",blank.png,PB16.png,,,,,,,,,,,1,,,,,,,,,,,,966.6280000000261,,timeout,,,,,,,,,,,,,4,,,,,,,,,,,,,,,,,,,,,,,,,,,,,,,,,,,,,,,,,,,,,,,,,,,,,,,,,"[""apple.png""]","[""chocolate_truffle.png""]",,,,6,,,false,,1,,,,,,,845116.5150000001,845115.669,844149.041,844636.9300000002,844632.355,845598.983,,,,
choice,canvas.Screen,2_4_2_6_1_0_0_0_0_1_2,2021-01-15T13:22:29.145Z,,,blank.png,blank.png,blank.png,blank.png,blank.png,blank.png,blank.png,"[""chocolate_truffle.png""]",blank.png,blank.png,blank.png,blank.png,blank.png,,,,,,,,,,,,,,,,,,,,,,,,,,,,,"[""chocolate_truffle.png""]","[""apple.png""]",PB18.png,,,,,,,,,,,0,6,"[""apple.png""]","[""apple.png""]","[""apple.png""]","[""apple.png""]","[""apple.png""]","[""apple.png""]",blank.png,PB18.png,PB16.png,"[""apple.png""]","[""apple.png""]","[""apple.png""]","[""apple.png""]","[""apple.png""]","[""apple.png""]","[""apple.png""]","[""apple.png""]","[""apple.png""]","[""apple.png""]","[""apple.png""]",blank.png,1,"[""chocolate_truffle.png""]",blank.png,blank.png,blank.png,5,"[""apple.png""]","[""apple.png""]","[""apple.png""]","[""apple.png""]","[""apple.png""]",blank.png,PB16.png,,,,,,,,,,,1,,,,,,,,,,,,482.6820000001462,,response,,,,,,,,,,,,,4,,,,,,,,,,,,,,,,,,,,,,,,,,,,,,,,,,,,,,,,,,,,,,,,,,,,,,,,,"[""apple.png""]","[""chocolate_truffle.png""]",,,,6,left,keydown(ArrowLeft),false,,1,,,,,,,846083.1199999998,846081.6650000002,845115.669,845590.0599999999,845598.983,846548.945,,2,,
square,canvas.Screen,2_4_2_6_1_0_0_0_0_1_3,2021-01-15T13:22:30.595Z,,,blank.png,blank.png,blank.png,blank.png,blank.png,blank.png,blank.png,"[""chocolate_truffle.png""]",blank.png,blank.png,blank.png,blank.png,blank.png,,,,,,,,,,,,,,,,,,,,,,,,,,,,,"[""chocolate_truffle.png""]","[""apple.png""]",PB18.png,,,,,,,,,,,0,6,"[""apple.png""]","[""apple.png""]","[""apple.png""]","[""apple.png""]","[""apple.png""]","[""apple.png""]",blank.png,PB18.png,PB16.png,"[""apple.png""]","[""apple.png""]","[""apple.png""]","[""apple.png""]","[""apple.png""]","[""apple.png""]","[""apple.png""]","[""apple.png""]","[""apple.png""]","[""apple.png""]","[""apple.png""]",blank.png,1,"[""chocolate_truffle.png""]",blank.png,blank.png,blank.png,5,"[""apple.png""]","[""apple.png""]","[""apple.png""]","[""apple.png""]","[""apple.png""]",blank.png,PB16.png,,,,,,,,,,,1,,#33ff3f,#808080,,,,,,,,,999.9600000000792,,timeout,,,,,,,,,,,,,4,,,,,,,,,,,,,,,,,,,,,,,,,,,,,,,,,,,,,,,,,,,,,,,,,,,,,,,,,"[""apple.png""]","[""chocolate_truffle.png""]",,,,6,,,false,,1,,,,,black,white,847533.6950000001,847532.239,846532.279,846540.6149999999,846548.945,847548.905,,,,
ITI_late,canvas.Screen,2_4_2_6_1_0_0_0_0_1_4,2021-01-15T13:22:31.094Z,,,blank.png,blank.png,blank.png,blank.png,blank.png,blank.png,blank.png,"[""chocolate_truffle.png""]",blank.png,blank.png,blank.png,blank.png,blank.png,,,,,,,,,,,,,,,,,,,,,,,,,,,,,"[""chocolate_truffle.png""]","[""apple.png""]",PB18.png,,,,,,,,,,,0,6,"[""apple.png""]","[""apple.png""]","[""apple.png""]","[""apple.png""]","[""apple.png""]","[""apple.png""]",blank.png,PB18.png,PB16.png,"[""apple.png""]","[""apple.png""]","[""apple.png""]","[""apple.png""]","[""apple.png""]","[""apple.png""]","[""apple.png""]","[""apple.png""]","[""apple.png""]","[""apple.png""]","[""apple.png""]",blank.png,1,"[""chocolate_truffle.png""]",blank.png,blank.png,blank.png,5,"[""apple.png""]","[""apple.png""]","[""apple.png""]","[""apple.png""]","[""apple.png""]",blank.png,PB16.png,,,,,,,,,,,1,,,,,,,,,,,,499.9799999999814,,timeout,,,,,,,,,,,,white,4,,,,,,,,,,,,,,,,,,,,,,,,,,,,,,,,,,,,,,,,,,,,,,,,,,,,,,,,,"[""apple.png""]","[""chocolate_truffle.png""]",,,,6,,,false,,1,,,,,,,848032.7400000001,848032.219,847532.239,847536.2249999999,847548.905,848048.885,,,,
choice_sequence,flow.Sequence,2_4_2_6_1_0_0_0_0_1,2021-01-15T13:22:31.095Z,,,blank.png,blank.png,blank.png,blank.png,blank.png,blank.png,blank.png,"[""chocolate_truffle.png""]",blank.png,blank.png,blank.png,blank.png,blank.png,,,,,,,,,,,,,,,,,,,,,,,,,,,,,"[""chocolate_truffle.png""]","[""apple.png""]",PB18.png,,,,,,,,,,,0,6,"[""apple.png""]","[""apple.png""]","[""apple.png""]","[""apple.png""]","[""apple.png""]","[""apple.png""]",blank.png,PB18.png,PB16.png,"[""apple.png""]","[""apple.png""]","[""apple.png""]","[""apple.png""]","[""apple.png""]","[""apple.png""]","[""apple.png""]","[""apple.png""]","[""apple.png""]","[""apple.png""]","[""apple.png""]",blank.png,1,"[""chocolate_truffle.png""]",blank.png,blank.png,blank.png,5,"[""apple.png""]","[""apple.png""]","[""apple.png""]","[""apple.png""]","[""apple.png""]",blank.png,PB16.png,,,,,,,,,,,1,,,,,,,,,,,,4216.498000000021,,completion,,,,,,,,,,,,,4,,,,,,,,,,,,,,,,,,,,,,,,,,,,,,,,,,,,,,,,,,,,,,,,,,,,,,,,,"[""apple.png""]","[""chocolate_truffle.png""]",,,,6,,,false,,1,,,,,,,848033.1449999999,848032.219,843799.055,843804.3349999998,843815.721,848048.885,,,,
fixCross,canvas.Screen,2_4_2_6_1_0_0_0_0_2_0,2021-01-15T13:22:31.694Z,,,blank.png,blank.png,blank.png,blank.png,blank.png,blank.png,blank.png,"[""chocolate_truffle.png""]",blank.png,blank.png,blank.png,blank.png,blank.png,,,,,,,,,,,,,,,,,,,,,,,,,,,,,"[""chocolate_truffle.png""]","[""apple.png""]",PB18.png,,,,,,,,,,,0,6,"[""apple.png""]","[""apple.png""]","[""apple.png""]","[""apple.png""]","[""apple.png""]","[""apple.png""]",blank.png,PB18.png,PB14.png,"[""apple.png""]","[""apple.png""]","[""apple.png""]","[""apple.png""]","[""apple.png""]","[""apple.png""]","[""apple.png""]","[""apple.png""]","[""apple.png""]",blank.png,blank.png,blank.png,1,"[""chocolate_truffle.png""]",blank.png,blank.png,blank.png,3,"[""apple.png""]","[""apple.png""]","[""apple.png""]",blank.png,blank.png,blank.png,PB14.png,,,,,,,,,,,1,,,,,,,,,,,,999.9599999999627,,timeout,,,,,,,,,,,,,4,,,,,,,,,,,,,,,,,,,,,,,,,,,,,,,,,,,,,,,,,,,,,,,,,,,,,,,,,"[""apple.png""]","[""chocolate_truffle.png""]",,,,6,,,false,,1,,,,,,,848632.7499999998,848632.195,848032.219,848037.0299999999,848048.885,849048.845,3,,,
timeout,canvas.Screen,2_4_2_6_1_0_0_0_0_2_1,2021-01-15T13:22:32.594Z,,,blank.png,blank.png,blank.png,blank.png,blank.png,blank.png,blank.png,"[""chocolate_truffle.png""]",blank.png,blank.png,blank.png,blank.png,blank.png,,,,,,,,,,,,,,,,,,,,,,,,,,,,,"[""chocolate_truffle.png""]","[""apple.png""]",PB18.png,,,,,,,,,,,0,6,"[""apple.png""]","[""apple.png""]","[""apple.png""]","[""apple.png""]","[""apple.png""]","[""apple.png""]",blank.png,PB18.png,PB14.png,"[""apple.png""]","[""apple.png""]","[""apple.png""]","[""apple.png""]","[""apple.png""]","[""apple.png""]","[""apple.png""]","[""apple.png""]","[""apple.png""]",blank.png,blank.png,blank.png,1,"[""chocolate_truffle.png""]",blank.png,blank.png,blank.png,3,"[""apple.png""]","[""apple.png""]","[""apple.png""]",blank.png,blank.png,blank.png,PB14.png,,,,,,,,,,,1,,,,,,,,,,,,899.9640000000363,,timeout,,,,,,,,,,,,,4,,,,,,,,,,,,,,,,,,,,,,,,,,,,,,,,,,,,,,,,,,,,,,,,,,,,,,,,,"[""apple.png""]","[""chocolate_truffle.png""]",,,,6,,,false,,1,,,,,,,849532.6749999999,849532.159,848632.195,849053.425,849048.845,849948.809,,,,
choice,canvas.Screen,2_4_2_6_1_0_0_0_0_2_2,2021-01-15T13:22:33.248Z,,,blank.png,blank.png,blank.png,blank.png,blank.png,blank.png,blank.png,"[""chocolate_truffle.png""]",blank.png,blank.png,blank.png,blank.png,blank.png,,,,,,,,,,,,,,,,,,,,,,,,,,,,,"[""chocolate_truffle.png""]","[""apple.png""]",PB18.png,,,,,,,,,,,0,6,"[""apple.png""]","[""apple.png""]","[""apple.png""]","[""apple.png""]","[""apple.png""]","[""apple.png""]",blank.png,PB18.png,PB14.png,"[""apple.png""]","[""apple.png""]","[""apple.png""]","[""apple.png""]","[""apple.png""]","[""apple.png""]","[""apple.png""]","[""apple.png""]","[""apple.png""]",blank.png,blank.png,blank.png,1,"[""chocolate_truffle.png""]",blank.png,blank.png,blank.png,3,"[""apple.png""]","[""apple.png""]","[""apple.png""]",blank.png,blank.png,blank.png,PB14.png,,,,,,,,,,,1,,,,,,,,,,,,236.706000000122,,response,,,,,,,,,,,,,4,,,,,,,,,,,,,,,,,,,,,,,,,,,,,,,,,,,,,,,,,,,,,,,,,,,,,,,,,"[""apple.png""]","[""chocolate_truffle.png""]",,,,6,left,keydown(ArrowLeft),false,,1,,,,,,,850186.3950000001,850185.5150000001,849532.159,849950.0750000002,849948.809,850598.783,,3,,
square,canvas.Screen,2_4_2_6_1_0_0_0_0_2_3,2021-01-15T13:22:34.644Z,,,blank.png,blank.png,blank.png,blank.png,blank.png,blank.png,blank.png,"[""chocolate_truffle.png""]",blank.png,blank.png,blank.png,blank.png,blank.png,,,,,,,,,,,,,,,,,,,,,,,,,,,,,"[""chocolate_truffle.png""]","[""apple.png""]",PB18.png,,,,,,,,,,,0,6,"[""apple.png""]","[""apple.png""]","[""apple.png""]","[""apple.png""]","[""apple.png""]","[""apple.png""]",blank.png,PB18.png,PB14.png,"[""apple.png""]","[""apple.png""]","[""apple.png""]","[""apple.png""]","[""apple.png""]","[""apple.png""]","[""apple.png""]","[""apple.png""]","[""apple.png""]",blank.png,blank.png,blank.png,1,"[""chocolate_truffle.png""]",blank.png,blank.png,blank.png,3,"[""apple.png""]","[""apple.png""]","[""apple.png""]",blank.png,blank.png,blank.png,PB14.png,,,,,,,,,,,1,,#33ff3f,#808080,,,,,,,,,999.9599999999627,,timeout,,,,,,,,,,,,,4,,,,,,,,,,,,,,,,,,,,,,,,,,,,,,,,,,,,,,,,,,,,,,,,,,,,,,,,,"[""apple.png""]","[""chocolate_truffle.png""]",,,,6,,,false,,1,,,,,black,white,851582.8649999999,851582.077,850582.117,850589.8750000001,850598.783,851598.743,,,,
ITI_late,canvas.Screen,2_4_2_6_1_0_0_0_0_2_4,2021-01-15T13:22:35.894Z,,,blank.png,blank.png,blank.png,blank.png,blank.png,blank.png,blank.png,"[""chocolate_truffle.png""]",blank.png,blank.png,blank.png,blank.png,blank.png,,,,,,,,,,,,,,,,,,,,,,,,,,,,,"[""chocolate_truffle.png""]","[""apple.png""]",PB18.png,,,,,,,,,,,0,6,"[""apple.png""]","[""apple.png""]","[""apple.png""]","[""apple.png""]","[""apple.png""]","[""apple.png""]",blank.png,PB18.png,PB14.png,"[""apple.png""]","[""apple.png""]","[""apple.png""]","[""apple.png""]","[""apple.png""]","[""apple.png""]","[""apple.png""]","[""apple.png""]","[""apple.png""]",blank.png,blank.png,blank.png,1,"[""chocolate_truffle.png""]",blank.png,blank.png,blank.png,3,"[""apple.png""]","[""apple.png""]","[""apple.png""]",blank.png,blank.png,blank.png,PB14.png,,,,,,,,,,,1,,,,,,,,,,,,1249.9499999999534,,timeout,,,,,,,,,,,,white,4,,,,,,,,,,,,,,,,,,,,,,,,,,,,,,,,,,,,,,,,,,,,,,,,,,,,,,,,,"[""apple.png""]","[""chocolate_truffle.png""]",,,,6,,,false,,1,,,,,,,852832.9149999999,852832.027,851582.077,851584.2349999998,851598.743,852848.693,,,,
choice_sequence,flow.Sequence,2_4_2_6_1_0_0_0_0_2,2021-01-15T13:22:35.895Z,,,blank.png,blank.png,blank.png,blank.png,blank.png,blank.png,blank.png,"[""chocolate_truffle.png""]",blank.png,blank.png,blank.png,blank.png,blank.png,,,,,,,,,,,,,,,,,,,,,,,,,,,,,"[""chocolate_truffle.png""]","[""apple.png""]",PB18.png,,,,,,,,,,,0,6,"[""apple.png""]","[""apple.png""]","[""apple.png""]","[""apple.png""]","[""apple.png""]","[""apple.png""]",blank.png,PB18.png,PB14.png,"[""apple.png""]","[""apple.png""]","[""apple.png""]","[""apple.png""]","[""apple.png""]","[""apple.png""]","[""apple.png""]","[""apple.png""]","[""apple.png""]",blank.png,blank.png,blank.png,1,"[""chocolate_truffle.png""]",blank.png,blank.png,blank.png,3,"[""apple.png""]","[""apple.png""]","[""apple.png""]",blank.png,blank.png,blank.png,PB14.png,,,,,,,,,,,1,,,,,,,,,,,,4783.141999999993,,completion,,,,,,,,,,,,,4,,,,,,,,,,,,,,,,,,,,,,,,,,,,,,,,,,,,,,,,,,,,,,,,,,,,,,,,,"[""apple.png""]","[""chocolate_truffle.png""]",,,,6,,,false,,1,,,,,,,852833.3200000002,852832.027,848032.219,848036.3250000001,848048.885,852848.693,,,,
fixCross,canvas.Screen,2_4_2_6_1_0_0_0_0_3_0,2021-01-15T13:22:36.344Z,,,blank.png,blank.png,blank.png,blank.png,blank.png,blank.png,blank.png,"[""chocolate_truffle.png""]",blank.png,blank.png,blank.png,blank.png,blank.png,,,,,,,,,,,,,,,,,,,,,,,,,,,,,"[""chocolate_truffle.png""]","[""apple.png""]",PB18.png,,,,,,,,,,,0,6,"[""apple.png""]","[""apple.png""]","[""apple.png""]","[""apple.png""]","[""apple.png""]","[""apple.png""]",blank.png,PB18.png,PB01.png,"[""apple.png""]","[""apple.png""]","[""apple.png""]","[""apple.png""]","[""apple.png""]","[""apple.png""]",blank.png,blank.png,blank.png,blank.png,blank.png,blank.png,1,"[""chocolate_truffle.png""]",blank.png,blank.png,blank.png,0,blank.png,blank.png,blank.png,blank.png,blank.png,blank.png,PB01.png,,,,,,,,,,,1,,,,,,,,,,,,783.3020000000251,,timeout,,,,,,,,,,,,,4,,,,,,,,,,,,,,,,,,,,,,,,,,,,,,,,,,,,,,,,,,,,,,,,,,,,,,,,,"[""apple.png""]","[""chocolate_truffle.png""]",,,,6,,,false,,1,,,,,,,853282.8800000002,853282.009,852832.027,852837.1149999998,852848.693,853631.995,4,,,
timeout,canvas.Screen,2_4_2_6_1_0_0_0_0_3_1,2021-01-15T13:22:37.177Z,,,blank.png,blank.png,blank.png,blank.png,blank.png,blank.png,blank.png,"[""chocolate_truffle.png""]",blank.png,blank.png,blank.png,blank.png,blank.png,,,,,,,,,,,,,,,,,,,,,,,,,,,,,"[""chocolate_truffle.png""]","[""apple.png""]",PB18.png,,,,,,,,,,,0,6,"[""apple.png""]","[""apple.png""]","[""apple.png""]","[""apple.png""]","[""apple.png""]","[""apple.png""]",blank.png,PB18.png,PB01.png,"[""apple.png""]","[""apple.png""]","[""apple.png""]","[""apple.png""]","[""apple.png""]","[""apple.png""]",blank.png,blank.png,blank.png,blank.png,blank.png,blank.png,1,"[""chocolate_truffle.png""]",blank.png,blank.png,blank.png,0,blank.png,blank.png,blank.png,blank.png,blank.png,blank.png,PB01.png,,,,,,,,,,,1,,,,,,,,,,,,816.6339999999618,,timeout,,,,,,,,,,,,,4,,,,,,,,,,,,,,,,,,,,,,,,,,,,,,,,,,,,,,,,,,,,,,,,,,,,,,,,,"[""apple.png""]","[""chocolate_truffle.png""]",,,,6,,,false,,1,,,,,,,854116.0100000002,854115.309,853282.009,853636.4349999999,853631.995,854448.629,,,,
choice,canvas.Screen,2_4_2_6_1_0_0_0_0_3_2,2021-01-15T13:22:37.520Z,,,blank.png,blank.png,blank.png,blank.png,blank.png,blank.png,blank.png,"[""chocolate_truffle.png""]",blank.png,blank.png,blank.png,blank.png,blank.png,,,,,,,,,,,,,,,,,,,,,,,,,,,,,"[""chocolate_truffle.png""]","[""apple.png""]",PB18.png,,,,,,,,,,,0,6,"[""apple.png""]","[""apple.png""]","[""apple.png""]","[""apple.png""]","[""apple.png""]","[""apple.png""]",blank.png,PB18.png,PB01.png,"[""apple.png""]","[""apple.png""]","[""apple.png""]","[""apple.png""]","[""apple.png""]","[""apple.png""]",blank.png,blank.png,blank.png,blank.png,blank.png,blank.png,1,"[""chocolate_truffle.png""]",blank.png,blank.png,blank.png,0,blank.png,blank.png,blank.png,blank.png,blank.png,blank.png,PB01.png,,,,,,,,,,,1,,,,,,,,,,,,190.0309999998426,,response,,,,,,,,,,,,,4,,,,,,,,,,,,,,,,,,,,,,,,,,,,,,,,,,,,,,,,,,,,,,,,,,,,,,,,,"[""apple.png""]","[""chocolate_truffle.png""]",,,,6,left,keydown(ArrowLeft),false,,1,,,,,,,854458.5849999998,854305.3399999999,854115.309,854450.0199999998,,854798.615,,4,,
square,canvas.Screen,2_4_2_6_1_0_0_0_0_3_3,2021-01-15T13:22:38.845Z,,,blank.png,blank.png,blank.png,blank.png,blank.png,blank.png,blank.png,"[""chocolate_truffle.png""]",blank.png,blank.png,blank.png,blank.png,blank.png,,,,,,,,,,,,,,,,,,,,,,,,,,,,,"[""chocolate_truffle.png""]","[""apple.png""]",PB18.png,,,,,,,,,,,0,6,"[""apple.png""]","[""apple.png""]","[""apple.png""]","[""apple.png""]","[""apple.png""]","[""apple.png""]",blank.png,PB18.png,PB01.png,"[""apple.png""]","[""apple.png""]","[""apple.png""]","[""apple.png""]","[""apple.png""]","[""apple.png""]",blank.png,blank.png,blank.png,blank.png,blank.png,blank.png,1,"[""chocolate_truffle.png""]",blank.png,blank.png,blank.png,0,blank.png,blank.png,blank.png,blank.png,blank.png,blank.png,PB01.png,,,,,,,,,,,1,,#33ff3f,#808080,,,,,,,,,999.9599999999627,,timeout,,,,,,,,,,,,,4,,,,,,,,,,,,,,,,,,,,,,,,,,,,,,,,,,,,,,,,,,,,,,,,,,,,,,,,,"[""apple.png""]","[""chocolate_truffle.png""]",,,,6,,,false,,1,,,,,black,white,855783.0650000001,855781.909,854448.629,854790.3150000002,854798.615,855798.575,,,,
ITI_late,canvas.Screen,2_4_2_6_1_0_0_0_0_3_4,2021-01-15T13:22:39.095Z,,,blank.png,blank.png,blank.png,blank.png,blank.png,blank.png,blank.png,"[""chocolate_truffle.png""]",blank.png,blank.png,blank.png,blank.png,blank.png,,,,,,,,,,,,,,,,,,,,,,,,,,,,,"[""chocolate_truffle.png""]","[""apple.png""]",PB18.png,,,,,,,,,,,0,6,"[""apple.png""]","[""apple.png""]","[""apple.png""]","[""apple.png""]","[""apple.png""]","[""apple.png""]",blank.png,PB18.png,PB01.png,"[""apple.png""]","[""apple.png""]","[""apple.png""]","[""apple.png""]","[""apple.png""]","[""apple.png""]",blank.png,blank.png,blank.png,blank.png,blank.png,blank.png,1,"[""chocolate_truffle.png""]",blank.png,blank.png,blank.png,0,blank.png,blank.png,blank.png,blank.png,blank.png,blank.png,PB01.png,,,,,,,,,,,1,,,,,,,,,,,,249.9899999999907,,timeout,,,,,,,,,,,,white,4,,,,,,,,,,,,,,,,,,,,,,,,,,,,,,,,,,,,,,,,,,,,,,,,,,,,,,,,,"[""apple.png""]","[""chocolate_truffle.png""]",,,,6,,,false,,1,,,,,,,856033.0949999997,856031.899,855781.909,855784.44,855798.575,856048.565,,,,
choice_sequence,flow.Sequence,2_4_2_6_1_0_0_0_0_3,2021-01-15T13:22:39.095Z,,,blank.png,blank.png,blank.png,blank.png,blank.png,blank.png,blank.png,"[""chocolate_truffle.png""]",blank.png,blank.png,blank.png,blank.png,blank.png,,,,,,,,,,,,,,,,,,,,,,,,,,,,,"[""chocolate_truffle.png""]","[""apple.png""]",PB18.png,,,,,,,,,,,0,6,"[""apple.png""]","[""apple.png""]","[""apple.png""]","[""apple.png""]","[""apple.png""]","[""apple.png""]",blank.png,PB18.png,PB01.png,"[""apple.png""]","[""apple.png""]","[""apple.png""]","[""apple.png""]","[""apple.png""]","[""apple.png""]",blank.png,blank.png,blank.png,blank.png,blank.png,blank.png,1,"[""chocolate_truffle.png""]",blank.png,blank.png,blank.png,0,blank.png,blank.png,blank.png,blank.png,blank.png,blank.png,PB01.png,,,,,,,,,,,1,,,,,,,,,,,,3183.2060000000056,,completion,,,,,,,,,,,,,4,,,,,,,,,,,,,,,,,,,,,,,,,,,,,,,,,,,,,,,,,,,,,,,,,,,,,,,,,"[""apple.png""]","[""chocolate_truffle.png""]",,,,6,,,false,,1,,,,,,,856033.4950000001,856031.899,852832.027,852836.445,852848.693,856048.565,,,,
fixCross,canvas.Screen,2_4_2_6_1_0_0_0_0_4_0,2021-01-15T13:22:39.345Z,,,blank.png,"[""chocolate_truffle.png""]",blank.png,blank.png,blank.png,blank.png,blank.png,blank.png,blank.png,blank.png,blank.png,blank.png,blank.png,,,,,,,,,,,,,,,,,,,,,,,,,,,,,"[""chocolate_truffle.png""]","[""apple.png""]",PB15.png,,,,,,,,,,,0,6,"[""apple.png""]","[""apple.png""]","[""apple.png""]","[""apple.png""]","[""apple.png""]","[""apple.png""]",blank.png,PB18.png,PB18.png,"[""apple.png""]","[""apple.png""]","[""apple.png""]","[""apple.png""]",blank.png,blank.png,"[""apple.png""]","[""apple.png""]","[""apple.png""]","[""apple.png""]","[""apple.png""]","[""apple.png""]",1,"[""chocolate_truffle.png""]",blank.png,blank.png,blank.png,4,"[""apple.png""]","[""apple.png""]","[""apple.png""]","[""apple.png""]",blank.png,blank.png,PB15.png,,,,,,,,,,,1,,,,,,,,,,,,683.3060000000987,,timeout,,,,,,,,,,,,,3,,,,,,,,,,,,,,,,,,,,,,,,,,,,,,,,,,,,,,,,,,,,,,,,,,,,,,,,,"[""apple.png""]","[""chocolate_truffle.png""]",,,,6,,,false,,1,,,,,,,856283.0800000002,856281.889,856031.899,856037.1300000001,856048.565,856731.871,5,,,
timeout,canvas.Screen,2_4_2_6_1_0_0_0_0_4_1,2021-01-15T13:22:40.278Z,,,blank.png,"[""chocolate_truffle.png""]",blank.png,blank.png,blank.png,blank.png,blank.png,blank.png,blank.png,blank.png,blank.png,blank.png,blank.png,,,,,,,,,,,,,,,,,,,,,,,,,,,,,"[""chocolate_truffle.png""]","[""apple.png""]",PB15.png,,,,,,,,,,,0,6,"[""apple.png""]","[""apple.png""]","[""apple.png""]","[""apple.png""]","[""apple.png""]","[""apple.png""]",blank.png,PB18.png,PB18.png,"[""apple.png""]","[""apple.png""]","[""apple.png""]","[""apple.png""]",blank.png,blank.png,"[""apple.png""]","[""apple.png""]","[""apple.png""]","[""apple.png""]","[""apple.png""]","[""apple.png""]",1,"[""chocolate_truffle.png""]",blank.png,blank.png,blank.png,4,"[""apple.png""]","[""apple.png""]","[""apple.png""]","[""apple.png""]",blank.png,blank.png,PB15.png,,,,,,,,,,,1,,,,,,,,,,,,949.9619999999413,,timeout,,,,,,,,,,,,,3,,,,,,,,,,,,,,,,,,,,,,,,,,,,,,,,,,,,,,,,,,,,,,,,,,,,,,,,,"[""apple.png""]","[""chocolate_truffle.png""]",,,,6,,,false,,1,,,,,,,857216.785,857215.185,856281.889,856737.3349999998,856731.871,857681.833,,,,
choice,canvas.Screen,2_4_2_6_1_0_0_0_0_4_2,2021-01-15T13:22:41.160Z,,,blank.png,"[""chocolate_truffle.png""]",blank.png,blank.png,blank.png,blank.png,blank.png,blank.png,blank.png,blank.png,blank.png,blank.png,blank.png,,,,,,,,,,,,,,,,,,,,,,,,,,,,,"[""chocolate_truffle.png""]","[""apple.png""]",PB15.png,,,,,,,,,,,0,6,"[""apple.png""]","[""apple.png""]","[""apple.png""]","[""apple.png""]","[""apple.png""]","[""apple.png""]",blank.png,PB18.png,PB18.png,"[""apple.png""]","[""apple.png""]","[""apple.png""]","[""apple.png""]",blank.png,blank.png,"[""apple.png""]","[""apple.png""]","[""apple.png""]","[""apple.png""]","[""apple.png""]","[""apple.png""]",1,"[""chocolate_truffle.png""]",blank.png,blank.png,blank.png,4,"[""apple.png""]","[""apple.png""]","[""apple.png""]","[""apple.png""]",blank.png,blank.png,PB15.png,,,,,,,,,,,1,,,,,,,,,,,,415.3870000001043,,response,,,,,,,,,,,,,3,,,,,,,,,,,,,,,,,,,,,,,,,,,,,,,,,,,,,,,,,,,,,,,,,,,,,,,,,"[""apple.png""]","[""chocolate_truffle.png""]",,,,6,right,keydown(ArrowRight),false,,1,,,,,,,858098.5900000001,858097.2200000001,857215.185,857656.7500000001,857681.833,858548.465,,5,,
square,canvas.Screen,2_4_2_6_1_0_0_0_0_4_3,2021-01-15T13:22:42.594Z,,,blank.png,"[""chocolate_truffle.png""]",blank.png,blank.png,blank.png,blank.png,blank.png,blank.png,blank.png,blank.png,blank.png,blank.png,blank.png,,,,,,,,,,,,,,,,,,,,,,,,,,,,,"[""chocolate_truffle.png""]","[""apple.png""]",PB15.png,,,,,,,,,,,0,6,"[""apple.png""]","[""apple.png""]","[""apple.png""]","[""apple.png""]","[""apple.png""]","[""apple.png""]",blank.png,PB18.png,PB18.png,"[""apple.png""]","[""apple.png""]","[""apple.png""]","[""apple.png""]",blank.png,blank.png,"[""apple.png""]","[""apple.png""]","[""apple.png""]","[""apple.png""]","[""apple.png""]","[""apple.png""]",1,"[""chocolate_truffle.png""]",blank.png,blank.png,blank.png,4,"[""apple.png""]","[""apple.png""]","[""apple.png""]","[""apple.png""]",blank.png,blank.png,PB15.png,,,,,,,,,,,1,,#808080,#33ff3f,,,,,,,,,999.9600000000792,,timeout,,,,,,,,,,,,,3,,,,,,,,,,,,,,,,,,,,,,,,,,,,,,,,,,,,,,,,,,,,,,,,,,,,,,,,,"[""apple.png""]","[""chocolate_truffle.png""]",,,,6,,,false,,1,,,,,white,black,859532.4550000001,859531.759,858531.799,858533.2800000001,858548.465,859548.425,,,,
ITI_late,canvas.Screen,2_4_2_6_1_0_0_0_0_4_4,2021-01-15T13:22:42.844Z,,,blank.png,"[""chocolate_truffle.png""]",blank.png,blank.png,blank.png,blank.png,blank.png,blank.png,blank.png,blank.png,blank.png,blank.png,blank.png,,,,,,,,,,,,,,,,,,,,,,,,,,,,,"[""chocolate_truffle.png""]","[""apple.png""]",PB15.png,,,,,,,,,,,0,6,"[""apple.png""]","[""apple.png""]","[""apple.png""]","[""apple.png""]","[""apple.png""]","[""apple.png""]",blank.png,PB18.png,PB18.png,"[""apple.png""]","[""apple.png""]","[""apple.png""]","[""apple.png""]",blank.png,blank.png,"[""apple.png""]","[""apple.png""]","[""apple.png""]","[""apple.png""]","[""apple.png""]","[""apple.png""]",1,"[""chocolate_truffle.png""]",blank.png,blank.png,blank.png,4,"[""apple.png""]","[""apple.png""]","[""apple.png""]","[""apple.png""]",blank.png,blank.png,PB15.png,,,,,,,,,,,1,,,,,,,,,,,,249.9899999999907,,timeout,,,,,,,,,,,,white,3,,,,,,,,,,,,,,,,,,,,,,,,,,,,,,,,,,,,,,,,,,,,,,,,,,,,,,,,,"[""apple.png""]","[""chocolate_truffle.png""]",,,,6,,,false,,1,,,,,,,859782.315,859781.749,859531.759,859533.7800000003,859548.425,859798.415,,,,
choice_sequence,flow.Sequence,2_4_2_6_1_0_0_0_0_4,2021-01-15T13:22:42.844Z,,,blank.png,"[""chocolate_truffle.png""]",blank.png,blank.png,blank.png,blank.png,blank.png,blank.png,blank.png,blank.png,blank.png,blank.png,blank.png,,,,,,,,,,,,,,,,,,,,,,,,,,,,,"[""chocolate_truffle.png""]","[""apple.png""]",PB15.png,,,,,,,,,,,0,6,"[""apple.png""]","[""apple.png""]","[""apple.png""]","[""apple.png""]","[""apple.png""]","[""apple.png""]",blank.png,PB18.png,PB18.png,"[""apple.png""]","[""apple.png""]","[""apple.png""]","[""apple.png""]",blank.png,blank.png,"[""apple.png""]","[""apple.png""]","[""apple.png""]","[""apple.png""]","[""apple.png""]","[""apple.png""]",1,"[""chocolate_truffle.png""]",blank.png,blank.png,blank.png,4,"[""apple.png""]","[""apple.png""]","[""apple.png""]","[""apple.png""]",blank.png,blank.png,PB15.png,,,,,,,,,,,1,,,,,,,,,,,,3733.1840000000084,,completion,,,,,,,,,,,,,3,,,,,,,,,,,,,,,,,,,,,,,,,,,,,,,,,,,,,,,,,,,,,,,,,,,,,,,,,"[""apple.png""]","[""chocolate_truffle.png""]",,,,6,,,false,,1,,,,,,,859782.7200000002,859781.749,856031.899,856036.4650000001,856048.565,859798.415,,,,
fixCross,canvas.Screen,2_4_2_6_1_0_0_0_0_5_0,2021-01-15T13:22:43.394Z,,,blank.png,"[""chocolate_truffle.png""]",blank.png,blank.png,blank.png,blank.png,blank.png,blank.png,blank.png,blank.png,blank.png,blank.png,blank.png,,,,,,,,,,,,,,,,,,,,,,,,,,,,,"[""chocolate_truffle.png""]","[""apple.png""]",PB12.png,,,,,,,,,,,0,6,"[""apple.png""]","[""apple.png""]","[""apple.png""]","[""apple.png""]","[""apple.png""]","[""apple.png""]",blank.png,PB18.png,PB18.png,"[""apple.png""]","[""apple.png""]",blank.png,blank.png,blank.png,blank.png,"[""apple.png""]","[""apple.png""]","[""apple.png""]","[""apple.png""]","[""apple.png""]","[""apple.png""]",1,"[""chocolate_truffle.png""]",blank.png,blank.png,blank.png,2,"[""apple.png""]","[""apple.png""]",blank.png,blank.png,blank.png,blank.png,PB12.png,,,,,,,,,,,1,,,,,,,,,,,,916.6300000000047,,timeout,,,,,,,,,,,,,3,,,,,,,,,,,,,,,,,,,,,,,,,,,,,,,,,,,,,,,,,,,,,,,,,,,,,,,,,"[""apple.png""]","[""chocolate_truffle.png""]",,,,6,,,false,,1,,,,,,,860332.32,860331.727,859781.749,859786.4500000001,859798.415,860715.045,6,,,
timeout,canvas.Screen,2_4_2_6_1_0_0_0_0_5_1,2021-01-15T13:22:44.261Z,,,blank.png,"[""chocolate_truffle.png""]",blank.png,blank.png,blank.png,blank.png,blank.png,blank.png,blank.png,blank.png,blank.png,blank.png,blank.png,,,,,,,,,,,,,,,,,,,,,,,,,,,,,"[""chocolate_truffle.png""]","[""apple.png""]",PB12.png,,,,,,,,,,,0,6,"[""apple.png""]","[""apple.png""]","[""apple.png""]","[""apple.png""]","[""apple.png""]","[""apple.png""]",blank.png,PB18.png,PB18.png,"[""apple.png""]","[""apple.png""]",blank.png,blank.png,blank.png,blank.png,"[""apple.png""]","[""apple.png""]","[""apple.png""]","[""apple.png""]","[""apple.png""]","[""apple.png""]",1,"[""chocolate_truffle.png""]",blank.png,blank.png,blank.png,2,"[""apple.png""]","[""apple.png""]",blank.png,blank.png,blank.png,blank.png,PB12.png,,,,,,,,,,,1,,,,,,,,,,,,899.9639999999199,,timeout,,,,,,,,,,,,,3,,,,,,,,,,,,,,,,,,,,,,,,,,,,,,,,,,,,,,,,,,,,,,,,,,,,,,,,,"[""apple.png""]","[""chocolate_truffle.png""]",,,,6,,,false,,1,,,,,,,861199.4300000002,861198.359,860331.727,860719.9700000001,860715.045,861615.009,,,,
choice,canvas.Screen,2_4_2_6_1_0_0_0_0_5_2,2021-01-15T13:22:44.719Z,,,blank.png,"[""chocolate_truffle.png""]",blank.png,blank.png,blank.png,blank.png,blank.png,blank.png,blank.png,blank.png,blank.png,blank.png,blank.png,,,,,,,,,,,,,,,,,,,,,,,,,,,,,"[""chocolate_truffle.png""]","[""apple.png""]",PB12.png,,,,,,,,,,,0,6,"[""apple.png""]","[""apple.png""]","[""apple.png""]","[""apple.png""]","[""apple.png""]","[""apple.png""]",blank.png,PB18.png,PB18.png,"[""apple.png""]","[""apple.png""]",blank.png,blank.png,blank.png,blank.png,"[""apple.png""]","[""apple.png""]","[""apple.png""]","[""apple.png""]","[""apple.png""]","[""apple.png""]",1,"[""chocolate_truffle.png""]",blank.png,blank.png,blank.png,2,"[""apple.png""]","[""apple.png""]",blank.png,blank.png,blank.png,blank.png,PB12.png,,,,,,,,,,,1,,,,,,,,,,,,42.151000000187196,,response,,,,,,,,,,,,,3,,,,,,,,,,,,,,,,,,,,,,,,,,,,,,,,,,,,,,,,,,,,,,,,,,,,,,,,,"[""apple.png""]","[""chocolate_truffle.png""]",,,,6,right,keydown(ArrowRight),false,,1,,,,,,,861657.9700000002,861657.1600000001,861198.359,861589.7300000001,861615.009,862048.325,,6,,
square,canvas.Screen,2_4_2_6_1_0_0_0_0_5_3,2021-01-15T13:22:46.094Z,,,blank.png,"[""chocolate_truffle.png""]",blank.png,blank.png,blank.png,blank.png,blank.png,blank.png,blank.png,blank.png,blank.png,blank.png,blank.png,,,,,,,,,,,,,,,,,,,,,,,,,,,,,"[""chocolate_truffle.png""]","[""apple.png""]",PB12.png,,,,,,,,,,,0,6,"[""apple.png""]","[""apple.png""]","[""apple.png""]","[""apple.png""]","[""apple.png""]","[""apple.png""]",blank.png,PB18.png,PB18.png,"[""apple.png""]","[""apple.png""]",blank.png,blank.png,blank.png,blank.png,"[""apple.png""]","[""apple.png""]","[""apple.png""]","[""apple.png""]","[""apple.png""]","[""apple.png""]",1,"[""chocolate_truffle.png""]",blank.png,blank.png,blank.png,2,"[""apple.png""]","[""apple.png""]",blank.png,blank.png,blank.png,blank.png,PB12.png,,,,,,,,,,,1,,#808080,#33ff3f,,,,,,,,,999.9600000000792,,timeout,,,,,,,,,,,,,3,,,,,,,,,,,,,,,,,,,,,,,,,,,,,,,,,,,,,,,,,,,,,,,,,,,,,,,,,"[""apple.png""]","[""chocolate_truffle.png""]",,,,6,,,false,,1,,,,,white,black,863032.475,863031.619,862031.659,862034.7649999999,862048.325,863048.285,,,,
ITI_late,canvas.Screen,2_4_2_6_1_0_0_0_0_5_4,2021-01-15T13:22:46.844Z,,,blank.png,"[""chocolate_truffle.png""]",blank.png,blank.png,blank.png,blank.png,blank.png,blank.png,blank.png,blank.png,blank.png,blank.png,blank.png,,,,,,,,,,,,,,,,,,,,,,,,,,,,,"[""chocolate_truffle.png""]","[""apple.png""]",PB12.png,,,,,,,,,,,0,6,"[""apple.png""]","[""apple.png""]","[""apple.png""]","[""apple.png""]","[""apple.png""]","[""apple.png""]",blank.png,PB18.png,PB18.png,"[""apple.png""]","[""apple.png""]",blank.png,blank.png,blank.png,blank.png,"[""apple.png""]","[""apple.png""]","[""apple.png""]","[""apple.png""]","[""apple.png""]","[""apple.png""]",1,"[""chocolate_truffle.png""]",blank.png,blank.png,blank.png,2,"[""apple.png""]","[""apple.png""]",blank.png,blank.png,blank.png,blank.png,PB12.png,,,,,,,,,,,1,,,,,,,,,,,,749.9699999999721,,timeout,,,,,,,,,,,,white,3,,,,,,,,,,,,,,,,,,,,,,,,,,,,,,,,,,,,,,,,,,,,,,,,,,,,,,,,,"[""apple.png""]","[""chocolate_truffle.png""]",,,,6,,,false,,1,,,,,,,863782.4550000001,863781.589,863031.619,863033.8149999998,863048.285,863798.255,,,,
choice_sequence,flow.Sequence,2_4_2_6_1_0_0_0_0_5,2021-01-15T13:22:46.844Z,,,blank.png,"[""chocolate_truffle.png""]",blank.png,blank.png,blank.png,blank.png,blank.png,blank.png,blank.png,blank.png,blank.png,blank.png,blank.png,,,,,,,,,,,,,,,,,,,,,,,,,,,,,"[""chocolate_truffle.png""]","[""apple.png""]",PB12.png,,,,,,,,,,,0,6,"[""apple.png""]","[""apple.png""]","[""apple.png""]","[""apple.png""]","[""apple.png""]","[""apple.png""]",blank.png,PB18.png,PB18.png,"[""apple.png""]","[""apple.png""]",blank.png,blank.png,blank.png,blank.png,"[""apple.png""]","[""apple.png""]","[""apple.png""]","[""apple.png""]","[""apple.png""]","[""apple.png""]",1,"[""chocolate_truffle.png""]",blank.png,blank.png,blank.png,2,"[""apple.png""]","[""apple.png""]",blank.png,blank.png,blank.png,blank.png,PB12.png,,,,,,,,,,,1,,,,,,,,,,,,3983.173999999999,,completion,,,,,,,,,,,,,3,,,,,,,,,,,,,,,,,,,,,,,,,,,,,,,,,,,,,,,,,,,,,,,,,,,,,,,,,"[""apple.png""]","[""chocolate_truffle.png""]",,,,6,,,false,,1,,,,,,,863782.8599999998,863781.589,859781.749,859785.7949999998,859798.415,863798.255,,,,
fixCross,canvas.Screen,2_4_2_6_1_0_0_0_0_6_0,2021-01-15T13:22:47.544Z,,,blank.png,"[""chocolate_truffle.png""]",blank.png,blank.png,blank.png,blank.png,blank.png,blank.png,blank.png,blank.png,blank.png,blank.png,blank.png,,,,,,,,,,,,,,,,,,,,,,,,,,,,,"[""chocolate_truffle.png""]","[""apple.png""]",PB07.png,,,,,,,,,,,0,6,"[""apple.png""]","[""apple.png""]","[""apple.png""]","[""apple.png""]","[""apple.png""]","[""apple.png""]",blank.png,PB18.png,PB18.png,"[""apple.png""]",blank.png,blank.png,blank.png,blank.png,blank.png,"[""apple.png""]","[""apple.png""]","[""apple.png""]","[""apple.png""]","[""apple.png""]","[""apple.png""]",1,"[""chocolate_truffle.png""]",blank.png,blank.png,blank.png,1,"[""apple.png""]",blank.png,blank.png,blank.png,blank.png,blank.png,PB07.png,,,,,,,,,,,1,,,,,,,,,,,,1049.9579999999842,,timeout,,,,,,,,,,,,,3,,,,,,,,,,,,,,,,,,,,,,,,,,,,,,,,,,,,,,,,,,,,,,,,,,,,,,,,,"[""apple.png""]","[""chocolate_truffle.png""]",,,,6,,,false,,1,,,,,,,864482.5799999998,864481.561,863781.589,863786.5550000002,863798.255,864848.213,7,,,
timeout,canvas.Screen,2_4_2_6_1_0_0_0_0_6_1,2021-01-15T13:22:48.394Z,,,blank.png,"[""chocolate_truffle.png""]",blank.png,blank.png,blank.png,blank.png,blank.png,blank.png,blank.png,blank.png,blank.png,blank.png,blank.png,,,,,,,,,,,,,,,,,,,,,,,,,,,,,"[""chocolate_truffle.png""]","[""apple.png""]",PB07.png,,,,,,,,,,,0,6,"[""apple.png""]","[""apple.png""]","[""apple.png""]","[""apple.png""]","[""apple.png""]","[""apple.png""]",blank.png,PB18.png,PB18.png,"[""apple.png""]",blank.png,blank.png,blank.png,blank.png,blank.png,"[""apple.png""]","[""apple.png""]","[""apple.png""]","[""apple.png""]","[""apple.png""]","[""apple.png""]",1,"[""chocolate_truffle.png""]",blank.png,blank.png,blank.png,1,"[""apple.png""]",blank.png,blank.png,blank.png,blank.png,blank.png,PB07.png,,,,,,,,,,,1,,,,,,,,,,,,866.6319999999832,,timeout,,,,,,,,,,,,,3,,,,,,,,,,,,,,,,,,,,,,,,,,,,,,,,,,,,,,,,,,,,,,,,,,,,,,,,,"[""apple.png""]","[""chocolate_truffle.png""]",,,,6,,,false,,1,,,,,,,865332.5249999998,865331.527,864481.561,864852.8299999998,864848.213,865714.845,,,,
choice,canvas.Screen,2_4_2_6_1_0_0_0_0_6_2,2021-01-15T13:22:49.519Z,,,blank.png,"[""chocolate_truffle.png""]",blank.png,blank.png,blank.png,blank.png,blank.png,blank.png,blank.png,blank.png,blank.png,blank.png,blank.png,,,,,,,,,,,,,,,,,,,,,,,,,,,,,"[""chocolate_truffle.png""]","[""apple.png""]",PB07.png,,,,,,,,,,,0,6,"[""apple.png""]","[""apple.png""]","[""apple.png""]","[""apple.png""]","[""apple.png""]","[""apple.png""]",blank.png,PB18.png,PB18.png,"[""apple.png""]",blank.png,blank.png,blank.png,blank.png,blank.png,"[""apple.png""]","[""apple.png""]","[""apple.png""]","[""apple.png""]","[""apple.png""]","[""apple.png""]",1,"[""chocolate_truffle.png""]",blank.png,blank.png,blank.png,1,"[""apple.png""]",blank.png,blank.png,blank.png,blank.png,blank.png,PB07.png,,,,,,,,,,,1,,,,,,,,,,,,742.1949999998324,,response,,,,,,,,,,,,,3,,,,,,,,,,,,,,,,,,,,,,,,,,,,,,,,,,,,,,,,,,,,,,,,,,,,,,,,,"[""apple.png""]","[""chocolate_truffle.png""]",,,,6,right,keydown(ArrowRight),false,,1,,,,,,,866457.8400000001,866457.0399999998,865331.527,865693.0699999998,865714.845,866814.801,,7,,
square,canvas.Screen,2_4_2_6_1_0_0_0_0_6_3,2021-01-15T13:22:50.860Z,,,blank.png,"[""chocolate_truffle.png""]",blank.png,blank.png,blank.png,blank.png,blank.png,blank.png,blank.png,blank.png,blank.png,blank.png,blank.png,,,,,,,,,,,,,,,,,,,,,,,,,,,,,"[""chocolate_truffle.png""]","[""apple.png""]",PB07.png,,,,,,,,,,,0,6,"[""apple.png""]","[""apple.png""]","[""apple.png""]","[""apple.png""]","[""apple.png""]","[""apple.png""]",blank.png,PB18.png,PB18.png,"[""apple.png""]",blank.png,blank.png,blank.png,blank.png,blank.png,"[""apple.png""]","[""apple.png""]","[""apple.png""]","[""apple.png""]","[""apple.png""]","[""apple.png""]",1,"[""chocolate_truffle.png""]",blank.png,blank.png,blank.png,1,"[""apple.png""]",blank.png,blank.png,blank.png,blank.png,blank.png,PB07.png,,,,,,,,,,,1,,#808080,#33ff3f,,,,,,,,,999.9600000000792,,timeout,,,,,,,,,,,,,3,,,,,,,,,,,,,,,,,,,,,,,,,,,,,,,,,,,,,,,,,,,,,,,,,,,,,,,,,"[""apple.png""]","[""chocolate_truffle.png""]",,,,6,,,false,,1,,,,,white,black,867798.6799999999,867798.095,866798.135,866808.4149999999,866814.801,867814.761,,,,
ITI_late,canvas.Screen,2_4_2_6_1_0_0_0_0_6_4,2021-01-15T13:22:51.610Z,,,blank.png,"[""chocolate_truffle.png""]",blank.png,blank.png,blank.png,blank.png,blank.png,blank.png,blank.png,blank.png,blank.png,blank.png,blank.png,,,,,,,,,,,,,,,,,,,,,,,,,,,,,"[""chocolate_truffle.png""]","[""apple.png""]",PB07.png,,,,,,,,,,,0,6,"[""apple.png""]","[""apple.png""]","[""apple.png""]","[""apple.png""]","[""apple.png""]","[""apple.png""]",blank.png,PB18.png,PB18.png,"[""apple.png""]",blank.png,blank.png,blank.png,blank.png,blank.png,"[""apple.png""]","[""apple.png""]","[""apple.png""]","[""apple.png""]","[""apple.png""]","[""apple.png""]",1,"[""chocolate_truffle.png""]",blank.png,blank.png,blank.png,1,"[""apple.png""]",blank.png,blank.png,blank.png,blank.png,blank.png,PB07.png,,,,,,,,,,,1,,,,,,,,,,,,749.9699999999721,,timeout,,,,,,,,,,,,white,3,,,,,,,,,,,,,,,,,,,,,,,,,,,,,,,,,,,,,,,,,,,,,,,,,,,,,,,,,"[""apple.png""]","[""chocolate_truffle.png""]",,,,6,,,false,,1,,,,,,,868548.7250000001,868548.065,867798.095,867800.0950000001,867814.761,868564.731,,,,
choice_sequence,flow.Sequence,2_4_2_6_1_0_0_0_0_6,2021-01-15T13:22:51.610Z,,,blank.png,"[""chocolate_truffle.png""]",blank.png,blank.png,blank.png,blank.png,blank.png,blank.png,blank.png,blank.png,blank.png,blank.png,blank.png,,,,,,,,,,,,,,,,,,,,,,,,,,,,,"[""chocolate_truffle.png""]","[""apple.png""]",PB07.png,,,,,,,,,,,0,6,"[""apple.png""]","[""apple.png""]","[""apple.png""]","[""apple.png""]","[""apple.png""]","[""apple.png""]",blank.png,PB18.png,PB18.png,"[""apple.png""]",blank.png,blank.png,blank.png,blank.png,blank.png,"[""apple.png""]","[""apple.png""]","[""apple.png""]","[""apple.png""]","[""apple.png""]","[""apple.png""]",1,"[""chocolate_truffle.png""]",blank.png,blank.png,blank.png,1,"[""apple.png""]",blank.png,blank.png,blank.png,blank.png,blank.png,PB07.png,,,,,,,,,,,1,,,,,,,,,,,,4749.8099999999395,,completion,,,,,,,,,,,,,3,,,,,,,,,,,,,,,,,,,,,,,,,,,,,,,,,,,,,,,,,,,,,,,,,,,,,,,,,"[""apple.png""]","[""chocolate_truffle.png""]",,,,6,,,false,,1,,,,,,,868549.1200000001,868548.065,863781.589,863785.8999999999,863798.255,868564.731,,,,
choice_loop,flow.Loop,2_4_2_6_1_0_0_0_0,2021-01-15T13:22:51.611Z,,,,,,,,,,,,,,,,,,,,,,,,,,,,,,,,,,,,,,,,,,,,"[""chocolate_truffle.png""]","[""apple.png""]",,,,,,,,,,,,,,,,,,,,,,,,,,,,,,,,,,,,,,,,,,,,,,,,,,,,,,,,,,,,,,,,,,,,,,32198.71199999994,,completion,,,,,,,,,,,,,,,,,,,,,,,,,,,,,,,,,,,,,,,,,,,,,,,,,,,,,,,,,,,,,,,,,,,,,,"[""apple.png""]","[""chocolate_truffle.png""]",,,,6,,,false,,,,,,,,,868549.3649999999,868548.065,836316.021,836344.4650000001,836349.353,868564.731,,,,
choice_frame,html.Frame,2_4_2_6_1_0_0_0,2021-01-15T13:22:51.611Z,,,,,,,,,,,,,,,,,,,,,,,,,,,,,,,,,,,,,,,,,,,,,,,,,,,,,,,,,,,,,,,,,,,,,,,,,,,,,,,,,,,,,,,,,,,,,,,,,,,,,,,,,,,,,,,,,,,32200.09699999995,,,,,,,,,,,,,,,,,,,,,,,,,,,,,,,,,,,,,,,,,,,,,,,,,,,,,,,,,,,,,,,,,,,,,,,,,,,,,6,,,false,,,,,,,,,868549.555,868549.45,836316.021,836317.1699999998,836349.353,868581.397,,,,
sublock_1,flow.Sequence,2_4_2_6_1_0_0,2021-01-15T13:22:51.611Z,,,,,,,,,,,,,,,,,,,,,,,,,,,,,,,,,,,,,,,,,,,,,,,,,,,,,,,,,,,,,,,,,,,,,,,,,,,,,,,,,,,,,,,,,,,,,,,,,,,,,,,,,,,,,,,,,,,32200.09699999995,,completion,,,,,,,,,,,,,,,,,,,,,,,,,,,,,,,,,,,,,,,,,,,,,,,,,,,,,,,,,,,,,,,,,,,,,,,,,,,6,,,false,,,,,,,,,868549.665,868549.45,836316.021,836317.1349999998,836349.353,868581.397,,,,
fixCross,canvas.Screen,2_4_2_6_1_0_1_0_0_0_0,2021-01-15T13:22:52.027Z,,,blank.png,blank.png,blank.png,blank.png,blank.png,blank.png,blank.png,"[""chocolate_truffle.png""]",blank.png,blank.png,blank.png,blank.png,blank.png,,,,,,,,,,,,,,,,,,,,,,,,,,,,,"[""chocolate_truffle.png""]","[""apple.png""]",PB18.png,,,,,,,,,,,0,6,"[""apple.png""]","[""apple.png""]","[""apple.png""]","[""apple.png""]","[""apple.png""]","[""apple.png""]",blank.png,PB18.png,PB07.png,"[""apple.png""]","[""apple.png""]","[""apple.png""]","[""apple.png""]","[""apple.png""]","[""apple.png""]","[""apple.png""]",blank.png,blank.png,blank.png,blank.png,blank.png,1,"[""chocolate_truffle.png""]",blank.png,blank.png,blank.png,1,"[""apple.png""]",blank.png,blank.png,blank.png,blank.png,blank.png,PB07.png,,,,,,,,,,,1,,,,,,,,,,,,733.3040000000037,,timeout,,,,,,,,,,,,,4,,,,,,,,,,,,,,,,,,,,,,,,,,,,,,,,,,,,,,,,,,,,,,,,,,,,,,,,,"[""apple.png""]","[""chocolate_truffle.png""]",,,,4,,,false,,1,,,,,,,868965.7499999999,868964.715,868564.731,868571.6899999997,868581.397,869314.701,8,,,
timeout,canvas.Screen,2_4_2_6_1_0_1_0_0_0_1,2021-01-15T13:22:52.860Z,,,blank.png,blank.png,blank.png,blank.png,blank.png,blank.png,blank.png,"[""chocolate_truffle.png""]",blank.png,blank.png,blank.png,blank.png,blank.png,,,,,,,,,,,,,,,,,,,,,,,,,,,,,"[""chocolate_truffle.png""]","[""apple.png""]",PB18.png,,,,,,,,,,,0,6,"[""apple.png""]","[""apple.png""]","[""apple.png""]","[""apple.png""]","[""apple.png""]","[""apple.png""]",blank.png,PB18.png,PB07.png,"[""apple.png""]","[""apple.png""]","[""apple.png""]","[""apple.png""]","[""apple.png""]","[""apple.png""]","[""apple.png""]",blank.png,blank.png,blank.png,blank.png,blank.png,1,"[""chocolate_truffle.png""]",blank.png,blank.png,blank.png,1,"[""apple.png""]",blank.png,blank.png,blank.png,blank.png,blank.png,PB07.png,,,,,,,,,,,1,,,,,,,,,,,,849.9660000000149,,timeout,,,,,,,,,,,,,4,,,,,,,,,,,,,,,,,,,,,,,,,,,,,,,,,,,,,,,,,,,,,,,,,,,,,,,,,"[""apple.png""]","[""chocolate_truffle.png""]",,,,4,,,false,,1,,,,,,,869798.765,869798.015,868964.715,869315.6349999999,869314.701,870164.667,,,,
choice,canvas.Screen,2_4_2_6_1_0_1_0_0_0_2,2021-01-15T13:22:53.412Z,,,blank.png,blank.png,blank.png,blank.png,blank.png,blank.png,blank.png,"[""chocolate_truffle.png""]",blank.png,blank.png,blank.png,blank.png,blank.png,,,,,,,,,,,,,,,,,,,,,,,,,,,,,"[""chocolate_truffle.png""]","[""apple.png""]",PB18.png,,,,,,,,,,,0,6,"[""apple.png""]","[""apple.png""]","[""apple.png""]","[""apple.png""]","[""apple.png""]","[""apple.png""]",blank.png,PB18.png,PB07.png,"[""apple.png""]","[""apple.png""]","[""apple.png""]","[""apple.png""]","[""apple.png""]","[""apple.png""]","[""apple.png""]",blank.png,blank.png,blank.png,blank.png,blank.png,1,"[""chocolate_truffle.png""]",blank.png,blank.png,blank.png,1,"[""apple.png""]",blank.png,blank.png,blank.png,blank.png,blank.png,PB07.png,,,,,,,,,,,1,,,,,,,,,,,,184.53799999994226,,response,,,,,,,,,,,,,4,,,,,,,,,,,,,,,,,,,,,,,,,,,,,,,,,,,,,,,,,,,,,,,,,,,,,,,,,"[""apple.png""]","[""chocolate_truffle.png""]",,,,4,left,keydown(ArrowLeft),false,,1,,,,,,,870350.7549999999,870349.205,869798.015,870160.6950000001,870164.667,870714.645,,8,,
square,canvas.Screen,2_4_2_6_1_0_1_0_0_0_3,2021-01-15T13:22:54.760Z,,,blank.png,blank.png,blank.png,blank.png,blank.png,blank.png,blank.png,"[""chocolate_truffle.png""]",blank.png,blank.png,blank.png,blank.png,blank.png,,,,,,,,,,,,,,,,,,,,,,,,,,,,,"[""chocolate_truffle.png""]","[""apple.png""]",PB18.png,,,,,,,,,,,0,6,"[""apple.png""]","[""apple.png""]","[""apple.png""]","[""apple.png""]","[""apple.png""]","[""apple.png""]",blank.png,PB18.png,PB07.png,"[""apple.png""]","[""apple.png""]","[""apple.png""]","[""apple.png""]","[""apple.png""]","[""apple.png""]","[""apple.png""]",blank.png,blank.png,blank.png,blank.png,blank.png,1,"[""chocolate_truffle.png""]",blank.png,blank.png,blank.png,1,"[""apple.png""]",blank.png,blank.png,blank.png,blank.png,blank.png,PB07.png,,,,,,,,,,,1,,#33ff3f,#808080,,,,,,,,,999.9599999999627,,timeout,,,,,,,,,,,,,4,,,,,,,,,,,,,,,,,,,,,,,,,,,,,,,,,,,,,,,,,,,,,,,,,,,,,,,,,"[""apple.png""]","[""chocolate_truffle.png""]",,,,4,,,false,,1,,,,,black,white,871698.91,871697.939,870697.979,870699.725,870714.645,871714.605,,,,
ITI_late,canvas.Screen,2_4_2_6_1_0_1_0_0_0_4,2021-01-15T13:22:56.011Z,,,blank.png,blank.png,blank.png,blank.png,blank.png,blank.png,blank.png,"[""chocolate_truffle.png""]",blank.png,blank.png,blank.png,blank.png,blank.png,,,,,,,,,,,,,,,,,,,,,,,,,,,,,"[""chocolate_truffle.png""]","[""apple.png""]",PB18.png,,,,,,,,,,,0,6,"[""apple.png""]","[""apple.png""]","[""apple.png""]","[""apple.png""]","[""apple.png""]","[""apple.png""]",blank.png,PB18.png,PB07.png,"[""apple.png""]","[""apple.png""]","[""apple.png""]","[""apple.png""]","[""apple.png""]","[""apple.png""]","[""apple.png""]",blank.png,blank.png,blank.png,blank.png,blank.png,1,"[""chocolate_truffle.png""]",blank.png,blank.png,blank.png,1,"[""apple.png""]",blank.png,blank.png,blank.png,blank.png,blank.png,PB07.png,,,,,,,,,,,1,,,,,,,,,,,,1249.9500000000698,,timeout,,,,,,,,,,,,white,4,,,,,,,,,,,,,,,,,,,,,,,,,,,,,,,,,,,,,,,,,,,,,,,,,,,,,,,,,"[""apple.png""]","[""chocolate_truffle.png""]",,,,4,,,false,,1,,,,,,,872949.3750000001,872947.889,871697.939,871700.245,871714.605,872964.555,,,,
choice_sequence,flow.Sequence,2_4_2_6_1_0_1_0_0_0,2021-01-15T13:22:56.011Z,,,blank.png,blank.png,blank.png,blank.png,blank.png,blank.png,blank.png,"[""chocolate_truffle.png""]",blank.png,blank.png,blank.png,blank.png,blank.png,,,,,,,,,,,,,,,,,,,,,,,,,,,,,"[""chocolate_truffle.png""]","[""apple.png""]",PB18.png,,,,,,,,,,,0,6,"[""apple.png""]","[""apple.png""]","[""apple.png""]","[""apple.png""]","[""apple.png""]","[""apple.png""]",blank.png,PB18.png,PB07.png,"[""apple.png""]","[""apple.png""]","[""apple.png""]","[""apple.png""]","[""apple.png""]","[""apple.png""]","[""apple.png""]",blank.png,blank.png,blank.png,blank.png,blank.png,1,"[""chocolate_truffle.png""]",blank.png,blank.png,blank.png,1,"[""apple.png""]",blank.png,blank.png,blank.png,blank.png,blank.png,PB07.png,,,,,,,,,,,1,,,,,,,,,,,,4366.491999999969,,completion,,,,,,,,,,,,,4,,,,,,,,,,,,,,,,,,,,,,,,,,,,,,,,,,,,,,,,,,,,,,,,,,,,,,,,,"[""apple.png""]","[""chocolate_truffle.png""]",,,,4,,,false,,1,,,,,,,872949.7999999998,872947.889,868564.731,868570.9499999998,868581.397,872964.555,,,,
fixCross,canvas.Screen,2_4_2_6_1_0_1_0_0_1_0,2021-01-15T13:22:56.760Z,,,blank.png,"[""chocolate_truffle.png""]",blank.png,blank.png,blank.png,blank.png,blank.png,blank.png,blank.png,blank.png,blank.png,blank.png,blank.png,,,,,,,,,,,,,,,,,,,,,,,,,,,,,"[""chocolate_truffle.png""]","[""apple.png""]",PB17.png,,,,,,,,,,,0,6,"[""apple.png""]","[""apple.png""]","[""apple.png""]","[""apple.png""]","[""apple.png""]","[""apple.png""]",blank.png,PB18.png,PB18.png,"[""apple.png""]","[""apple.png""]","[""apple.png""]","[""apple.png""]","[""apple.png""]","[""apple.png""]","[""apple.png""]","[""apple.png""]","[""apple.png""]","[""apple.png""]","[""apple.png""]","[""apple.png""]",1,"[""chocolate_truffle.png""]",blank.png,blank.png,blank.png,6,"[""apple.png""]","[""apple.png""]","[""apple.png""]","[""apple.png""]","[""apple.png""]","[""apple.png""]",PB17.png,,,,,,,,,,,1,,,,,,,,,,,,1249.9499999999534,,timeout,,,,,,,,,,,,,3,,,,,,,,,,,,,,,,,,,,,,,,,,,,,,,,,,,,,,,,,,,,,,,,,,,,,,,,,"[""apple.png""]","[""chocolate_truffle.png""]",,,,4,,,false,,1,,,,,,,873698.7450000001,873697.859,872947.889,872953.235,872964.555,874214.505,9,,,
timeout,canvas.Screen,2_4_2_6_1_0_1_0_0_1_1,2021-01-15T13:22:57.760Z,,,blank.png,"[""chocolate_truffle.png""]",blank.png,blank.png,blank.png,blank.png,blank.png,blank.png,blank.png,blank.png,blank.png,blank.png,blank.png,,,,,,,,,,,,,,,,,,,,,,,,,,,,,"[""chocolate_truffle.png""]","[""apple.png""]",PB17.png,,,,,,,,,,,0,6,"[""apple.png""]","[""apple.png""]","[""apple.png""]","[""apple.png""]","[""apple.png""]","[""apple.png""]",blank.png,PB18.png,PB18.png,"[""apple.png""]","[""apple.png""]","[""apple.png""]","[""apple.png""]","[""apple.png""]","[""apple.png""]","[""apple.png""]","[""apple.png""]","[""apple.png""]","[""apple.png""]","[""apple.png""]","[""apple.png""]",1,"[""chocolate_truffle.png""]",blank.png,blank.png,blank.png,6,"[""apple.png""]","[""apple.png""]","[""apple.png""]","[""apple.png""]","[""apple.png""]","[""apple.png""]",PB17.png,,,,,,,,,,,1,,,,,,,,,,,,999.9599999999627,,timeout,,,,,,,,,,,,,3,,,,,,,,,,,,,,,,,,,,,,,,,,,,,,,,,,,,,,,,,,,,,,,,,,,,,,,,,"[""apple.png""]","[""chocolate_truffle.png""]",,,,4,,,false,,1,,,,,,,874698.9600000002,874697.819,873697.859,874188.2000000001,874214.505,875214.465,,,,
choice,canvas.Screen,2_4_2_6_1_0_1_0_0_1_2,2021-01-15T13:22:59.703Z,,,blank.png,"[""chocolate_truffle.png""]",blank.png,blank.png,blank.png,blank.png,blank.png,blank.png,blank.png,blank.png,blank.png,blank.png,blank.png,,,,,,,,,,,,,,,,,,,,,,,,,,,,,"[""chocolate_truffle.png""]","[""apple.png""]",PB17.png,,,,,,,,,,,0,6,"[""apple.png""]","[""apple.png""]","[""apple.png""]","[""apple.png""]","[""apple.png""]","[""apple.png""]",blank.png,PB18.png,PB18.png,"[""apple.png""]","[""apple.png""]","[""apple.png""]","[""apple.png""]","[""apple.png""]","[""apple.png""]","[""apple.png""]","[""apple.png""]","[""apple.png""]","[""apple.png""]","[""apple.png""]","[""apple.png""]",1,"[""chocolate_truffle.png""]",blank.png,blank.png,blank.png,6,"[""apple.png""]","[""apple.png""]","[""apple.png""]","[""apple.png""]","[""apple.png""]","[""apple.png""]",PB17.png,,,,,,,,,,,1,,,,,,,,,,,,1426.675000000163,,response,,,,,,,,,,,,,3,,,,,,,,,,,,,,,,,,,,,,,,,,,,,,,,,,,,,,,,,,,,,,,,,,,,,,,,,"[""apple.png""]","[""chocolate_truffle.png""]",,,,4,right,keydown(ArrowRight),false,,1,,,,,,,876642.01,876641.1400000001,874697.819,875196.1499999998,875214.465,877131.055,,9,,
square,canvas.Screen,2_4_2_6_1_0_1_0_0_1_3,2021-01-15T13:23:01.176Z,,,blank.png,"[""chocolate_truffle.png""]",blank.png,blank.png,blank.png,blank.png,blank.png,blank.png,blank.png,blank.png,blank.png,blank.png,blank.png,,,,,,,,,,,,,,,,,,,,,,,,,,,,,"[""chocolate_truffle.png""]","[""apple.png""]",PB17.png,,,,,,,,,,,0,6,"[""apple.png""]","[""apple.png""]","[""apple.png""]","[""apple.png""]","[""apple.png""]","[""apple.png""]",blank.png,PB18.png,PB18.png,"[""apple.png""]","[""apple.png""]","[""apple.png""]","[""apple.png""]","[""apple.png""]","[""apple.png""]","[""apple.png""]","[""apple.png""]","[""apple.png""]","[""apple.png""]","[""apple.png""]","[""apple.png""]",1,"[""chocolate_truffle.png""]",blank.png,blank.png,blank.png,6,"[""apple.png""]","[""apple.png""]","[""apple.png""]","[""apple.png""]","[""apple.png""]","[""apple.png""]",PB17.png,,,,,,,,,,,1,,#808080,#33ff3f,,,,,,,,,999.9599999999627,,timeout,,,,,,,,,,,,,3,,,,,,,,,,,,,,,,,,,,,,,,,,,,,,,,,,,,,,,,,,,,,,,,,,,,,,,,,"[""apple.png""]","[""chocolate_truffle.png""]",,,,4,,,false,,1,,,,,white,black,878115.0950000001,878114.349,877114.389,877130.415,877131.055,878131.015,,,,
ITI_late,canvas.Screen,2_4_2_6_1_0_1_0_0_1_4,2021-01-15T13:23:01.427Z,,,blank.png,"[""chocolate_truffle.png""]",blank.png,blank.png,blank.png,blank.png,blank.png,blank.png,blank.png,blank.png,blank.png,blank.png,blank.png,,,,,,,,,,,,,,,,,,,,,,,,,,,,,"[""chocolate_truffle.png""]","[""apple.png""]",PB17.png,,,,,,,,,,,0,6,"[""apple.png""]","[""apple.png""]","[""apple.png""]","[""apple.png""]","[""apple.png""]","[""apple.png""]",blank.png,PB18.png,PB18.png,"[""apple.png""]","[""apple.png""]","[""apple.png""]","[""apple.png""]","[""apple.png""]","[""apple.png""]","[""apple.png""]","[""apple.png""]","[""apple.png""]","[""apple.png""]","[""apple.png""]","[""apple.png""]",1,"[""chocolate_truffle.png""]",blank.png,blank.png,blank.png,6,"[""apple.png""]","[""apple.png""]","[""apple.png""]","[""apple.png""]","[""apple.png""]","[""apple.png""]",PB17.png,,,,,,,,,,,1,,,,,,,,,,,,249.9899999999907,,timeout,,,,,,,,,,,,white,3,,,,,,,,,,,,,,,,,,,,,,,,,,,,,,,,,,,,,,,,,,,,,,,,,,,,,,,,,"[""apple.png""]","[""chocolate_truffle.png""]",,,,4,,,false,,1,,,,,,,878365.2299999999,878364.339,878114.349,878116.4949999998,878131.015,878381.005,,,,
choice_sequence,flow.Sequence,2_4_2_6_1_0_1_0_0_1,2021-01-15T13:23:01.427Z,,,blank.png,"[""chocolate_truffle.png""]",blank.png,blank.png,blank.png,blank.png,blank.png,blank.png,blank.png,blank.png,blank.png,blank.png,blank.png,,,,,,,,,,,,,,,,,,,,,,,,,,,,,"[""chocolate_truffle.png""]","[""apple.png""]",PB17.png,,,,,,,,,,,0,6,"[""apple.png""]","[""apple.png""]","[""apple.png""]","[""apple.png""]","[""apple.png""]","[""apple.png""]",blank.png,PB18.png,PB18.png,"[""apple.png""]","[""apple.png""]","[""apple.png""]","[""apple.png""]","[""apple.png""]","[""apple.png""]","[""apple.png""]","[""apple.png""]","[""apple.png""]","[""apple.png""]","[""apple.png""]","[""apple.png""]",1,"[""chocolate_truffle.png""]",blank.png,blank.png,blank.png,6,"[""apple.png""]","[""apple.png""]","[""apple.png""]","[""apple.png""]","[""apple.png""]","[""apple.png""]",PB17.png,,,,,,,,,,,1,,,,,,,,,,,,5399.783999999985,,completion,,,,,,,,,,,,,3,,,,,,,,,,,,,,,,,,,,,,,,,,,,,,,,,,,,,,,,,,,,,,,,,,,,,,,,,"[""apple.png""]","[""chocolate_truffle.png""]",,,,4,,,false,,1,,,,,,,878365.6249999999,878364.339,872947.889,872952.4700000002,872964.555,878381.005,,,,
fixCross,canvas.Screen,2_4_2_6_1_0_1_0_0_2_0,2021-01-15T13:23:01.677Z,,,blank.png,"[""chocolate_truffle.png""]",blank.png,blank.png,blank.png,blank.png,blank.png,blank.png,blank.png,blank.png,blank.png,blank.png,blank.png,,,,,,,,,,,,,,,,,,,,,,,,,,,,,"[""chocolate_truffle.png""]","[""apple.png""]",PB14.png,,,,,,,,,,,0,6,"[""apple.png""]","[""apple.png""]","[""apple.png""]","[""apple.png""]","[""apple.png""]","[""apple.png""]",blank.png,PB18.png,PB18.png,"[""apple.png""]","[""apple.png""]","[""apple.png""]",blank.png,blank.png,blank.png,"[""apple.png""]","[""apple.png""]","[""apple.png""]","[""apple.png""]","[""apple.png""]","[""apple.png""]",1,"[""chocolate_truffle.png""]",blank.png,blank.png,blank.png,3,"[""apple.png""]","[""apple.png""]","[""apple.png""]",blank.png,blank.png,blank.png,PB14.png,,,,,,,,,,,1,,,,,,,,,,,,649.9740000000456,,timeout,,,,,,,,,,,,,3,,,,,,,,,,,,,,,,,,,,,,,,,,,,,,,,,,,,,,,,,,,,,,,,,,,,,,,,,"[""apple.png""]","[""chocolate_truffle.png""]",,,,4,,,false,,1,,,,,,,878615.2900000002,878614.329,878364.339,878369.3250000001,878381.005,879030.979,10,,,
timeout,canvas.Screen,2_4_2_6_1_0_1_0_0_2_1,2021-01-15T13:23:02.577Z,,,blank.png,"[""chocolate_truffle.png""]",blank.png,blank.png,blank.png,blank.png,blank.png,blank.png,blank.png,blank.png,blank.png,blank.png,blank.png,,,,,,,,,,,,,,,,,,,,,,,,,,,,,"[""chocolate_truffle.png""]","[""apple.png""]",PB14.png,,,,,,,,,,,0,6,"[""apple.png""]","[""apple.png""]","[""apple.png""]","[""apple.png""]","[""apple.png""]","[""apple.png""]",blank.png,PB18.png,PB18.png,"[""apple.png""]","[""apple.png""]","[""apple.png""]",blank.png,blank.png,blank.png,"[""apple.png""]","[""apple.png""]","[""apple.png""]","[""apple.png""]","[""apple.png""]","[""apple.png""]",1,"[""chocolate_truffle.png""]",blank.png,blank.png,blank.png,3,"[""apple.png""]","[""apple.png""]","[""apple.png""]",blank.png,blank.png,blank.png,PB14.png,,,,,,,,,,,1,,,,,,,,,,,,899.9639999999199,,timeout,,,,,,,,,,,,,3,,,,,,,,,,,,,,,,,,,,,,,,,,,,,,,,,,,,,,,,,,,,,,,,,,,,,,,,,"[""apple.png""]","[""chocolate_truffle.png""]",,,,4,,,false,,1,,,,,,,879515.28,879514.293,878614.329,879027.2249999999,879030.979,879930.943,,,,
choice,canvas.Screen,2_4_2_6_1_0_1_0_0_2_2,2021-01-15T13:23:03.432Z,,,blank.png,"[""chocolate_truffle.png""]",blank.png,blank.png,blank.png,blank.png,blank.png,blank.png,blank.png,blank.png,blank.png,blank.png,blank.png,,,,,,,,,,,,,,,,,,,,,,,,,,,,,"[""chocolate_truffle.png""]","[""apple.png""]",PB14.png,,,,,,,,,,,0,6,"[""apple.png""]","[""apple.png""]","[""apple.png""]","[""apple.png""]","[""apple.png""]","[""apple.png""]",blank.png,PB18.png,PB18.png,"[""apple.png""]","[""apple.png""]","[""apple.png""]",blank.png,blank.png,blank.png,"[""apple.png""]","[""apple.png""]","[""apple.png""]","[""apple.png""]","[""apple.png""]","[""apple.png""]",1,"[""chocolate_truffle.png""]",blank.png,blank.png,blank.png,3,"[""apple.png""]","[""apple.png""]","[""apple.png""]",blank.png,blank.png,blank.png,PB14.png,,,,,,,,,,,1,,,,,,,,,,,,438.4070000000065,,response,,,,,,,,,,,,,3,,,,,,,,,,,,,,,,,,,,,,,,,,,,,,,,,,,,,,,,,,,,,,,,,,,,,,,,,"[""apple.png""]","[""chocolate_truffle.png""]",,,,4,right,keydown(ArrowRight),false,,1,,,,,,,880370.7949999998,880369.35,879514.293,879930.715,879930.943,880797.575,,10,,
square,canvas.Screen,2_4_2_6_1_0_1_0_0_2_3,2021-01-15T13:23:04.843Z,,,blank.png,"[""chocolate_truffle.png""]",blank.png,blank.png,blank.png,blank.png,blank.png,blank.png,blank.png,blank.png,blank.png,blank.png,blank.png,,,,,,,,,,,,,,,,,,,,,,,,,,,,,"[""chocolate_truffle.png""]","[""apple.png""]",PB14.png,,,,,,,,,,,0,6,"[""apple.png""]","[""apple.png""]","[""apple.png""]","[""apple.png""]","[""apple.png""]","[""apple.png""]",blank.png,PB18.png,PB18.png,"[""apple.png""]","[""apple.png""]","[""apple.png""]",blank.png,blank.png,blank.png,"[""apple.png""]","[""apple.png""]","[""apple.png""]","[""apple.png""]","[""apple.png""]","[""apple.png""]",1,"[""chocolate_truffle.png""]",blank.png,blank.png,blank.png,3,"[""apple.png""]","[""apple.png""]","[""apple.png""]",blank.png,blank.png,blank.png,PB14.png,,,,,,,,,,,1,,#808080,#33ff3f,,,,,,,,,999.9600000000792,,timeout,,,,,,,,,,,,,3,,,,,,,,,,,,,,,,,,,,,,,,,,,,,,,,,,,,,,,,,,,,,,,,,,,,,,,,,"[""apple.png""]","[""chocolate_truffle.png""]",,,,4,,,false,,1,,,,,white,black,881781.2349999999,881780.869,880780.909,880783.2749999998,880797.575,881797.535,,,,
