sender,sender_type,sender_id,timestamp,meta,,Blank,DownLeft1,DownLeft2,DownLeft3,DownLeft4,DownLeft5,DownLeft6,DownRight1,DownRight2,DownRight3,DownRight4,DownRight5,DownRight6,FoodHabits_Fru_item1,FoodHabits_Fru_item2,FoodHabits_Fru_item3,FoodHabits_Fru_item4,FoodHabits_Fru_item5,FoodHabits_Fru_item6,FoodHabits_Fru_item7,FoodHabits_Meat_item1,FoodHabits_Meat_item2,FoodHabits_Meat_item3,FoodHabits_Meat_item4,FoodHabits_Meat_item5,FoodHabits_Meat_item6,FoodHabits_Meat_item7,FoodHabits_Swe_item1,FoodHabits_Swe_item2,FoodHabits_Swe_item3,FoodHabits_Swe_item4,FoodHabits_Swe_item5,FoodHabits_Swe_item6,FoodHabits_Swe_item7,FoodHabits_Veg_item1,FoodHabits_Veg_item2,FoodHabits_Veg_item3,FoodHabits_Veg_item4,FoodHabits_Veg_item5,FoodHabits_Veg_item6,FoodHabits_Veg_item7,ImgA,ImgB,LeftBar,PSS_item01,PSS_item02,PSS_item03,PSS_item04,PSS_item05,PSS_item06,PSS_item07,PSS_item08,PSS_item09,PSS_item10,RefA,RefB,RefB1,RefB2,RefB3,RefB4,RefB5,RefB6,RefB7,Ref_PB,RightBar,UpLeft1,UpLeft2,UpLeft3,UpLeft4,UpLeft5,UpLeft6,UpRight1,UpRight2,UpRight3,UpRight4,UpRight5,UpRight6,VarA,VarA1,VarA2,VarA3,VarA4,VarB,VarB1,VarB2,VarB3,VarB4,VarB5,VarB6,Var_PB,attCheck_fileA,attCheck_fileB,attCheck_fileC,attCheck_fileD,attCheck_options,attCheck_valueA,attCheck_valueB,attCheck_valueC,attCheck_valueD,attention_check,block,break1,browser_name,choseL,choseR,consent_form1,consent_form2,consentconfirmation_form1,consentconfirmation_form2,correct,correctResponse,diet,disorder,duration,edu,ended_on,enjoy,full_version,gender,group,hunger,img,imgTask,input_age,input_meal,input_occ,input_remark,lateRespFeed,list,major_version,message,mixQ_item1,mixQ_item2,mixQ_item3,mixQ_item4,mixQ_item5,name,navigator_appName,navigator_userAgent,os,pracQ1_IDa,pracQ1_IDb,pracQ1_IDc,pracQ1_IDd,pracQ1_optionA,pracQ1_optionB,pracQ1_optionC,pracQ1_optionD,pracQ1_valueA,pracQ1_valueB,pracQ1_valueC,pracQ1_valueD,pracQ2_IDa,pracQ2_IDb,pracQ2_IDc,pracQ2_optionA,pracQ2_optionB,pracQ2_optionC,pracQ2_valueA,pracQ2_valueB,pracQ2_valueC,pracQ4_IDa,pracQ4_IDb,pracQ4_IDc,pracQ4_IDd,pracQ4_optionA,pracQ4_optionB,pracQ4_optionC,pracQ4_optionD,pracQ4_valueA,pracQ4_valueB,pracQ4_valueC,pracQ4_valueD,pracQ5_IDa,pracQ5_IDb,pracQ5_IDc,pracQ5_IDd,pracQ5_optionA,pracQ5_optionB,pracQ5_optionC,pracQ5_optionD,pracQ5_valueA,pracQ5_valueB,pracQ5_valueC,pracQ5_valueD,prefHealty,prefUnhealthy,prolific_ID,psessionID,pstudyID,rep,response,response_action,skip,snack,sublock,subtitle,task_difficulty,task_engagement,task_focus,textL,textR,time_commit,time_end,time_render,time_run,time_show,time_switch,trial_count,trial_countO,url,valence
Title,html.Page,0,2021-05-24T15:58:34.274Z,"{""labjs_version"":""20.2.2"",""labjs_build"":{""flavor"":""production"",""commit"":""a25486e0c714a0ae2ce03ff94b7bb6896854dcfa""},""location"":""https://run.pavlovia.org/E3lab/rebund/html/?PROLIFIC_PID=60a5f735d693e52eb308c22b&STUDY_ID=60008f34cd719d13b0d706dd&SESSION_ID=60abccf645d70b2c815eb057"",""userAgent"":""Mozilla/5.0 (Windows NT 10.0; Win64; x64) AppleWebKit/537.36 (KHTML, like Gecko) Chrome/90.0.4430.93 Safari/537.36"",""platform"":""Win32"",""language"":""es-419"",""locale"":""es-MX"",""timeZone"":""America/Mexico_City"",""timezoneOffset"":300,""screen_width"":1536,""screen_height"":864,""scroll_width"":1536,""scroll_height"":674,""window_innerWidth"":1536,""window_innerHeight"":722,""devicePixelRatio"":1.25}",,,,,,,,,,,,,,,,,,,,,,,,,,,,,,,,,,,,,,,,,,,,,,,,,,,,,,,,,,,,,,,,,,,,,,,,,,,,,,,,,,,,,,,,,,,,,,,,,,,,,,,,,,,,,,,,,,,5260.793000141413,,form submission,,,,,,,,,,,,,,,,,,,,,,,,,,,,,,,,,,,,,,,,,,,,,,,,,,,,,,,,,,,,,,,,,,,,,,,,,,,,,,,,,,,,,,,31007.0250001736,31006.715000141412,25679.255,25700.685000047088,25745.922,31012.248,,,"{""PROLIFIC_PID"":""60a5f735d693e52eb308c22b"",""STUDY_ID"":""60008f34cd719d13b0d706dd"",""SESSION_ID"":""60abccf645d70b2c815eb057""}",
get_systemInfo,canvas.Screen,1,2021-05-24T15:58:34.289Z,,,,,,,,,,,,,,,,,,,,,,,,,,,,,,,,,,,,,,,,,,,,,,,,,,,,,,,,,,,,,,,,,,,,,,,,,,,,,,,,,,,,,,,,,,,,,,,,,,,,,,,,,Chrome,,,,,,,,,,,8599.529999999999,,timeout,,90.0.4430.93,,,,,,,,,,,,90,,,,,,,,Netscape,"Mozilla/5.0 (Windows NT 10.0; Win64; x64) AppleWebKit/537.36 (KHTML, like Gecko) Chrome/90.0.4430.93 Safari/537.36",Windows,,,,,,,,,,,,,,,,,,,,,,,,,,,,,,,,,,,,,,,,,,,,,,,,60a5f735d693e52eb308c22b,,60008f34cd719d13b0d706dd,,,,,,,,,,,,,31021.519999951124,31021.265000104904,30995.864,31007.765000220388,31012.248,39611.778,,,,
ConsentForm,html.Form,2_0,2021-05-24T16:00:01.156Z,,,,,,,,,,,,,,,,,,,,,,,,,,,,,,,,,,,,,,,,,,,,,,,,,,,,,,,,,,,,,,,,,,,,,,,,,,,,,,,,,,,,,,,,,,,,,,,,,,,,,,,,,,,,true,true,,,,,,,78276.9719999255,,form submission,,,,,,,,,,,,,,,,,,,,,,,,,,,,,,,,,,,,,,,,,,,,,,,,,,,,,,,,,,,,,,,,,,,,,,,,,,,,,,,,,,,,,,,117888.94500024617,117888.7499999255,31021.265000104904,39684.71000017598,39611.778,117890.439,,,,
PepTalk,html.Page,2_1,2021-05-24T16:00:12.705Z,,,,,,,,,,,,,,,,,,,,,,,,,,,,,,,,,,,,,,,,,,,,,,,,,,,,,,,,,,,,,,,,,,,,,,,,,,,,,,,,,,,,,,,,,,,,,,,,,,,,,,,,,,,,,,,,,,,,11546.945999822827,,form submission,,,,,,,,,,,,,,,,,,,,,,,,,,,,,,,,,,,,,,,,,,,,,,,,,,,,,,,,,,,,,,,,,,,,,,,,,,,,,,,,,,,,,,,129437.59500002488,129437.38499982283,117874.131,117889.03500000015,117890.439,129439.751,,,,
Demographics,html.Form,2_2,2021-05-24T16:00:46.399Z,,,,,,,,,,,,,,,,,,,,,,,,,,,,,,,,,,,,,,,,,,,,,,,,,,,,,,,,,,,,,,,,,,,,,,,,,,,,,,,,,,,,,,,,,,,,,,,,,,,,,,,,,,,,,,,,,,,,33691.873999921765,3,form submission,,,2,,,,,22,,student ,,,,,,,,,,,,,,,,,,,,,,,,,,,,,,,,,,,,,,,,,,,,,,,,,,,,,,,,,,,,,,,,,,,,,,,,,,,,,163131.82000024244,163131.62499992177,129423.2,129437.67999997362,129439.751,163137.927,,,,
InclusionCrit,html.Form,2_3,2021-05-24T16:01:07.001Z,,,,,,,,,,,,,,,,,,,,,,,,,,,,,,,,,,,,,,,,,,,,,,,,,,,,,,,,,,,,,,,,,,,,,,,,,,,,,,,,,,,,,,,,,,,,,,,,,,,,,,,,,,,,,,,,,,0,1,20595.523000174348,,form submission,1,,,,,,,,,,,,,,,,,,,,,,,,,,,,,,,,,,,,,,,,,,,,,,,,,,,,,,,,,,,,,,,,,,,,,,,,,,,,,,,,,,,,,,183733.64500002936,183733.45000017434,163121.369,163131.9249998778,163137.927,183736.511,,,,
Selection,html.Page,2_4_0,2021-05-24T16:01:21.719Z,,,,,,,,,,,,,,,,,,,,,,,,,,,,,,,,,,,,,,,,,,,,,,,,,,,,,,,,,,,,,,,,,,,,,,,,,,,,,,,,,,,,,,,,,,,,,,,,,,,,,,,,,,,,,,,,,,,,14714.64399990061,,form submission,,,,,,,,,,,,,,,,,,,,,,,,,,,,,,,,,,,,,,,,,,,,,,,,,,,,,,,,,,,,,,,,,,,,,,,,,,,,,,,0,,,,,,,,198451.330000069,198451.1549999006,183720.193,183733.78500016406,183736.511,198452.349,,,,
Load,html.Page,2_4_1,2021-05-24T16:01:21.721Z,,,,,,,,,,,,,,,,,,,,,,,,,,,,,,,,,,,,,,,,,,,,,,,,,,,,,,,,,,,,,,,,,,,,,,,,,,,,,,,,,,,,,,,,,,,,,,,,,,,,,,,,,,,,,,,,,,,,48997.41500000001,,timeout,,,,,,,,,,,,,,,,,,,,,,,,,,,,,,,,,,,,,,,,,,,,,,,,,,,,,,,,,,,,,,,,,,,,,,,,,,,,,,,,,,,,,,,198453.75999994576,198453.51500017568,198435.738,198451.41999982297,198452.349,247449.764,,,,
ratings_instructions,html.Screen,2_4_2_0,2021-05-24T16:02:32.029Z,,,,,,,,,,,,,,,,,,,,,,,,,,,,,,,,,,,,,,,,,,,,,,,,,,,,,,,,,,,,,,,,,,,,,,,,,,,,,,,,,,,,,,,,,,,,,,,,,,,,,,,,,,,,,,,,,,,,21309.67099989808,,response,,,,,,,,,,,,,,,,,,,,,,,,,,,,,,,,,,,,,,,,,,,,,,,,,,,,,,,,,,,,,,,,,,,,,,,,,,,,continue,keypress(Space),false,,,,,,,,,268760.92999987304,268759.4349998981,198453.51500017568,247476.96499992162,247449.764,268764.837,0,0,,
fixCross,canvas.Screen,2_4_2_1_0_0,2021-05-24T16:02:32.517Z,,,,,,,,,,,,,,,,,,,,,,,,,,,,,,,,,,,,,,,,,,,,,,,,,,,,,,,,,,,,,,,,,,,,,,,,,,,,,,,,,,,,,,,,,,,,,,,,,,,,,,,,,,,,,,,,,,,,499.94799999997485,,timeout,,,,unhealthy,,chocolate_truffle.png,,,,,,,,,,,,,,,chocolate truffle,,,,,,,,,,,,,,,,,,,,,,,,,,,,,,,,,,,,,,,,,,,,,,,,,,,,,,,,,false,,,,,,,,,269248.8150000572,269248.251,268748.418,268761.1199999228,268764.837,269264.785,,,,
Rating,html.Form,2_4_2_1_0_1,2021-05-24T16:02:47.360Z,,,,,,,,,,,,,,,,,,,,,,,,,,,,,,,,,,,,,,,,,,,,,,,,,,,,,,,,,,,,,,,,,,,,,,,,,,,,,,,,,,,,,,,,,,,,,,,,,,,,,,,,,,,,,,,,,,,,14827.585000202234,,form submission,,,,unhealthy,,chocolate_truffle.png,,,,,,,,,,,,,,,chocolate truffle,,,,,,,,,,,,,,,,,,,,,,,,,,,,,,,,,,,,,,,,,,,,,,,,,,,,,,,,,false,,,,,,,,,284092.55000017583,284092.3700002022,269248.251,269248.91499988735,269264.785,284097.238,,,,83
rating_sequence,flow.Sequence,2_4_2_1_0,2021-05-24T16:02:47.362Z,,,,,,,,,,,,,,,,,,,,,,,,,,,,,,,,,,,,,,,,,,,,,,,,,,,,,,,,,,,,,,,,,,,,,,,,,,,,,,,,,,,,,,,,,,,,,,,,,,,,,,,,,,,,,,,,,,,,15327.53300020221,,completion,,,,unhealthy,,chocolate_truffle.png,,,,,,,,,,,,,,,chocolate truffle,,,,,,,,,,,,,,,,,,,,,,,,,,,,,,,,,,,,,,,,,,,,,,,,,,,,,,,,,false,,,,,,,,,284093.7700001523,284092.3700002022,268748.418,268761.08499988914,268764.837,284097.238,,,,
fixCross,canvas.Screen,2_4_2_1_1_0,2021-05-24T16:02:47.849Z,,,,,,,,,,,,,,,,,,,,,,,,,,,,,,,,,,,,,,,,,,,,,,,,,,,,,,,,,,,,,,,,,,,,,,,,,,,,,,,,,,,,,,,,,,,,,,,,,,,,,,,,,,,,,,,,,,,,500.10599999997066,,timeout,,,,healthy,,cherry.png,,,,,,,,,,,,,,,cherry,,,,,,,,,,,,,,,,,,,,,,,,,,,,,,,,,,,,,,,,,,,,,,,,,,,,,,,,,false,,,,,,,,,284581.37500006706,284580.921,284080.588,284093.8650001772,284097.238,284597.344,,,,
Rating,html.Form,2_4_2_1_1_1,2021-05-24T16:02:51.596Z,,,,,,,,,,,,,,,,,,,,,,,,,,,,,,,,,,,,,,,,,,,,,,,,,,,,,,,,,,,,,,,,,,,,,,,,,,,,,,,,,,,,,,,,,,,,,,,,,,,,,,,,,,,,,,,,,,,,3730.911000058579,,form submission,,,,healthy,,cherry.png,,,,,,,,,,,,,,,cherry,,,,,,,,,,,,,,,,,,,,,,,,,,,,,,,,,,,,,,,,,,,,,,,,,,,,,,,,,false,,,,,,,,,288328.44500010833,288328.25500005856,284580.921,284581.4600000158,284597.344,288347.001,,,,100
rating_sequence,flow.Sequence,2_4_2_1_1,2021-05-24T16:02:51.596Z,,,,,,,,,,,,,,,,,,,,,,,,,,,,,,,,,,,,,,,,,,,,,,,,,,,,,,,,,,,,,,,,,,,,,,,,,,,,,,,,,,,,,,,,,,,,,,,,,,,,,,,,,,,,,,,,,,,,4231.0170000585495,,completion,,,,healthy,,cherry.png,,,,,,,,,,,,,,,cherry,,,,,,,,,,,,,,,,,,,,,,,,,,,,,,,,,,,,,,,,,,,,,,,,,,,,,,,,,false,,,,,,,,,288328.6000001244,288328.25500005856,284080.588,284093.83499994874,284097.238,288347.001,,,,
fixCross,canvas.Screen,2_4_2_1_2_0,2021-05-24T16:02:52.099Z,,,,,,,,,,,,,,,,,,,,,,,,,,,,,,,,,,,,,,,,,,,,,,,,,,,,,,,,,,,,,,,,,,,,,,,,,,,,,,,,,,,,,,,,,,,,,,,,,,,,,,,,,,,,,,,,,,,,500.05100000003586,,timeout,,,,healthy,,coconut.png,,,,,,,,,,,,,,,coconut,,,,,,,,,,,,,,,,,,,,,,,,,,,,,,,,,,,,,,,,,,,,,,,,,,,,,,,,,false,,,,,,,,,288830.79000003636,288830.351,288330.72,288328.6950001493,288347.001,288847.052,,,,
Rating,html.Form,2_4_2_1_2_1,2021-05-24T16:02:58.522Z,,,,,,,,,,,,,,,,,,,,,,,,,,,,,,,,,,,,,,,,,,,,,,,,,,,,,,,,,,,,,,,,,,,,,,,,,,,,,,,,,,,,,,,,,,,,,,,,,,,,,,,,,,,,,,,,,,,,6406.822999936645,,form submission,,,,healthy,,coconut.png,,,,,,,,,,,,,,,coconut,,,,,,,,,,,,,,,,,,,,,,,,,,,,,,,,,,,,,,,,,,,,,,,,,,,,,,,,,false,,,,,,,,,295254.04499983415,295253.87499993667,288830.351,288830.87000017986,288847.052,295263.428,,,,74
rating_sequence,flow.Sequence,2_4_2_1_2,2021-05-24T16:02:58.522Z,,,,,,,,,,,,,,,,,,,,,,,,,,,,,,,,,,,,,,,,,,,,,,,,,,,,,,,,,,,,,,,,,,,,,,,,,,,,,,,,,,,,,,,,,,,,,,,,,,,,,,,,,,,,,,,,,,,,6906.873999936681,,completion,,,,healthy,,coconut.png,,,,,,,,,,,,,,,coconut,,,,,,,,,,,,,,,,,,,,,,,,,,,,,,,,,,,,,,,,,,,,,,,,,,,,,,,,,false,,,,,,,,,295254.1749998927,295253.87499993667,288330.72,288328.6649999209,288347.001,295263.428,,,,
fixCross,canvas.Screen,2_4_2_1_3_0,2021-05-24T16:02:59.015Z,,,,,,,,,,,,,,,,,,,,,,,,,,,,,,,,,,,,,,,,,,,,,,,,,,,,,,,,,,,,,,,,,,,,,,,,,,,,,,,,,,,,,,,,,,,,,,,,,,,,,,,,,,,,,,,,,,,,499.80199999996694,,timeout,,,,healthy,,strawberry.png,,,,,,,,,,,,,,,strawberry,,,,,,,,,,,,,,,,,,,,,,,,,,,,,,,,,,,,,,,,,,,,,,,,,,,,,,,,,false,,,,,,,,,295747.39499995485,295746.891,295246.569,295254.25000023097,295263.428,295763.23,,,,
Rating,html.Form,2_4_2_1_3_1,2021-05-24T16:03:04.609Z,,,,,,,,,,,,,,,,,,,,,,,,,,,,,,,,,,,,,,,,,,,,,,,,,,,,,,,,,,,,,,,,,,,,,,,,,,,,,,,,,,,,,,,,,,,,,,,,,,,,,,,,,,,,,,,,,,,,5577.660000108648,,form submission,,,,healthy,,strawberry.png,,,,,,,,,,,,,,,strawberry,,,,,,,,,,,,,,,,,,,,,,,,,,,,,,,,,,,,,,,,,,,,,,,,,,,,,,,,,false,,,,,,,,,301341.0600000061,301340.89000010863,295746.891,295747.4799999036,295763.23,301346.294,,,,100
rating_sequence,flow.Sequence,2_4_2_1_3,2021-05-24T16:03:04.609Z,,,,,,,,,,,,,,,,,,,,,,,,,,,,,,,,,,,,,,,,,,,,,,,,,,,,,,,,,,,,,,,,,,,,,,,,,,,,,,,,,,,,,,,,,,,,,,,,,,,,,,,,,,,,,,,,,,,,6077.462000108615,,completion,,,,healthy,,strawberry.png,,,,,,,,,,,,,,,strawberry,,,,,,,,,,,,,,,,,,,,,,,,,,,,,,,,,,,,,,,,,,,,,,,,,,,,,,,,,false,,,,,,,,,301341.2350001745,301340.89000010863,295246.569,295254.2300000787,295263.428,301346.294,,,,
fixCross,canvas.Screen,2_4_2_1_4_0,2021-05-24T16:03:05.098Z,,,,,,,,,,,,,,,,,,,,,,,,,,,,,,,,,,,,,,,,,,,,,,,,,,,,,,,,,,,,,,,,,,,,,,,,,,,,,,,,,,,,,,,,,,,,,,,,,,,,,,,,,,,,,,,,,,,,500.17399999999907,,timeout,,,,unhealthy,,candy.png,,,,,,,,,,,,,,,candy,,,,,,,,,,,,,,,,,,,,,,,,,,,,,,,,,,,,,,,,,,,,,,,,,,,,,,,,,false,,,,,,,,,301830.0299998373,301829.53,301329.869,301341.3249999285,301346.294,301846.468,,,,
Rating,html.Form,2_4_2_1_4_1,2021-05-24T16:03:13.011Z,,,,,,,,,,,,,,,,,,,,,,,,,,,,,,,,,,,,,,,,,,,,,,,,,,,,,,,,,,,,,,,,,,,,,,,,,,,,,,,,,,,,,,,,,,,,,,,,,,,,,,,,,,,,,,,,,,,,7897.231999991811,,form submission,,,,unhealthy,,candy.png,,,,,,,,,,,,,,,candy,,,,,,,,,,,,,,,,,,,,,,,,,,,,,,,,,,,,,,,,,,,,,,,,,,,,,,,,,false,,,,,,,,,309743.85000020266,309743.6999999918,301829.53,301830.1099999808,301846.468,309745.74,,,,46
rating_sequence,flow.Sequence,2_4_2_1_4,2021-05-24T16:03:13.011Z,,,,,,,,,,,,,,,,,,,,,,,,,,,,,,,,,,,,,,,,,,,,,,,,,,,,,,,,,,,,,,,,,,,,,,,,,,,,,,,,,,,,,,,,,,,,,,,,,,,,,,,,,,,,,,,,,,,,8397.40599999181,,completion,,,,unhealthy,,candy.png,,,,,,,,,,,,,,,candy,,,,,,,,,,,,,,,,,,,,,,,,,,,,,,,,,,,,,,,,,,,,,,,,,,,,,,,,,false,,,,,,,,,309743.9749999903,309743.6999999918,301329.869,301341.29999997094,301346.294,309745.74,,,,
fixCross,canvas.Screen,2_4_2_1_5_0,2021-05-24T16:03:13.497Z,,,,,,,,,,,,,,,,,,,,,,,,,,,,,,,,,,,,,,,,,,,,,,,,,,,,,,,,,,,,,,,,,,,,,,,,,,,,,,,,,,,,,,,,,,,,,,,,,,,,,,,,,,,,,,,,,,,,499.96899999998277,,timeout,,,,unhealthy,,maltesers.png,,,,,,,,,,,,,,,malteser,,,,,,,,,,,,,,,,,,,,,,,,,,,,,,,,,,,,,,,,,,,,,,,,,,,,,,,,,false,,,,,,,,,310229.50999997556,310229.056,309729.145,309744.0550001338,309745.74,310245.709,,,,
Rating,html.Form,2_4_2_1_5_1,2021-05-24T16:03:20.496Z,,,,,,,,,,,,,,,,,,,,,,,,,,,,,,,,,,,,,,,,,,,,,,,,,,,,,,,,,,,,,,,,,,,,,,,,,,,,,,,,,,,,,,,,,,,,,,,,,,,,,,,,,,,,,,,,,,,,6982.560999846843,,form submission,,,,unhealthy,,maltesers.png,,,,,,,,,,,,,,,malteser,,,,,,,,,,,,,,,,,,,,,,,,,,,,,,,,,,,,,,,,,,,,,,,,,,,,,,,,,false,,,,,,,,,317228.44999982044,317228.2699998468,310229.056,310229.5949999243,310245.709,317247.049,,,,84
rating_sequence,flow.Sequence,2_4_2_1_5,2021-05-24T16:03:20.496Z,,,,,,,,,,,,,,,,,,,,,,,,,,,,,,,,,,,,,,,,,,,,,,,,,,,,,,,,,,,,,,,,,,,,,,,,,,,,,,,,,,,,,,,,,,,,,,,,,,,,,,,,,,,,,,,,,,,,7482.529999846825,,completion,,,,unhealthy,,maltesers.png,,,,,,,,,,,,,,,malteser,,,,,,,,,,,,,,,,,,,,,,,,,,,,,,,,,,,,,,,,,,,,,,,,,,,,,,,,,false,,,,,,,,,317228.61000010744,317228.2699998468,309729.145,309744.0300001763,309745.74,317247.049,,,,
fixCross,canvas.Screen,2_4_2_1_6_0,2021-05-24T16:03:20.996Z,,,,,,,,,,,,,,,,,,,,,,,,,,,,,,,,,,,,,,,,,,,,,,,,,,,,,,,,,,,,,,,,,,,,,,,,,,,,,,,,,,,,,,,,,,,,,,,,,,,,,,,,,,,,,,,,,,,,498.2150000000256,,timeout,,,,healthy,,apple.png,,,,,,,,,,,,,,,apple,,,,,,,,,,,,,,,,,,,,,,,,,,,,,,,,,,,,,,,,,,,,,,,,,,,,,,,,,false,,,,,,,,,317729.4250000268,317728.936,317212.334,317228.70999993756,317247.049,317745.264,,,,
Rating,html.Form,2_4_2_1_6_1,2021-05-24T16:03:26.194Z,,,,,,,,,,,,,,,,,,,,,,,,,,,,,,,,,,,,,,,,,,,,,,,,,,,,,,,,,,,,,,,,,,,,,,,,,,,,,,,,,,,,,,,,,,,,,,,,,,,,,,,,,,,,,,,,,,,,5181.7860000566,,form submission,,,,healthy,,apple.png,,,,,,,,,,,,,,,apple,,,,,,,,,,,,,,,,,,,,,,,,,,,,,,,,,,,,,,,,,,,,,,,,,,,,,,,,,false,,,,,,,,,322927.1949999966,322927.0500000566,317728.936,317729.51500024647,317745.264,322928.261,,,,100
rating_sequence,flow.Sequence,2_4_2_1_6,2021-05-24T16:03:26.194Z,,,,,,,,,,,,,,,,,,,,,,,,,,,,,,,,,,,,,,,,,,,,,,,,,,,,,,,,,,,,,,,,,,,,,,,,,,,,,,,,,,,,,,,,,,,,,,,,,,,,,,,,,,,,,,,,,,,,5680.001000056625,,completion,,,,healthy,,apple.png,,,,,,,,,,,,,,,apple,,,,,,,,,,,,,,,,,,,,,,,,,,,,,,,,,,,,,,,,,,,,,,,,,,,,,,,,,false,,,,,,,,,322927.314999979,322927.0500000566,317212.334,317228.6800001748,317247.049,322928.261,,,,
fixCross,canvas.Screen,2_4_2_1_7_0,2021-05-24T16:03:26.679Z,,,,,,,,,,,,,,,,,,,,,,,,,,,,,,,,,,,,,,,,,,,,,,,,,,,,,,,,,,,,,,,,,,,,,,,,,,,,,,,,,,,,,,,,,,,,,,,,,,,,,,,,,,,,,,,,,,,,499.9990000000107,,timeout,,,,healthy,,orange.png,,,,,,,,,,,,,,,orange,,,,,,,,,,,,,,,,,,,,,,,,,,,,,,,,,,,,,,,,,,,,,,,,,,,,,,,,,false,,,,,,,,,323412.34500007704,323411.808,322911.835,322927.3899998516,322928.261,323428.26,,,,
Rating,html.Form,2_4_2_1_7_1,2021-05-24T16:03:31.061Z,,,,,,,,,,,,,,,,,,,,,,,,,,,,,,,,,,,,,,,,,,,,,,,,,,,,,,,,,,,,,,,,,,,,,,,,,,,,,,,,,,,,,,,,,,,,,,,,,,,,,,,,,,,,,,,,,,,,4365.745000032475,,form submission,,,,healthy,,orange.png,,,,,,,,,,,,,,,orange,,,,,,,,,,,,,,,,,,,,,,,,,,,,,,,,,,,,,,,,,,,,,,,,,,,,,,,,,false,,,,,,,,,327794.1649998538,327794.0050000325,323411.808,323412.45000017807,323428.26,327812.522,,,,100
rating_sequence,flow.Sequence,2_4_2_1_7,2021-05-24T16:03:31.061Z,,,,,,,,,,,,,,,,,,,,,,,,,,,,,,,,,,,,,,,,,,,,,,,,,,,,,,,,,,,,,,,,,,,,,,,,,,,,,,,,,,,,,,,,,,,,,,,,,,,,,,,,,,,,,,,,,,,,4865.744000032486,,completion,,,,healthy,,orange.png,,,,,,,,,,,,,,,orange,,,,,,,,,,,,,,,,,,,,,,,,,,,,,,,,,,,,,,,,,,,,,,,,,,,,,,,,,false,,,,,,,,,327794.3150000647,327794.0050000325,322911.835,322927.37000016496,322928.261,327812.522,,,,
fixCross,canvas.Screen,2_4_2_1_8_0,2021-05-24T16:03:31.563Z,,,,,,,,,,,,,,,,,,,,,,,,,,,,,,,,,,,,,,,,,,,,,,,,,,,,,,,,,,,,,,,,,,,,,,,,,,,,,,,,,,,,,,,,,,,,,,,,,,,,,,,,,,,,,,,,,,,,498.78100000001723,,timeout,,,,unhealthy,,praline.png,,,,,,,,,,,,,,,praline,,,,,,,,,,,,,,,,,,,,,,,,,,,,,,,,,,,,,,,,,,,,,,,,,,,,,,,,,false,,,,,,,,,328296.1949999444,328294.683,327778.333,327794.43999985233,327812.522,328311.303,,,,
Rating,html.Form,2_4_2_1_8_1,2021-05-24T16:03:39.693Z,,,,,,,,,,,,,,,,,,,,,,,,,,,,,,,,,,,,,,,,,,,,,,,,,,,,,,,,,,,,,,,,,,,,,,,,,,,,,,,,,,,,,,,,,,,,,,,,,,,,,,,,,,,,,,,,,,,,8114.787000197277,,form submission,,,,unhealthy,,praline.png,,,,,,,,,,,,,,,praline,,,,,,,,,,,,,,,,,,,,,,,,,,,,,,,,,,,,,,,,,,,,,,,,,,,,,,,,,false,,,,,,,,,336426.22999986634,336426.0900001973,328294.683,328296.2750000879,328311.303,336427.496,,,,65
rating_sequence,flow.Sequence,2_4_2_1_8,2021-05-24T16:03:39.693Z,,,,,,,,,,,,,,,,,,,,,,,,,,,,,,,,,,,,,,,,,,,,,,,,,,,,,,,,,,,,,,,,,,,,,,,,,,,,,,,,,,,,,,,,,,,,,,,,,,,,,,,,,,,,,,,,,,,,8613.568000197294,,completion,,,,unhealthy,,praline.png,,,,,,,,,,,,,,,praline,,,,,,,,,,,,,,,,,,,,,,,,,,,,,,,,,,,,,,,,,,,,,,,,,,,,,,,,,false,,,,,,,,,336426.34999984875,336426.0900001973,327778.333,327794.41000008956,327812.522,336427.496,,,,
fixCross,canvas.Screen,2_4_2_1_9_0,2021-05-24T16:03:40.179Z,,,,,,,,,,,,,,,,,,,,,,,,,,,,,,,,,,,,,,,,,,,,,,,,,,,,,,,,,,,,,,,,,,,,,,,,,,,,,,,,,,,,,,,,,,,,,,,,,,,,,,,,,,,,,,,,,,,,499.9629999999888,,timeout,,,,healthy,,raspberry.png,,,,,,,,,,,,,,,raspberry,,,,,,,,,,,,,,,,,,,,,,,,,,,,,,,,,,,,,,,,,,,,,,,,,,,,,,,,,false,,,,,,,,,336911.54500003904,336911.069,336411.193,336426.42999999225,336427.496,336927.459,,,,
Rating,html.Form,2_4_2_1_9_1,2021-05-24T16:03:43.993Z,,,,,,,,,,,,,,,,,,,,,,,,,,,,,,,,,,,,,,,,,,,,,,,,,,,,,,,,,,,,,,,,,,,,,,,,,,,,,,,,,,,,,,,,,,,,,,,,,,,,,,,,,,,,,,,,,,,,3798.6959998075035,,form submission,,,,healthy,,raspberry.png,,,,,,,,,,,,,,,raspberry,,,,,,,,,,,,,,,,,,,,,,,,,,,,,,,,,,,,,,,,,,,,,,,,,,,,,,,,,false,,,,,,,,,340726.3199998997,340726.1549998075,336911.069,336911.62500018254,336927.459,340727.238,,,,100
rating_sequence,flow.Sequence,2_4_2_1_9,2021-05-24T16:03:43.994Z,,,,,,,,,,,,,,,,,,,,,,,,,,,,,,,,,,,,,,,,,,,,,,,,,,,,,,,,,,,,,,,,,,,,,,,,,,,,,,,,,,,,,,,,,,,,,,,,,,,,,,,,,,,,,,,,,,,,4298.658999807492,,completion,,,,healthy,,raspberry.png,,,,,,,,,,,,,,,raspberry,,,,,,,,,,,,,,,,,,,,,,,,,,,,,,,,,,,,,,,,,,,,,,,,,,,,,,,,,false,,,,,,,,,340726.4749999158,340726.1549998075,336411.193,336426.4050000347,336427.496,340727.238,,,,
fixCross,canvas.Screen,2_4_2_1_10_0,2021-05-24T16:03:44.478Z,,,,,,,,,,,,,,,,,,,,,,,,,,,,,,,,,,,,,,,,,,,,,,,,,,,,,,,,,,,,,,,,,,,,,,,,,,,,,,,,,,,,,,,,,,,,,,,,,,,,,,,,,,,,,,,,,,,,500.22099999996135,,timeout,,,,healthy,,grape.png,,,,,,,,,,,,,,,grape,,,,,,,,,,,,,,,,,,,,,,,,,,,,,,,,,,,,,,,,,,,,,,,,,,,,,,,,,false,,,,,,,,,341211.0399999656,341210.551,340710.641,340726.55999986455,340727.238,341227.459,,,,
Rating,html.Form,2_4_2_1_10_1,2021-05-24T16:03:48.353Z,,,,,,,,,,,,,,,,,,,,,,,,,,,,,,,,,,,,,,,,,,,,,,,,,,,,,,,,,,,,,,,,,,,,,,,,,,,,,,,,,,,,,,,,,,,,,,,,,,,,,,,,,,,,,,,,,,,,3857.9810000535217,,form submission,,,,healthy,,grape.png,,,,,,,,,,,,,,,grape,,,,,,,,,,,,,,,,,,,,,,,,,,,,,,,,,,,,,,,,,,,,,,,,,,,,,,,,,false,,,,,,,,,345085.5749999173,345085.4400000535,341210.551,341211.1300001852,341227.459,345093.735,,,,100
rating_sequence,flow.Sequence,2_4_2_1_10,2021-05-24T16:03:48.353Z,,,,,,,,,,,,,,,,,,,,,,,,,,,,,,,,,,,,,,,,,,,,,,,,,,,,,,,,,,,,,,,,,,,,,,,,,,,,,,,,,,,,,,,,,,,,,,,,,,,,,,,,,,,,,,,,,,,,4358.202000053483,,completion,,,,healthy,,grape.png,,,,,,,,,,,,,,,grape,,,,,,,,,,,,,,,,,,,,,,,,,,,,,,,,,,,,,,,,,,,,,,,,,,,,,,,,,false,,,,,,,,,345085.6949998997,345085.4400000535,340710.641,340726.534999907,340727.238,345093.735,,,,
fixCross,canvas.Screen,2_4_2_1_11_0,2021-05-24T16:03:48.845Z,,,,,,,,,,,,,,,,,,,,,,,,,,,,,,,,,,,,,,,,,,,,,,,,,,,,,,,,,,,,,,,,,,,,,,,,,,,,,,,,,,,,,,,,,,,,,,,,,,,,,,,,,,,,,,,,,,,,499.89300000004005,,timeout,,,,unhealthy,,marshmallow.png,,,,,,,,,,,,,,,marshmallow,,,,,,,,,,,,,,,,,,,,,,,,,,,,,,,,,,,,,,,,,,,,,,,,,,,,,,,,,false,,,,,,,,,345577.7600002475,345577.299,345077.288,345085.7750000432,345093.735,345593.628,,,,
Rating,html.Form,2_4_2_1_11_1,2021-05-24T16:03:56.913Z,,,,,,,,,,,,,,,,,,,,,,,,,,,,,,,,,,,,,,,,,,,,,,,,,,,,,,,,,,,,,,,,,,,,,,,,,,,,,,,,,,,,,,,,,,,,,,,,,,,,,,,,,,,,,,,,,,,,8052.11200006539,,form submission,,,,unhealthy,,marshmallow.png,,,,,,,,,,,,,,,marshmallow,,,,,,,,,,,,,,,,,,,,,,,,,,,,,,,,,,,,,,,,,,,,,,,,,,,,,,,,,false,,,,,,,,,353645.9249998443,353645.7400000654,345577.299,345577.84500019625,345593.628,353659.988,,,,21
rating_sequence,flow.Sequence,2_4_2_1_11,2021-05-24T16:03:56.913Z,,,,,,,,,,,,,,,,,,,,,,,,,,,,,,,,,,,,,,,,,,,,,,,,,,,,,,,,,,,,,,,,,,,,,,,,,,,,,,,,,,,,,,,,,,,,,,,,,,,,,,,,,,,,,,,,,,,,8552.00500006543,,completion,,,,unhealthy,,marshmallow.png,,,,,,,,,,,,,,,marshmallow,,,,,,,,,,,,,,,,,,,,,,,,,,,,,,,,,,,,,,,,,,,,,,,,,,,,,,,,,false,,,,,,,,,353646.07500005513,353645.7400000654,345077.288,345085.7449998148,345093.735,353659.988,,,,
fixCross,canvas.Screen,2_4_2_1_12_0,2021-05-24T16:03:57.411Z,,,,,,,,,,,,,,,,,,,,,,,,,,,,,,,,,,,,,,,,,,,,,,,,,,,,,,,,,,,,,,,,,,,,,,,,,,,,,,,,,,,,,,,,,,,,,,,,,,,,,,,,,,,,,,,,,,,,499.87099999998463,,timeout,,,,unhealthy,,chocolate.png,,,,,,,,,,,,,,,chocolate,,,,,,,,,,,,,,,,,,,,,,,,,,,,,,,,,,,,,,,,,,,,,,,,,,,,,,,,,false,,,,,,,,,354143.9249999821,354143.421,353643.44,353646.17499988526,353659.988,354159.859,,,,
Rating,html.Form,2_4_2_1_12_1,2021-05-24T16:04:05.007Z,,,,,,,,,,,,,,,,,,,,,,,,,,,,,,,,,,,,,,,,,,,,,,,,,,,,,,,,,,,,,,,,,,,,,,,,,,,,,,,,,,,,,,,,,,,,,,,,,,,,,,,,,,,,,,,,,,,,7580.431000103417,,form submission,,,,unhealthy,,chocolate.png,,,,,,,,,,,,,,,chocolate,,,,,,,,,,,,,,,,,,,,,,,,,,,,,,,,,,,,,,,,,,,,,,,,,,,,,,,,,false,,,,,,,,,361740.4300002381,361740.2900001034,354143.421,354144.0050001256,354159.859,361742.627,,,,59
rating_sequence,flow.Sequence,2_4_2_1_12,2021-05-24T16:04:05.008Z,,,,,,,,,,,,,,,,,,,,,,,,,,,,,,,,,,,,,,,,,,,,,,,,,,,,,,,,,,,,,,,,,,,,,,,,,,,,,,,,,,,,,,,,,,,,,,,,,,,,,,,,,,,,,,,,,,,,8080.302000103402,,completion,,,,unhealthy,,chocolate.png,,,,,,,,,,,,,,,chocolate,,,,,,,,,,,,,,,,,,,,,,,,,,,,,,,,,,,,,,,,,,,,,,,,,,,,,,,,,false,,,,,,,,,361740.5550000258,361740.2900001034,353643.44,353646.1399998516,353659.988,361742.627,,,,
fixCross,canvas.Screen,2_4_2_1_13_0,2021-05-24T16:04:05.494Z,,,,,,,,,,,,,,,,,,,,,,,,,,,,,,,,,,,,,,,,,,,,,,,,,,,,,,,,,,,,,,,,,,,,,,,,,,,,,,,,,,,,,,,,,,,,,,,,,,,,,,,,,,,,,,,,,,,,499.99700000003213,,timeout,,,,unhealthy,,gummybear.png,,,,,,,,,,,,,,,gummybear,,,,,,,,,,,,,,,,,,,,,,,,,,,,,,,,,,,,,,,,,,,,,,,,,,,,,,,,,false,,,,,,,,,362226.7900002189,362226.3,361725.99,361740.6299998984,361742.627,362242.624,,,,
Rating,html.Form,2_4_2_1_13_1,2021-05-24T16:04:08.978Z,,,,,,,,,,,,,,,,,,,,,,,,,,,,,,,,,,,,,,,,,,,,,,,,,,,,,,,,,,,,,,,,,,,,,,,,,,,,,,,,,,,,,,,,,,,,,,,,,,,,,,,,,,,,,,,,,,,,3468.455999804486,,form submission,,,,unhealthy,,gummybear.png,,,,,,,,,,,,,,,gummybear,,,,,,,,,,,,,,,,,,,,,,,,,,,,,,,,,,,,,,,,,,,,,,,,,,,,,,,,,false,,,,,,,,,365711.24499989673,365711.0799998045,362226.3,362226.87500016764,362242.624,365726.056,,,,100
rating_sequence,flow.Sequence,2_4_2_1_13,2021-05-24T16:04:08.978Z,,,,,,,,,,,,,,,,,,,,,,,,,,,,,,,,,,,,,,,,,,,,,,,,,,,,,,,,,,,,,,,,,,,,,,,,,,,,,,,,,,,,,,,,,,,,,,,,,,,,,,,,,,,,,,,,,,,,3968.452999804518,,completion,,,,unhealthy,,gummybear.png,,,,,,,,,,,,,,,gummybear,,,,,,,,,,,,,,,,,,,,,,,,,,,,,,,,,,,,,,,,,,,,,,,,,,,,,,,,,false,,,,,,,,,365711.3999999128,365711.0799998045,361725.99,361740.61000021175,361742.627,365726.056,,,,
fixCross,canvas.Screen,2_4_2_1_14_0,2021-05-24T16:04:09.477Z,,,,,,,,,,,,,,,,,,,,,,,,,,,,,,,,,,,,,,,,,,,,,,,,,,,,,,,,,,,,,,,,,,,,,,,,,,,,,,,,,,,,,,,,,,,,,,,,,,,,,,,,,,,,,,,,,,,,499.7360000000335,,timeout,,,,healthy,,pear.png,,,,,,,,,,,,,,,pear,,,,,,,,,,,,,,,,,,,,,,,,,,,,,,,,,,,,,,,,,,,,,,,,,,,,,,,,,false,,,,,,,,,366209.79000022635,366209.324,365709.417,365711.4900001325,365726.056,366225.792,,,,
Rating,html.Form,2_4_2_1_14_1,2021-05-24T16:04:14.945Z,,,,,,,,,,,,,,,,,,,,,,,,,,,,,,,,,,,,,,,,,,,,,,,,,,,,,,,,,,,,,,,,,,,,,,,,,,,,,,,,,,,,,,,,,,,,,,,,,,,,,,,,,,,,,,,,,,,,5451.382999844267,,form submission,,,,healthy,,pear.png,,,,,,,,,,,,,,,pear,,,,,,,,,,,,,,,,,,,,,,,,,,,,,,,,,,,,,,,,,,,,,,,,,,,,,,,,,false,,,,,,,,,371677.3000000976,371677.1749998443,366209.324,366209.8699999042,366225.792,371692.135,,,,71
rating_sequence,flow.Sequence,2_4_2_1_14,2021-05-24T16:04:14.945Z,,,,,,,,,,,,,,,,,,,,,,,,,,,,,,,,,,,,,,,,,,,,,,,,,,,,,,,,,,,,,,,,,,,,,,,,,,,,,,,,,,,,,,,,,,,,,,,,,,,,,,,,,,,,,,,,,,,,5951.118999844301,,completion,,,,healthy,,pear.png,,,,,,,,,,,,,,,pear,,,,,,,,,,,,,,,,,,,,,,,,,,,,,,,,,,,,,,,,,,,,,,,,,,,,,,,,,false,,,,,,,,,371677.4149998091,371677.1749998443,365709.417,365711.46500017494,365726.056,371692.135,,,,
fixCross,canvas.Screen,2_4_2_1_15_0,2021-05-24T16:04:15.445Z,,,,,,,,,,,,,,,,,,,,,,,,,,,,,,,,,,,,,,,,,,,,,,,,,,,,,,,,,,,,,,,,,,,,,,,,,,,,,,,,,,,,,,,,,,,,,,,,,,,,,,,,,,,,,,,,,,,,499.87099999998463,,timeout,,,,unhealthy,,m&m.png,,,,,,,,,,,,,,,m&m,,,,,,,,,,,,,,,,,,,,,,,,,,,,,,,,,,,,,,,,,,,,,,,,,,,,,,,,,false,,,,,,,,,372177.775000222,372175.557,371675.373,371677.4949999526,371692.135,372192.006,,,,
Rating,html.Form,2_4_2_1_15_1,2021-05-24T16:04:19.661Z,,,,,,,,,,,,,,,,,,,,,,,,,,,,,,,,,,,,,,,,,,,,,,,,,,,,,,,,,,,,,,,,,,,,,,,,,,,,,,,,,,,,,,,,,,,,,,,,,,,,,,,,,,,,,,,,,,,,4201.7439998137415,,form submission,,,,unhealthy,,m&m.png,,,,,,,,,,,,,,,m&m,,,,,,,,,,,,,,,,,,,,,,,,,,,,,,,,,,,,,,,,,,,,,,,,,,,,,,,,,false,,,,,,,,,376393.91000010073,376393.74999981374,372175.557,372177.864999976,372192.006,376408.647,,,,100
rating_sequence,flow.Sequence,2_4_2_1_15,2021-05-24T16:04:19.662Z,,,,,,,,,,,,,,,,,,,,,,,,,,,,,,,,,,,,,,,,,,,,,,,,,,,,,,,,,,,,,,,,,,,,,,,,,,,,,,,,,,,,,,,,,,,,,,,,,,,,,,,,,,,,,,,,,,,,4701.614999813726,,completion,,,,unhealthy,,m&m.png,,,,,,,,,,,,,,,m&m,,,,,,,,,,,,,,,,,,,,,,,,,,,,,,,,,,,,,,,,,,,,,,,,,,,,,,,,,false,,,,,,,,,376394.0599998459,376393.74999981374,371675.373,371677.4699999951,371692.135,376408.647,,,,
fixCross,canvas.Screen,2_4_2_1_16_0,2021-05-24T16:04:20.160Z,,,,,,,,,,,,,,,,,,,,,,,,,,,,,,,,,,,,,,,,,,,,,,,,,,,,,,,,,,,,,,,,,,,,,,,,,,,,,,,,,,,,,,,,,,,,,,,,,,,,,,,,,,,,,,,,,,,,499.83400000003166,,timeout,,,,unhealthy,,liqorice.png,,,,,,,,,,,,,,,liquorice,,,,,,,,,,,,,,,,,,,,,,,,,,,,,,,,,,,,,,,,,,,,,,,,,,,,,,,,,false,,,,,,,,,376892.59999990463,376892.125,376392.162,376394.1600001417,376408.647,376908.481,,,,
Rating,html.Form,2_4_2_1_16_1,2021-05-24T16:04:29.267Z,,,,,,,,,,,,,,,,,,,,,,,,,,,,,,,,,,,,,,,,,,,,,,,,,,,,,,,,,,,,,,,,,,,,,,,,,,,,,,,,,,,,,,,,,,,,,,,,,,,,,,,,,,,,,,,,,,,,9090.694000004441,,form submission,,,,unhealthy,,liqorice.png,,,,,,,,,,,,,,,liquorice,,,,,,,,,,,,,,,,,,,,,,,,,,,,,,,,,,,,,,,,,,,,,,,,,,,,,,,,,false,,,,,,,,,385999.3150001392,385999.17500000447,376892.125,376892.6750002429,376908.481,386007.882,,,,14
rating_sequence,flow.Sequence,2_4_2_1_16,2021-05-24T16:04:29.267Z,,,,,,,,,,,,,,,,,,,,,,,,,,,,,,,,,,,,,,,,,,,,,,,,,,,,,,,,,,,,,,,,,,,,,,,,,,,,,,,,,,,,,,,,,,,,,,,,,,,,,,,,,,,,,,,,,,,,9590.528000004473,,completion,,,,unhealthy,,liqorice.png,,,,,,,,,,,,,,,liquorice,,,,,,,,,,,,,,,,,,,,,,,,,,,,,,,,,,,,,,,,,,,,,,,,,,,,,,,,,false,,,,,,,,,385999.4299998507,385999.17500000447,376392.162,376394.1299999133,376408.647,386007.882,,,,
fixCross,canvas.Screen,2_4_2_1_17_0,2021-05-24T16:04:29.760Z,,,,,,,,,,,,,,,,,,,,,,,,,,,,,,,,,,,,,,,,,,,,,,,,,,,,,,,,,,,,,,,,,,,,,,,,,,,,,,,,,,,,,,,,,,,,,,,,,,,,,,,,,,,,,,,,,,,,499.97299999999814,,timeout,,,,healthy,,blueberry.png,,,,,,,,,,,,,,,blueberry,,,,,,,,,,,,,,,,,,,,,,,,,,,,,,,,,,,,,,,,,,,,,,,,,,,,,,,,,false,,,,,,,,,386492.0100001618,386491.482,385991.187,385999.5150002651,386007.882,386507.855,,,,
Rating,html.Form,2_4_2_1_17_1,2021-05-24T16:04:34.565Z,,,,,,,,,,,,,,,,,,,,,,,,,,,,,,,,,,,,,,,,,,,,,,,,,,,,,,,,,,,,,,,,,,,,,,,,,,,,,,,,,,,,,,,,,,,,,,,,,,,,,,,,,,,,,,,,,,,,4789.135000177193,,form submission,,,,healthy,,blueberry.png,,,,,,,,,,,,,,,blueberry,,,,,,,,,,,,,,,,,,,,,,,,,,,,,,,,,,,,,,,,,,,,,,,,,,,,,,,,,false,,,,,,,,,391297.15499980375,391296.9900001772,386491.482,386492.1400002204,386507.855,391390.906,,,,100
rating_sequence,flow.Sequence,2_4_2_1_17,2021-05-24T16:04:34.565Z,,,,,,,,,,,,,,,,,,,,,,,,,,,,,,,,,,,,,,,,,,,,,,,,,,,,,,,,,,,,,,,,,,,,,,,,,,,,,,,,,,,,,,,,,,,,,,,,,,,,,,,,,,,,,,,,,,,,5289.108000177192,,completion,,,,healthy,,blueberry.png,,,,,,,,,,,,,,,blueberry,,,,,,,,,,,,,,,,,,,,,,,,,,,,,,,,,,,,,,,,,,,,,,,,,,,,,,,,,false,,,,,,,,,391297.3050000146,391296.9900001772,385991.187,385999.4899998419,386007.882,391390.906,,,,
rating_loop,flow.Loop,2_4_2_1,2021-05-24T16:04:34.565Z,,,,,,,,,,,,,,,,,,,,,,,,,,,,,,,,,,,,,,,,,,,,,,,,,,,,,,,,,,,,,,,,,,,,,,,,,,,,,,,,,,,,,,,,,,,,,,,,,,,,,,,,,,,,,,,,,,,,122532.15300017718,,completion,,,,,,,,,,,,,,,,,,,,,,,,,,,,,,,,,,,,,,,,,,,,,,,,,,,,,,,,,,,,,,,,,,,,,,,,,,,,,,false,,,,,,,,,391297.424999997,391296.9900001772,268748.418,268761.05500012636,268764.837,391390.906,,,,
data_transmission,html.Screen,2_4_2_2,2021-05-24T16:04:34.572Z,,,,,,,,,,,,,,,,,,,,,,,,,,,,,,,,,,,,,,,,,,,,,,,,,,,,,,,,,,,,,,,,,,,,,,,,,,,,,,,,,,,,,,,,,,,,,,,,,,,,,,,,,,,,,,,,,,,,NaN,,no compatible backend,,,,,,,,,,,,,,,Transferring data,,,,,,,,,,,,,,,,,,,,,,,,,,,,,,,,,,,,,,,,,,,,,,,,,,,,,,,,,,,,,,,false,,,Please wait a second…,,,,,,391304.2049999349,391304.0499999188,,391297.49000025913,,391390.906,,,,
instructions,html.Screen,2_4_2_3,2021-05-24T16:06:37.432Z,,,,,,,,,,,,,,,,,,,,,,,,,,,,,,,,,,,,,,,,,,,,,,,,,,,,,,,,,,,,,,,,,,,,,,,,,,,,,,,,,,,,,,,,,,,,,,,,,,,,,,,,,,,,,,,,,,,,122772.6989998924,,done,,,,,,,,,,,,,,,,,,,,,,,,,,,,,,,,,,,,,,,,,,,,,,,,,,,,,,,,,,,,,,,,,,,,,,,,,,,,,,false,,,,,,,,,514163.8000002131,514163.6049998924,391290.991,391304.3100000359,391390.906,514166.938,,,,
Q1,html.Screen,2_4_2_4_0,2021-05-24T16:06:48.306Z,,,,,,,,,,,,,,,,,,,,,,,,,,,,,,,,,,,,,,,,,,,,,,,,,,,,,,,,,,,,,,,,,,,,,,,,,,,,,,,,,,,,,,,,,,,,,,,,,,,,,,,,,,,,,,,,false,input_Q1==3,,,10869.247000091767,,response,,,,,,,,,,,,,,,,,,,,,,,,,Q1_i4,Q1_i3,Q1_i1,Q1_i2,4,3,1,2,false,correct,false,false,,,,,,,,,,,,,,,,,,,,,,,,,,,,,,,,,,,,,,,,,click #Q1_i3,false,,,,,,,,,525037.8749999218,525036.1850000918,514150.551,514163.9149999246,514166.938,525049.674,,,,
Q1_correct,html.Screen,2_4_2_4_1,2021-05-24T16:06:49.810Z,,,,,,,,,,,,,,,,,,,,,,,,,,,,,,,,,,,,,,,,,,,,,,,,,,,,,,,,,,,,,,,,,,,,,,,,,,,,,,,,,,,,,,,,,,,,,,,,,,,,,,,,,,,,,,,,,,,,1492.1459999257931,,response,,,,,,,,,,,,,,,,,,,,,,,,,,,,,,,,,,,,,,,,,,,,,,,,,,,,,,,,,,,,,,,,,,,,,,,,,,,,,keypress,false,,,,,,,,,526542.2100001015,526541.8199999258,525033.305,525037.984999828,525049.674,526549.565,,,,
Q2,html.Screen,2_4_2_4_2,2021-05-24T16:06:56.863Z,,,,,,,,,,,,,,,,,,,,,,,,,,,,,,,,,,,,,,,,,,,,,,,,,,,,,,,,,,,,,,,,,,,,,,,,,,,,,,,,,,,,,,,,,,,,,,,,,,,,,,,,,,,,,,,,,,,,7044.85000017425,,response,,,,,,,,,,,,,,,,,,,,,,,,,,,,,,,,,,,,,Q2_i1,Q2_i2,Q2_i3,Option 1,Option 2,Same amount,correct,opt2,same,,,,,,,,,,,,,,,,,,,,,,,,,,,,,,,,click #Q2_i1,false,,,,,,,,,533594.9800000526,533594.4150001742,526533.036,526542.3150002025,526549.565,533599.151,,,,
Q2_correct,html.Screen,2_4_2_4_3,2021-05-24T16:06:58.756Z,,,,,,,,,,,,,,,,,,,,,,,,,,,,,,,,,,,,,,,,,,,,,,,,,,,,,,,,,,,,,,,,,,,,,,,,,,,,,,,,,,,,,,,,,,,,,,,,,,,,,,,,,,,,,,,,,,,,1889.0340001402656,,response,,,,,,,,,,,,,,,,,,,,,,,,,,,,,,,,,,,,,,,,,,,,,,,,,,,,,,,,,,,,,,,,,,,,,,,,,,,,,keypress,false,,,,,,,,,535488.5350000113,535488.1850001402,533582.764,533595.0899999589,533599.151,535499.025,,,,
Q4,html.Screen,2_4_2_4_4,2021-05-24T16:07:34.846Z,,,,,,,,,,,,,,,,,,,,,,,,,,,,,,,,,,,,,,,,,,,,,,,,,,,,,,,,,,,,,,,,,,,,,,,,,,,,,,,,,,,,,,,,,,,,,,,,,,,,,,,,,,,,,,,,,,,,36078.97500021232,,response,,,,,,,,,,,,,,,,,,,,,,,,,,,,,,,,,,,,,,,,,,,,,,Q4_i1,Q4_i2,Q4_i3,Q4_i4,Press the arrow key that corresponds with the snack option I prefer,Indicate the number of food items in each snack option,Press the arrow key that corresponds with the snack option with more food items,Press the space key,correct,indicate,morefood,pressspace,,,,,,,,,,,,,,,,,,,,click #Q4_i1,false,,,,,,,,,571578.569999896,571578.0000002123,535482.709,535488.6300000362,535499.025,571580.195,,,,
Q4_correct,html.Screen,2_4_2_4_5,2021-05-24T16:07:35.914Z,,,,,,,,,,,,,,,,,,,,,,,,,,,,,,,,,,,,,,,,,,,,,,,,,,,,,,,,,,,,,,,,,,,,,,,,,,,,,,,,,,,,,,,,,,,,,,,,,,,,,,,,,,,,,,,,,,,,1065.3199999820208,,response,,,,,,,,,,,,,,,,,,,,,,,,,,,,,,,,,,,,,,,,,,,,,,,,,,,,,,,,,,,,,,,,,,,,,,,,,,,,,keypress,false,,,,,,,,,572646.1550001986,572645.514999982,571563.941,571578.6850000732,571580.195,572664.617,,,,
Q5,html.Screen,2_4_2_4_6,2021-05-24T16:07:45.334Z,,,,,,,,,,,,,,,,,,,,,,,,,,,,,,,,,,,,,,,,,,,,,,,,,,,,,,,,,,,,,,,,,,,,,,,,,,,,,,,,,,,,,,,,,,,,,,,,,,,,,,,,,,,,,,,,,,,,9400.88799983135,,response,,,,,,,,,,,,,,,,,,,,,,,,,,,,,,,,,,,,,,,,,,,,,,,,,,,,,,,,,,Q5_i4,Q5_i1,Q5_i3,Q5_i2,Snack Option 1 has been chosen,Snack Option 2 has been chosen,There are more slices of kiwi in snack Option 1,There are more pieces of chocolate in snack Option 2,chose1,correct,morekiwi1,morechoc2,,,,,,,,click #Q5_i1,false,,,,,,,,,582066.3000000641,582065.5049998313,572630.684,572646.2400001474,572664.617,582079.596,,,,
Q5_correct,html.Screen,2_4_2_4_7,2021-05-24T16:07:46.361Z,,,,,,,,,,,,,,,,,,,,,,,,,,,,,,,,,,,,,,,,,,,,,,,,,,,,,,,,,,,,,,,,,,,,,,,,,,,,,,,,,,,,,,,,,,,,,,,,,,,,,,,,,,,,,,,,,,,,1013.5239998594625,,response,,,,,,,,,,,,,,,,,,,,,,,,,,,,,,,,,,,,,,,,,,,,,,,,,,,,,,,,,,,,,,,,,,,,,,,,,,,,,keypress,false,,,,,,,,,583093.4750000015,583093.1199998595,582062.941,582066.4249998517,582079.596,583096.21,,,,
practice_sequence,flow.Sequence,2_4_2_4,2021-05-24T16:07:46.361Z,,,,,,,,,,,,,,,,,,,,,,,,,,,,,,,,,,,,,,,,,,,,,,,,,,,,,,,,,,,,,,,,,,,,,,,,,,,,,,,,,,,,,,,,,,,,,,,,,,,,,,,,,,,,,,,,,,,,68926.18199985946,,completion,,,,,,,,,,,,,,,,,,,,,,,,,,,,,,,,,,,,,,,,,,,,,,,,,,,,,,,,,,,,,,,,,,,,,,,,,,,,,,false,,,,,,,,,583093.60500006,583093.1199998595,514150.551,514163.8850001618,514166.938,583096.21,,,,
final_instru,html.Screen,2_4_2_5,2021-05-24T16:08:44.879Z,,,,,,,,,,,,,,,,,,,,,,,,,,,,,,,,,,,,,,,,,,,,,,,,,,,,,,,,,,,,,,,,,,,,,,,,,,,,,,,,,,,,,,,,,,,,,,,,,,,,,,,,,,,,,,,,,,,,58515.58500026632,,done,,,,,,,,,,,,,,,,,,,,,,,,,,,,,,,,,,,,,,,,,,,,,,,,,,,,,,,,,,,,,,,,,,,,,,,,,,,,,,false,,,,,,,,,641611.9249998592,641611.7950002663,583079.509,583093.6549999751,583096.21,641626.088,,,,
blank_screen,canvas.Screen,2_4_2_6_0,2021-05-24T16:08:46.878Z,,,,,,,,,,,,,,,,,,,,,,,,,,,,,,,,,,,,,,,,,,,,,,,,,,,,,,,,,,,,,,,,,,,,,,,,,,,,,,,,,,,,,,,,,,,,,,,,,,,,,,,,,,,,,,,,,,,,1999.8580000000075,,timeout,,,,,,,,,,,,,,,,,,,,,,,,,,,,,,,,,,,,,,,,,,,,,,,,,,,,,,,,,,,,,,,,,,,,,,,,,,,,,,false,,,,,,,,,643610.0349999033,643609.591,641608.432,641612.0299999602,641626.088,643625.946,,,,
fixCross,canvas.Screen,2_4_2_6_1_0_0_0_0_0_0,2021-05-24T16:08:47.428Z,,,blank.png,blank.png,blank.png,blank.png,blank.png,blank.png,blank.png,"[""gummybear.png""]",blank.png,blank.png,blank.png,blank.png,blank.png,,,,,,,,,,,,,,,,,,,,,,,,,,,,,"[""gummybear.png""]","[""cherry.png""]",PB18.png,,,,,,,,,,,0,6,"[""cherry.png""]","[""cherry.png""]","[""cherry.png""]","[""cherry.png""]","[""cherry.png""]","[""cherry.png""]",blank.png,PB18.png,PB17.png,"[""cherry.png""]","[""cherry.png""]","[""cherry.png""]","[""cherry.png""]","[""cherry.png""]","[""cherry.png""]","[""cherry.png""]","[""cherry.png""]","[""cherry.png""]","[""cherry.png""]","[""cherry.png""]","[""cherry.png""]",1,"[""gummybear.png""]",blank.png,blank.png,blank.png,6,"[""cherry.png""]","[""cherry.png""]","[""cherry.png""]","[""cherry.png""]","[""cherry.png""]","[""cherry.png""]",PB17.png,,,,,,,,,,,1,,,,,,,,,,,,,1466.701000000001,,timeout,,,,,,,,,,,,,4,,,,,,,,,,,,,,,,,,,,,,,,,,,,,,,,,,,,,,,,,,,,,,,,,,,,,,,,,"[""cherry.png""]","[""gummybear.png""]",,,,5,,,false,,1,,,,,,,644160.8600001782,644159.588,643609.591,643632.6750000007,643625.946,645092.647,1,,,
timeout,canvas.Screen,2_4_2_6_1_0_0_0_0_0_1,2021-05-24T16:08:48.844Z,,,blank.png,blank.png,blank.png,blank.png,blank.png,blank.png,blank.png,"[""gummybear.png""]",blank.png,blank.png,blank.png,blank.png,blank.png,,,,,,,,,,,,,,,,,,,,,,,,,,,,,"[""gummybear.png""]","[""cherry.png""]",PB18.png,,,,,,,,,,,0,6,"[""cherry.png""]","[""cherry.png""]","[""cherry.png""]","[""cherry.png""]","[""cherry.png""]","[""cherry.png""]",blank.png,PB18.png,PB17.png,"[""cherry.png""]","[""cherry.png""]","[""cherry.png""]","[""cherry.png""]","[""cherry.png""]","[""cherry.png""]","[""cherry.png""]","[""cherry.png""]","[""cherry.png""]","[""cherry.png""]","[""cherry.png""]","[""cherry.png""]",1,"[""gummybear.png""]",blank.png,blank.png,blank.png,6,"[""cherry.png""]","[""cherry.png""]","[""cherry.png""]","[""cherry.png""]","[""cherry.png""]","[""cherry.png""]",PB17.png,,,,,,,,,,,1,,,,,,,,,,,,,950.1729999999516,,timeout,,,,,,,,,,,,,4,,,,,,,,,,,,,,,,,,,,,,,,,,,,,,,,,,,,,,,,,,,,,,,,,,,,,,,,,"[""cherry.png""]","[""gummybear.png""]",,,,5,,,false,,1,,,,,,,645576.7149999738,645576.108,644159.588,645095.7249999046,645092.647,646042.82,,,,
choice,canvas.Screen,2_4_2_6_1_0_0_0_0_0_2,2021-05-24T16:08:55.881Z,,,blank.png,blank.png,blank.png,blank.png,blank.png,blank.png,blank.png,"[""gummybear.png""]",blank.png,blank.png,blank.png,blank.png,blank.png,,,,,,,,,,,,,,,,,,,,,,,,,,,,,"[""gummybear.png""]","[""cherry.png""]",PB18.png,,,,,,,,,,,0,6,"[""cherry.png""]","[""cherry.png""]","[""cherry.png""]","[""cherry.png""]","[""cherry.png""]","[""cherry.png""]",blank.png,PB18.png,PB17.png,"[""cherry.png""]","[""cherry.png""]","[""cherry.png""]","[""cherry.png""]","[""cherry.png""]","[""cherry.png""]","[""cherry.png""]","[""cherry.png""]","[""cherry.png""]","[""cherry.png""]","[""cherry.png""]","[""cherry.png""]",1,"[""gummybear.png""]",blank.png,blank.png,blank.png,6,"[""cherry.png""]","[""cherry.png""]","[""cherry.png""]","[""cherry.png""]","[""cherry.png""]","[""cherry.png""]",PB17.png,,,,,,,,,,,1,,,,,,,,,,,,,6570.315000225208,,response,,,,,,,,,,,,,4,,,,,,,,,,,,,,,,,,,,,,,,,,,,,,,,,,,,,,,,,,,,,,,,,,,,,,,,,"[""cherry.png""]","[""gummybear.png""]",,,,5,left,keydown(ArrowLeft),false,,1,,,,,,,652613.8400002383,652613.1350002252,645576.108,646046.2549999356,646042.82,653042.131,,1,,
square,canvas.Screen,2_4_2_6_1_0_0_0_0_0_3,2021-05-24T16:08:57.294Z,,,blank.png,blank.png,blank.png,blank.png,blank.png,blank.png,blank.png,"[""gummybear.png""]",blank.png,blank.png,blank.png,blank.png,blank.png,,,,,,,,,,,,,,,,,,,,,,,,,,,,,"[""gummybear.png""]","[""cherry.png""]",PB18.png,,,,,,,,,,,0,6,"[""cherry.png""]","[""cherry.png""]","[""cherry.png""]","[""cherry.png""]","[""cherry.png""]","[""cherry.png""]",blank.png,PB18.png,PB17.png,"[""cherry.png""]","[""cherry.png""]","[""cherry.png""]","[""cherry.png""]","[""cherry.png""]","[""cherry.png""]","[""cherry.png""]","[""cherry.png""]","[""cherry.png""]","[""cherry.png""]","[""cherry.png""]","[""cherry.png""]",1,"[""gummybear.png""]",blank.png,blank.png,blank.png,6,"[""cherry.png""]","[""cherry.png""]","[""cherry.png""]","[""cherry.png""]","[""cherry.png""]","[""cherry.png""]",PB17.png,,,,,,,,,,,1,,,#33ff3f,#808080,,,,,,,,,999.9799999999814,,timeout,,,,,,,,,,,,,4,,,,,,,,,,,,,,,,,,,,,,,,,,,,,,,,,,,,,,,,,,,,,,,,,,,,,,,,,"[""cherry.png""]","[""gummybear.png""]",,,,5,,,false,,1,,,,,black,white,654026.2950002216,654025.681,652992.391,653007.3700002395,653042.131,654042.111,,,,
ITI_late,canvas.Screen,2_4_2_6_1_0_0_0_0_0_4,2021-05-24T16:08:57.545Z,,,blank.png,blank.png,blank.png,blank.png,blank.png,blank.png,blank.png,"[""gummybear.png""]",blank.png,blank.png,blank.png,blank.png,blank.png,,,,,,,,,,,,,,,,,,,,,,,,,,,,,"[""gummybear.png""]","[""cherry.png""]",PB18.png,,,,,,,,,,,0,6,"[""cherry.png""]","[""cherry.png""]","[""cherry.png""]","[""cherry.png""]","[""cherry.png""]","[""cherry.png""]",blank.png,PB18.png,PB17.png,"[""cherry.png""]","[""cherry.png""]","[""cherry.png""]","[""cherry.png""]","[""cherry.png""]","[""cherry.png""]","[""cherry.png""]","[""cherry.png""]","[""cherry.png""]","[""cherry.png""]","[""cherry.png""]","[""cherry.png""]",1,"[""gummybear.png""]",blank.png,blank.png,blank.png,6,"[""cherry.png""]","[""cherry.png""]","[""cherry.png""]","[""cherry.png""]","[""cherry.png""]","[""cherry.png""]",PB17.png,,,,,,,,,,,1,,,,,,,,,,,,,250.02999999991152,,timeout,,,,,,,,,,,,black,4,,,,,,,,,,,,,,,,,,,,,,,,,,,,,,,,,,,,,,,,,,,,,,,,,,,,,,,,,"[""cherry.png""]","[""gummybear.png""]",,,,5,,,false,,1,,,,,,,654276.9550001249,654275.331,654025.681,654027.6299999095,654042.111,654292.141,,,,
choice_sequence,flow.Sequence,2_4_2_6_1_0_0_0_0_0,2021-05-24T16:08:57.545Z,,,blank.png,blank.png,blank.png,blank.png,blank.png,blank.png,blank.png,"[""gummybear.png""]",blank.png,blank.png,blank.png,blank.png,blank.png,,,,,,,,,,,,,,,,,,,,,,,,,,,,,"[""gummybear.png""]","[""cherry.png""]",PB18.png,,,,,,,,,,,0,6,"[""cherry.png""]","[""cherry.png""]","[""cherry.png""]","[""cherry.png""]","[""cherry.png""]","[""cherry.png""]",blank.png,PB18.png,PB17.png,"[""cherry.png""]","[""cherry.png""]","[""cherry.png""]","[""cherry.png""]","[""cherry.png""]","[""cherry.png""]","[""cherry.png""]","[""cherry.png""]","[""cherry.png""]","[""cherry.png""]","[""cherry.png""]","[""cherry.png""]",1,"[""gummybear.png""]",blank.png,blank.png,blank.png,6,"[""cherry.png""]","[""cherry.png""]","[""cherry.png""]","[""cherry.png""]","[""cherry.png""]","[""cherry.png""]",PB17.png,,,,,,,,,,,1,,,,,,,,,,,,,10649.38500000001,,completion,,,,,,,,,,,,,4,,,,,,,,,,,,,,,,,,,,,,,,,,,,,,,,,,,,,,,,,,,,,,,,,,,,,,,,,"[""cherry.png""]","[""gummybear.png""]",,,,5,,,false,,1,,,,,,,654277.3299999535,654275.331,643609.591,643631.7150001414,643625.946,654292.141,,,,
fixCross,canvas.Screen,2_4_2_6_1_0_0_0_0_1_0,2021-05-24T16:08:58.194Z,,,blank.png,blank.png,blank.png,blank.png,blank.png,blank.png,blank.png,"[""gummybear.png""]",blank.png,blank.png,blank.png,blank.png,blank.png,,,,,,,,,,,,,,,,,,,,,,,,,,,,,"[""gummybear.png""]","[""cherry.png""]",PB18.png,,,,,,,,,,,0,6,"[""cherry.png""]","[""cherry.png""]","[""cherry.png""]","[""cherry.png""]","[""cherry.png""]","[""cherry.png""]",blank.png,PB18.png,PB14.png,"[""cherry.png""]","[""cherry.png""]","[""cherry.png""]","[""cherry.png""]","[""cherry.png""]","[""cherry.png""]","[""cherry.png""]","[""cherry.png""]","[""cherry.png""]",blank.png,blank.png,blank.png,1,"[""gummybear.png""]",blank.png,blank.png,blank.png,3,"[""cherry.png""]","[""cherry.png""]","[""cherry.png""]",blank.png,blank.png,blank.png,PB14.png,,,,,,,,,,,1,,,,,,,,,,,,,1216.7790000000969,,timeout,,,,,,,,,,,,,4,,,,,,,,,,,,,,,,,,,,,,,,,,,,,,,,,,,,,,,,,,,,,,,,,,,,,,,,,"[""cherry.png""]","[""gummybear.png""]",,,,5,,,false,,1,,,,,,,654926.2950001284,654925.698,654275.331,654280.5699999444,654292.141,655508.92,2,,,
timeout,canvas.Screen,2_4_2_6_1_0_0_0_0_1_1,2021-05-24T16:08:59.260Z,,,blank.png,blank.png,blank.png,blank.png,blank.png,blank.png,blank.png,"[""gummybear.png""]",blank.png,blank.png,blank.png,blank.png,blank.png,,,,,,,,,,,,,,,,,,,,,,,,,,,,,"[""gummybear.png""]","[""cherry.png""]",PB18.png,,,,,,,,,,,0,6,"[""cherry.png""]","[""cherry.png""]","[""cherry.png""]","[""cherry.png""]","[""cherry.png""]","[""cherry.png""]",blank.png,PB18.png,PB14.png,"[""cherry.png""]","[""cherry.png""]","[""cherry.png""]","[""cherry.png""]","[""cherry.png""]","[""cherry.png""]","[""cherry.png""]","[""cherry.png""]","[""cherry.png""]",blank.png,blank.png,blank.png,1,"[""gummybear.png""]",blank.png,blank.png,blank.png,3,"[""cherry.png""]","[""cherry.png""]","[""cherry.png""]",blank.png,blank.png,blank.png,PB14.png,,,,,,,,,,,1,,,,,,,,,,,,,849.6459999999497,,timeout,,,,,,,,,,,,,4,,,,,,,,,,,,,,,,,,,,,,,,,,,,,,,,,,,,,,,,,,,,,,,,,,,,,,,,,"[""cherry.png""]","[""gummybear.png""]",,,,5,,,false,,1,,,,,,,655992.8999999538,655992.203,654925.698,655511.7250001058,655508.92,656358.566,,,,
choice,canvas.Screen,2_4_2_6_1_0_0_0_0_1_2,2021-05-24T16:09:02.038Z,,,blank.png,blank.png,blank.png,blank.png,blank.png,blank.png,blank.png,"[""gummybear.png""]",blank.png,blank.png,blank.png,blank.png,blank.png,,,,,,,,,,,,,,,,,,,,,,,,,,,,,"[""gummybear.png""]","[""cherry.png""]",PB18.png,,,,,,,,,,,0,6,"[""cherry.png""]","[""cherry.png""]","[""cherry.png""]","[""cherry.png""]","[""cherry.png""]","[""cherry.png""]",blank.png,PB18.png,PB14.png,"[""cherry.png""]","[""cherry.png""]","[""cherry.png""]","[""cherry.png""]","[""cherry.png""]","[""cherry.png""]","[""cherry.png""]","[""cherry.png""]","[""cherry.png""]",blank.png,blank.png,blank.png,1,"[""gummybear.png""]",blank.png,blank.png,blank.png,3,"[""cherry.png""]","[""cherry.png""]","[""cherry.png""]",blank.png,blank.png,blank.png,PB14.png,,,,,,,,,,,1,,,,,,,,,,,,,2409.9940002296353,,response,,,,,,,,,,,,,4,,,,,,,,,,,,,,,,,,,,,,,,,,,,,,,,,,,,,,,,,,,,,,,,,,,,,,,,,"[""cherry.png""]","[""gummybear.png""]",,,,5,left,keydown(ArrowLeft),false,,1,,,,,,,658770.2000001445,658768.5600002296,655992.203,656338.310000021,656358.566,659125.77,,2,,
square,canvas.Screen,2_4_2_6_1_0_0_0_0_1_3,2021-05-24T16:09:03.377Z,,,blank.png,blank.png,blank.png,blank.png,blank.png,blank.png,blank.png,"[""gummybear.png""]",blank.png,blank.png,blank.png,blank.png,blank.png,,,,,,,,,,,,,,,,,,,,,,,,,,,,,"[""gummybear.png""]","[""cherry.png""]",PB18.png,,,,,,,,,,,0,6,"[""cherry.png""]","[""cherry.png""]","[""cherry.png""]","[""cherry.png""]","[""cherry.png""]","[""cherry.png""]",blank.png,PB18.png,PB14.png,"[""cherry.png""]","[""cherry.png""]","[""cherry.png""]","[""cherry.png""]","[""cherry.png""]","[""cherry.png""]","[""cherry.png""]","[""cherry.png""]","[""cherry.png""]",blank.png,blank.png,blank.png,1,"[""gummybear.png""]",blank.png,blank.png,blank.png,3,"[""cherry.png""]","[""cherry.png""]","[""cherry.png""]",blank.png,blank.png,blank.png,PB14.png,,,,,,,,,,,1,,,#33ff3f,#808080,,,,,,,,,999.2630000000354,,timeout,,,,,,,,,,,,,4,,,,,,,,,,,,,,,,,,,,,,,,,,,,,,,,,,,,,,,,,,,,,,,,,,,,,,,,,"[""cherry.png""]","[""gummybear.png""]",,,,5,,,false,,1,,,,,black,white,660109.1300002299,660108.358,659091.679,659107.8750002198,659125.77,660125.033,,,,
ITI_late,canvas.Screen,2_4_2_6_1_0_0_0_0_1_4,2021-05-24T16:09:03.626Z,,,blank.png,blank.png,blank.png,blank.png,blank.png,blank.png,blank.png,"[""gummybear.png""]",blank.png,blank.png,blank.png,blank.png,blank.png,,,,,,,,,,,,,,,,,,,,,,,,,,,,,"[""gummybear.png""]","[""cherry.png""]",PB18.png,,,,,,,,,,,0,6,"[""cherry.png""]","[""cherry.png""]","[""cherry.png""]","[""cherry.png""]","[""cherry.png""]","[""cherry.png""]",blank.png,PB18.png,PB14.png,"[""cherry.png""]","[""cherry.png""]","[""cherry.png""]","[""cherry.png""]","[""cherry.png""]","[""cherry.png""]","[""cherry.png""]","[""cherry.png""]","[""cherry.png""]",blank.png,blank.png,blank.png,1,"[""gummybear.png""]",blank.png,blank.png,blank.png,3,"[""cherry.png""]","[""cherry.png""]","[""cherry.png""]",blank.png,blank.png,blank.png,PB14.png,,,,,,,,,,,1,,,,,,,,,,,,,250.23499999998603,,timeout,,,,,,,,,,,,white,4,,,,,,,,,,,,,,,,,,,,,,,,,,,,,,,,,,,,,,,,,,,,,,,,,,,,,,,,,"[""cherry.png""]","[""gummybear.png""]",,,,5,,,false,,1,,,,,,,660358.8649998419,660358.297,660108.358,660110.4700001888,660125.033,660375.268,,,,
choice_sequence,flow.Sequence,2_4_2_6_1_0_0_0_0_1,2021-05-24T16:09:03.627Z,,,blank.png,blank.png,blank.png,blank.png,blank.png,blank.png,blank.png,"[""gummybear.png""]",blank.png,blank.png,blank.png,blank.png,blank.png,,,,,,,,,,,,,,,,,,,,,,,,,,,,,"[""gummybear.png""]","[""cherry.png""]",PB18.png,,,,,,,,,,,0,6,"[""cherry.png""]","[""cherry.png""]","[""cherry.png""]","[""cherry.png""]","[""cherry.png""]","[""cherry.png""]",blank.png,PB18.png,PB14.png,"[""cherry.png""]","[""cherry.png""]","[""cherry.png""]","[""cherry.png""]","[""cherry.png""]","[""cherry.png""]","[""cherry.png""]","[""cherry.png""]","[""cherry.png""]",blank.png,blank.png,blank.png,1,"[""gummybear.png""]",blank.png,blank.png,blank.png,3,"[""cherry.png""]","[""cherry.png""]","[""cherry.png""]",blank.png,blank.png,blank.png,PB14.png,,,,,,,,,,,1,,,,,,,,,,,,,6066.156000000075,,completion,,,,,,,,,,,,,4,,,,,,,,,,,,,,,,,,,,,,,,,,,,,,,,,,,,,,,,,,,,,,,,,,,,,,,,,"[""cherry.png""]","[""gummybear.png""]",,,,5,,,false,,1,,,,,,,660359.2500002123,660358.297,654275.331,654279.94999988,654292.141,660375.268,,,,
fixCross,canvas.Screen,2_4_2_6_1_0_0_0_0_2_0,2021-05-24T16:09:04.077Z,,,blank.png,blank.png,blank.png,blank.png,blank.png,blank.png,blank.png,"[""gummybear.png""]",blank.png,blank.png,blank.png,blank.png,blank.png,,,,,,,,,,,,,,,,,,,,,,,,,,,,,"[""gummybear.png""]","[""cherry.png""]",PB18.png,,,,,,,,,,,0,6,"[""cherry.png""]","[""cherry.png""]","[""cherry.png""]","[""cherry.png""]","[""cherry.png""]","[""cherry.png""]",blank.png,PB18.png,PB01.png,"[""cherry.png""]","[""cherry.png""]","[""cherry.png""]","[""cherry.png""]","[""cherry.png""]","[""cherry.png""]",blank.png,blank.png,blank.png,blank.png,blank.png,blank.png,1,"[""gummybear.png""]",blank.png,blank.png,blank.png,0,blank.png,blank.png,blank.png,blank.png,blank.png,blank.png,PB01.png,,,,,,,,,,,1,,,,,,,,,,,,,1549.9139999999898,,timeout,,,,,,,,,,,,,4,,,,,,,,,,,,,,,,,,,,,,,,,,,,,,,,,,,,,,,,,,,,,,,,,,,,,,,,,"[""cherry.png""]","[""gummybear.png""]",,,,5,,,false,,1,,,,,,,660809.1199998744,660808.592,660358.297,660362.5099998899,660375.268,661925.182,3,,,
timeout,canvas.Screen,2_4_2_6_1_0_0_0_0_2_1,2021-05-24T16:09:05.677Z,,,blank.png,blank.png,blank.png,blank.png,blank.png,blank.png,blank.png,"[""gummybear.png""]",blank.png,blank.png,blank.png,blank.png,blank.png,,,,,,,,,,,,,,,,,,,,,,,,,,,,,"[""gummybear.png""]","[""cherry.png""]",PB18.png,,,,,,,,,,,0,6,"[""cherry.png""]","[""cherry.png""]","[""cherry.png""]","[""cherry.png""]","[""cherry.png""]","[""cherry.png""]",blank.png,PB18.png,PB01.png,"[""cherry.png""]","[""cherry.png""]","[""cherry.png""]","[""cherry.png""]","[""cherry.png""]","[""cherry.png""]",blank.png,blank.png,blank.png,blank.png,blank.png,blank.png,1,"[""gummybear.png""]",blank.png,blank.png,blank.png,0,blank.png,blank.png,blank.png,blank.png,blank.png,blank.png,PB01.png,,,,,,,,,,,1,,,,,,,,,,,,,782.9780000000028,,timeout,,,,,,,,,,,,,4,,,,,,,,,,,,,,,,,,,,,,,,,,,,,,,,,,,,,,,,,,,,,,,,,,,,,,,,,"[""cherry.png""]","[""gummybear.png""]",,,,5,,,false,,1,,,,,,,662409.9300000817,662408.176,660808.592,661928.1100002117,661925.182,662708.16,,,,
choice,canvas.Screen,2_4_2_6_1_0_0_0_0_2_2,2021-05-24T16:09:11.268Z,,,blank.png,blank.png,blank.png,blank.png,blank.png,blank.png,blank.png,"[""gummybear.png""]",blank.png,blank.png,blank.png,blank.png,blank.png,,,,,,,,,,,,,,,,,,,,,,,,,,,,,"[""gummybear.png""]","[""cherry.png""]",PB18.png,,,,,,,,,,,0,6,"[""cherry.png""]","[""cherry.png""]","[""cherry.png""]","[""cherry.png""]","[""cherry.png""]","[""cherry.png""]",blank.png,PB18.png,PB01.png,"[""cherry.png""]","[""cherry.png""]","[""cherry.png""]","[""cherry.png""]","[""cherry.png""]","[""cherry.png""]",blank.png,blank.png,blank.png,blank.png,blank.png,blank.png,1,"[""gummybear.png""]",blank.png,blank.png,blank.png,0,blank.png,blank.png,blank.png,blank.png,blank.png,blank.png,PB01.png,,,,,,,,,,,1,,,,,,,,,,,,,5290.704999972251,,response,,,,,,,,,,,,,4,,,,,,,,,,,,,,,,,,,,,,,,,,,,,,,,,,,,,,,,,,,,,,,,,,,,,,,,,"[""cherry.png""]","[""gummybear.png""]",,,,5,right,keydown(ArrowRight),false,,1,,,,,,,668000.6249998696,667998.8649999723,662408.176,662705.4099999368,662708.16,668307.843,,3,,
square,canvas.Screen,2_4_2_6_1_0_0_0_0_2_3,2021-05-24T16:09:12.560Z,,,blank.png,blank.png,blank.png,blank.png,blank.png,blank.png,blank.png,"[""gummybear.png""]",blank.png,blank.png,blank.png,blank.png,blank.png,,,,,,,,,,,,,,,,,,,,,,,,,,,,,"[""gummybear.png""]","[""cherry.png""]",PB18.png,,,,,,,,,,,0,6,"[""cherry.png""]","[""cherry.png""]","[""cherry.png""]","[""cherry.png""]","[""cherry.png""]","[""cherry.png""]",blank.png,PB18.png,PB01.png,"[""cherry.png""]","[""cherry.png""]","[""cherry.png""]","[""cherry.png""]","[""cherry.png""]","[""cherry.png""]",blank.png,blank.png,blank.png,blank.png,blank.png,blank.png,1,"[""gummybear.png""]",blank.png,blank.png,blank.png,0,blank.png,blank.png,blank.png,blank.png,blank.png,blank.png,PB01.png,,,,,,,,,,,1,,,#808080,#33ff3f,,,,,,,,,999.9699999999721,,timeout,,,,,,,,,,,,,4,,,,,,,,,,,,,,,,,,,,,,,,,,,,,,,,,,,,,,,,,,,,,,,,,,,,,,,,,"[""cherry.png""]","[""gummybear.png""]",,,,5,,,false,,1,,,,,white,black,669291.9649998657,669291.402,668291.101,668295.1750000939,668307.843,669307.813,,,,
ITI_late,canvas.Screen,2_4_2_6_1_0_0_0_0_2_4,2021-05-24T16:09:13.810Z,,,blank.png,blank.png,blank.png,blank.png,blank.png,blank.png,blank.png,"[""gummybear.png""]",blank.png,blank.png,blank.png,blank.png,blank.png,,,,,,,,,,,,,,,,,,,,,,,,,,,,,"[""gummybear.png""]","[""cherry.png""]",PB18.png,,,,,,,,,,,0,6,"[""cherry.png""]","[""cherry.png""]","[""cherry.png""]","[""cherry.png""]","[""cherry.png""]","[""cherry.png""]",blank.png,PB18.png,PB01.png,"[""cherry.png""]","[""cherry.png""]","[""cherry.png""]","[""cherry.png""]","[""cherry.png""]","[""cherry.png""]",blank.png,blank.png,blank.png,blank.png,blank.png,blank.png,1,"[""gummybear.png""]",blank.png,blank.png,blank.png,0,blank.png,blank.png,blank.png,blank.png,blank.png,blank.png,PB01.png,,,,,,,,,,,1,,,,,,,,,,,,,1249.9139999999898,,timeout,,,,,,,,,,,,black,4,,,,,,,,,,,,,,,,,,,,,,,,,,,,,,,,,,,,,,,,,,,,,,,,,,,,,,,,,"[""cherry.png""]","[""gummybear.png""]",,,,5,,,false,,1,,,,,,,670541.9600000605,670541.396,669291.402,669293.2899999432,669307.813,670557.727,,,,
choice_sequence,flow.Sequence,2_4_2_6_1_0_0_0_0_2,2021-05-24T16:09:13.810Z,,,blank.png,blank.png,blank.png,blank.png,blank.png,blank.png,blank.png,"[""gummybear.png""]",blank.png,blank.png,blank.png,blank.png,blank.png,,,,,,,,,,,,,,,,,,,,,,,,,,,,,"[""gummybear.png""]","[""cherry.png""]",PB18.png,,,,,,,,,,,0,6,"[""cherry.png""]","[""cherry.png""]","[""cherry.png""]","[""cherry.png""]","[""cherry.png""]","[""cherry.png""]",blank.png,PB18.png,PB01.png,"[""cherry.png""]","[""cherry.png""]","[""cherry.png""]","[""cherry.png""]","[""cherry.png""]","[""cherry.png""]",blank.png,blank.png,blank.png,blank.png,blank.png,blank.png,1,"[""gummybear.png""]",blank.png,blank.png,blank.png,0,blank.png,blank.png,blank.png,blank.png,blank.png,blank.png,PB01.png,,,,,,,,,,,1,,,,,,,,,,,,,10166.12799999991,,completion,,,,,,,,,,,,,4,,,,,,,,,,,,,,,,,,,,,,,,,,,,,,,,,,,,,,,,,,,,,,,,,,,,,,,,,"[""cherry.png""]","[""gummybear.png""]",,,,5,,,false,,1,,,,,,,670542.3200000077,670541.396,660358.297,660361.880000215,660375.268,670557.727,,,,
fixCross,canvas.Screen,2_4_2_6_1_0_0_0_0_3_0,2021-05-24T16:09:14.559Z,,,blank.png,blank.png,blank.png,blank.png,blank.png,blank.png,blank.png,"[""gummybear.png""]",blank.png,blank.png,blank.png,blank.png,blank.png,,,,,,,,,,,,,,,,,,,,,,,,,,,,,"[""gummybear.png""]","[""cherry.png""]",PB18.png,,,,,,,,,,,0,6,"[""cherry.png""]","[""cherry.png""]","[""cherry.png""]","[""cherry.png""]","[""cherry.png""]","[""cherry.png""]",blank.png,PB18.png,PB15.png,"[""cherry.png""]","[""cherry.png""]","[""cherry.png""]","[""cherry.png""]","[""cherry.png""]","[""cherry.png""]","[""cherry.png""]","[""cherry.png""]","[""cherry.png""]","[""cherry.png""]",blank.png,blank.png,1,"[""gummybear.png""]",blank.png,blank.png,blank.png,4,"[""cherry.png""]","[""cherry.png""]","[""cherry.png""]","[""cherry.png""]",blank.png,blank.png,PB15.png,,,,,,,,,,,1,,,,,,,,,,,,,1099.9790000000503,,timeout,,,,,,,,,,,,,4,,,,,,,,,,,,,,,,,,,,,,,,,,,,,,,,,,,,,,,,,,,,,,,,,,,,,,,,,"[""cherry.png""]","[""gummybear.png""]",,,,5,,,false,,1,,,,,,,671291.8850001879,671291.317,670541.396,670545.5599999987,670557.727,671657.706,4,,,
timeout,canvas.Screen,2_4_2_6_1_0_0_0_0_3_1,2021-05-24T16:09:15.409Z,,,blank.png,blank.png,blank.png,blank.png,blank.png,blank.png,blank.png,"[""gummybear.png""]",blank.png,blank.png,blank.png,blank.png,blank.png,,,,,,,,,,,,,,,,,,,,,,,,,,,,,"[""gummybear.png""]","[""cherry.png""]",PB18.png,,,,,,,,,,,0,6,"[""cherry.png""]","[""cherry.png""]","[""cherry.png""]","[""cherry.png""]","[""cherry.png""]","[""cherry.png""]",blank.png,PB18.png,PB15.png,"[""cherry.png""]","[""cherry.png""]","[""cherry.png""]","[""cherry.png""]","[""cherry.png""]","[""cherry.png""]","[""cherry.png""]","[""cherry.png""]","[""cherry.png""]","[""cherry.png""]",blank.png,blank.png,1,"[""gummybear.png""]",blank.png,blank.png,blank.png,4,"[""cherry.png""]","[""cherry.png""]","[""cherry.png""]","[""cherry.png""]",blank.png,blank.png,PB15.png,,,,,,,,,,,1,,,,,,,,,,,,,866.5389999999898,,timeout,,,,,,,,,,,,,4,,,,,,,,,,,,,,,,,,,,,,,,,,,,,,,,,,,,,,,,,,,,,,,,,,,,,,,,,"[""cherry.png""]","[""gummybear.png""]",,,,5,,,false,,1,,,,,,,672141.8099999428,672141.218,671291.317,671660.6649998575,671657.706,672524.245,,,,
choice,canvas.Screen,2_4_2_6_1_0_0_0_0_3_2,2021-05-24T16:09:16.621Z,,,blank.png,blank.png,blank.png,blank.png,blank.png,blank.png,blank.png,"[""gummybear.png""]",blank.png,blank.png,blank.png,blank.png,blank.png,,,,,,,,,,,,,,,,,,,,,,,,,,,,,"[""gummybear.png""]","[""cherry.png""]",PB18.png,,,,,,,,,,,0,6,"[""cherry.png""]","[""cherry.png""]","[""cherry.png""]","[""cherry.png""]","[""cherry.png""]","[""cherry.png""]",blank.png,PB18.png,PB15.png,"[""cherry.png""]","[""cherry.png""]","[""cherry.png""]","[""cherry.png""]","[""cherry.png""]","[""cherry.png""]","[""cherry.png""]","[""cherry.png""]","[""cherry.png""]","[""cherry.png""]",blank.png,blank.png,1,"[""gummybear.png""]",blank.png,blank.png,blank.png,4,"[""cherry.png""]","[""cherry.png""]","[""cherry.png""]","[""cherry.png""]",blank.png,blank.png,PB15.png,,,,,,,,,,,1,,,,,,,,,,,,,828.8850001777755,,response,,,,,,,,,,,,,4,,,,,,,,,,,,,,,,,,,,,,,,,,,,,,,,,,,,,,,,,,,,,,,,,,,,,,,,,"[""cherry.png""]","[""gummybear.png""]",,,,5,left,keydown(ArrowLeft),false,,1,,,,,,,673353.935000021,673353.1300001778,672141.218,672504.6049999073,672524.245,673724.165,,4,,
square,canvas.Screen,2_4_2_6_1_0_0_0_0_3_3,2021-05-24T16:09:17.976Z,,,blank.png,blank.png,blank.png,blank.png,blank.png,blank.png,blank.png,"[""gummybear.png""]",blank.png,blank.png,blank.png,blank.png,blank.png,,,,,,,,,,,,,,,,,,,,,,,,,,,,,"[""gummybear.png""]","[""cherry.png""]",PB18.png,,,,,,,,,,,0,6,"[""cherry.png""]","[""cherry.png""]","[""cherry.png""]","[""cherry.png""]","[""cherry.png""]","[""cherry.png""]",blank.png,PB18.png,PB15.png,"[""cherry.png""]","[""cherry.png""]","[""cherry.png""]","[""cherry.png""]","[""cherry.png""]","[""cherry.png""]","[""cherry.png""]","[""cherry.png""]","[""cherry.png""]","[""cherry.png""]",blank.png,blank.png,1,"[""gummybear.png""]",blank.png,blank.png,blank.png,4,"[""cherry.png""]","[""cherry.png""]","[""cherry.png""]","[""cherry.png""]",blank.png,blank.png,PB15.png,,,,,,,,,,,1,,,#33ff3f,#808080,,,,,,,,,1000.1539999999804,,timeout,,,,,,,,,,,,,4,,,,,,,,,,,,,,,,,,,,,,,,,,,,,,,,,,,,,,,,,,,,,,,,,,,,,,,,,"[""cherry.png""]","[""gummybear.png""]",,,,5,,,false,,1,,,,,black,white,674708.6399998516,674707.749,673690.962,673703.0600002035,673724.165,674724.319,,,,
ITI_late,canvas.Screen,2_4_2_6_1_0_0_0_0_3_4,2021-05-24T16:09:18.726Z,,,blank.png,blank.png,blank.png,blank.png,blank.png,blank.png,blank.png,"[""gummybear.png""]",blank.png,blank.png,blank.png,blank.png,blank.png,,,,,,,,,,,,,,,,,,,,,,,,,,,,,"[""gummybear.png""]","[""cherry.png""]",PB18.png,,,,,,,,,,,0,6,"[""cherry.png""]","[""cherry.png""]","[""cherry.png""]","[""cherry.png""]","[""cherry.png""]","[""cherry.png""]",blank.png,PB18.png,PB15.png,"[""cherry.png""]","[""cherry.png""]","[""cherry.png""]","[""cherry.png""]","[""cherry.png""]","[""cherry.png""]","[""cherry.png""]","[""cherry.png""]","[""cherry.png""]","[""cherry.png""]",blank.png,blank.png,1,"[""gummybear.png""]",blank.png,blank.png,blank.png,4,"[""cherry.png""]","[""cherry.png""]","[""cherry.png""]","[""cherry.png""]",blank.png,blank.png,PB15.png,,,,,,,,,,,1,,,,,,,,,,,,,749.7979999999516,,timeout,,,,,,,,,,,,white,4,,,,,,,,,,,,,,,,,,,,,,,,,,,,,,,,,,,,,,,,,,,,,,,,,,,,,,,,,"[""cherry.png""]","[""gummybear.png""]",,,,5,,,false,,1,,,,,,,675458.2850001752,675457.764,674707.749,674709.9100002088,674724.319,675474.117,,,,
choice_sequence,flow.Sequence,2_4_2_6_1_0_0_0_0_3,2021-05-24T16:09:18.726Z,,,blank.png,blank.png,blank.png,blank.png,blank.png,blank.png,blank.png,"[""gummybear.png""]",blank.png,blank.png,blank.png,blank.png,blank.png,,,,,,,,,,,,,,,,,,,,,,,,,,,,,"[""gummybear.png""]","[""cherry.png""]",PB18.png,,,,,,,,,,,0,6,"[""cherry.png""]","[""cherry.png""]","[""cherry.png""]","[""cherry.png""]","[""cherry.png""]","[""cherry.png""]",blank.png,PB18.png,PB15.png,"[""cherry.png""]","[""cherry.png""]","[""cherry.png""]","[""cherry.png""]","[""cherry.png""]","[""cherry.png""]","[""cherry.png""]","[""cherry.png""]","[""cherry.png""]","[""cherry.png""]",blank.png,blank.png,1,"[""gummybear.png""]",blank.png,blank.png,blank.png,4,"[""cherry.png""]","[""cherry.png""]","[""cherry.png""]","[""cherry.png""]",blank.png,blank.png,PB15.png,,,,,,,,,,,1,,,,,,,,,,,,,4900.037000000011,,completion,,,,,,,,,,,,,4,,,,,,,,,,,,,,,,,,,,,,,,,,,,,,,,,,,,,,,,,,,,,,,,,,,,,,,,,"[""cherry.png""]","[""gummybear.png""]",,,,5,,,false,,1,,,,,,,675458.6600000039,675457.764,670541.396,670544.9299998581,670557.727,675474.117,,,,
fixCross,canvas.Screen,2_4_2_6_1_0_0_0_0_4_0,2021-05-24T16:09:19.326Z,,,blank.png,blank.png,blank.png,blank.png,blank.png,blank.png,blank.png,"[""gummybear.png""]",blank.png,blank.png,blank.png,blank.png,blank.png,,,,,,,,,,,,,,,,,,,,,,,,,,,,,"[""gummybear.png""]","[""cherry.png""]",PB18.png,,,,,,,,,,,0,6,"[""cherry.png""]","[""cherry.png""]","[""cherry.png""]","[""cherry.png""]","[""cherry.png""]","[""cherry.png""]",blank.png,PB18.png,PB16.png,"[""cherry.png""]","[""cherry.png""]","[""cherry.png""]","[""cherry.png""]","[""cherry.png""]","[""cherry.png""]","[""cherry.png""]","[""cherry.png""]","[""cherry.png""]","[""cherry.png""]","[""cherry.png""]",blank.png,1,"[""gummybear.png""]",blank.png,blank.png,blank.png,5,"[""cherry.png""]","[""cherry.png""]","[""cherry.png""]","[""cherry.png""]","[""cherry.png""]",blank.png,PB16.png,,,,,,,,,,,1,,,,,,,,,,,,,966.734000000055,,timeout,,,,,,,,,,,,,4,,,,,,,,,,,,,,,,,,,,,,,,,,,,,,,,,,,,,,,,,,,,,,,,,,,,,,,,,"[""cherry.png""]","[""gummybear.png""]",,,,5,,,false,,1,,,,,,,676058.3150000311,676057.739,675457.764,675461.9249999523,675474.117,676440.851,5,,,
timeout,canvas.Screen,2_4_2_6_1_0_0_0_0_4_1,2021-05-24T16:09:20.192Z,,,blank.png,blank.png,blank.png,blank.png,blank.png,blank.png,blank.png,"[""gummybear.png""]",blank.png,blank.png,blank.png,blank.png,blank.png,,,,,,,,,,,,,,,,,,,,,,,,,,,,,"[""gummybear.png""]","[""cherry.png""]",PB18.png,,,,,,,,,,,0,6,"[""cherry.png""]","[""cherry.png""]","[""cherry.png""]","[""cherry.png""]","[""cherry.png""]","[""cherry.png""]",blank.png,PB18.png,PB16.png,"[""cherry.png""]","[""cherry.png""]","[""cherry.png""]","[""cherry.png""]","[""cherry.png""]","[""cherry.png""]","[""cherry.png""]","[""cherry.png""]","[""cherry.png""]","[""cherry.png""]","[""cherry.png""]",blank.png,1,"[""gummybear.png""]",blank.png,blank.png,blank.png,5,"[""cherry.png""]","[""cherry.png""]","[""cherry.png""]","[""cherry.png""]","[""cherry.png""]",blank.png,PB16.png,,,,,,,,,,,1,,,,,,,,,,,,,883.1520000000019,,timeout,,,,,,,,,,,,,4,,,,,,,,,,,,,,,,,,,,,,,,,,,,,,,,,,,,,,,,,,,,,,,,,,,,,,,,,"[""cherry.png""]","[""gummybear.png""]",,,,5,,,false,,1,,,,,,,676924.8000001535,676924.253,676057.739,676443.8300002366,676440.851,677324.003,,,,
choice,canvas.Screen,2_4_2_6_1_0_0_0_0_4_2,2021-05-24T16:09:21.026Z,,,blank.png,blank.png,blank.png,blank.png,blank.png,blank.png,blank.png,"[""gummybear.png""]",blank.png,blank.png,blank.png,blank.png,blank.png,,,,,,,,,,,,,,,,,,,,,,,,,,,,,"[""gummybear.png""]","[""cherry.png""]",PB18.png,,,,,,,,,,,0,6,"[""cherry.png""]","[""cherry.png""]","[""cherry.png""]","[""cherry.png""]","[""cherry.png""]","[""cherry.png""]",blank.png,PB18.png,PB16.png,"[""cherry.png""]","[""cherry.png""]","[""cherry.png""]","[""cherry.png""]","[""cherry.png""]","[""cherry.png""]","[""cherry.png""]","[""cherry.png""]","[""cherry.png""]","[""cherry.png""]","[""cherry.png""]",blank.png,1,"[""gummybear.png""]",blank.png,blank.png,blank.png,5,"[""cherry.png""]","[""cherry.png""]","[""cherry.png""]","[""cherry.png""]","[""cherry.png""]",blank.png,PB16.png,,,,,,,,,,,1,,,,,,,,,,,,,432.9469998353161,,response,,,,,,,,,,,,,4,,,,,,,,,,,,,,,,,,,,,,,,,,,,,,,,,,,,,,,,,,,,,,,,,,,,,,,,,"[""cherry.png""]","[""gummybear.png""]",,,,5,left,keydown(ArrowLeft),false,,1,,,,,,,677757.9700001515,677756.9499998353,676924.253,677301.3650001958,677324.003,678140.589,,5,,
square,canvas.Screen,2_4_2_6_1_0_0_0_0_4_3,2021-05-24T16:09:22.394Z,,,blank.png,blank.png,blank.png,blank.png,blank.png,blank.png,blank.png,"[""gummybear.png""]",blank.png,blank.png,blank.png,blank.png,blank.png,,,,,,,,,,,,,,,,,,,,,,,,,,,,,"[""gummybear.png""]","[""cherry.png""]",PB18.png,,,,,,,,,,,0,6,"[""cherry.png""]","[""cherry.png""]","[""cherry.png""]","[""cherry.png""]","[""cherry.png""]","[""cherry.png""]",blank.png,PB18.png,PB16.png,"[""cherry.png""]","[""cherry.png""]","[""cherry.png""]","[""cherry.png""]","[""cherry.png""]","[""cherry.png""]","[""cherry.png""]","[""cherry.png""]","[""cherry.png""]","[""cherry.png""]","[""cherry.png""]",blank.png,1,"[""gummybear.png""]",blank.png,blank.png,blank.png,5,"[""cherry.png""]","[""cherry.png""]","[""cherry.png""]","[""cherry.png""]","[""cherry.png""]",blank.png,PB16.png,,,,,,,,,,,1,,,#33ff3f,#808080,,,,,,,,,1000.341999999946,,timeout,,,,,,,,,,,,,4,,,,,,,,,,,,,,,,,,,,,,,,,,,,,,,,,,,,,,,,,,,,,,,,,,,,,,,,,"[""cherry.png""]","[""gummybear.png""]",,,,5,,,false,,1,,,,,black,white,679126.4400002547,679123.909,678124.058,678127.2499999031,678140.589,679140.931,,,,
ITI_late,canvas.Screen,2_4_2_6_1_0_0_0_0_4_4,2021-05-24T16:09:22.892Z,,,blank.png,blank.png,blank.png,blank.png,blank.png,blank.png,blank.png,"[""gummybear.png""]",blank.png,blank.png,blank.png,blank.png,blank.png,,,,,,,,,,,,,,,,,,,,,,,,,,,,,"[""gummybear.png""]","[""cherry.png""]",PB18.png,,,,,,,,,,,0,6,"[""cherry.png""]","[""cherry.png""]","[""cherry.png""]","[""cherry.png""]","[""cherry.png""]","[""cherry.png""]",blank.png,PB18.png,PB16.png,"[""cherry.png""]","[""cherry.png""]","[""cherry.png""]","[""cherry.png""]","[""cherry.png""]","[""cherry.png""]","[""cherry.png""]","[""cherry.png""]","[""cherry.png""]","[""cherry.png""]","[""cherry.png""]",blank.png,1,"[""gummybear.png""]",blank.png,blank.png,blank.png,5,"[""cherry.png""]","[""cherry.png""]","[""cherry.png""]","[""cherry.png""]","[""cherry.png""]",blank.png,PB16.png,,,,,,,,,,,1,,,,,,,,,,,,,499.6630000000587,,timeout,,,,,,,,,,,,white,4,,,,,,,,,,,,,,,,,,,,,,,,,,,,,,,,,,,,,,,,,,,,,,,,,,,,,,,,,"[""cherry.png""]","[""gummybear.png""]",,,,5,,,false,,1,,,,,,,679624.644999858,679624.089,679123.909,679127.9600001872,679140.931,679640.594,,,,
choice_sequence,flow.Sequence,2_4_2_6_1_0_0_0_0_4,2021-05-24T16:09:22.893Z,,,blank.png,blank.png,blank.png,blank.png,blank.png,blank.png,blank.png,"[""gummybear.png""]",blank.png,blank.png,blank.png,blank.png,blank.png,,,,,,,,,,,,,,,,,,,,,,,,,,,,,"[""gummybear.png""]","[""cherry.png""]",PB18.png,,,,,,,,,,,0,6,"[""cherry.png""]","[""cherry.png""]","[""cherry.png""]","[""cherry.png""]","[""cherry.png""]","[""cherry.png""]",blank.png,PB18.png,PB16.png,"[""cherry.png""]","[""cherry.png""]","[""cherry.png""]","[""cherry.png""]","[""cherry.png""]","[""cherry.png""]","[""cherry.png""]","[""cherry.png""]","[""cherry.png""]","[""cherry.png""]","[""cherry.png""]",blank.png,1,"[""gummybear.png""]",blank.png,blank.png,blank.png,5,"[""cherry.png""]","[""cherry.png""]","[""cherry.png""]","[""cherry.png""]","[""cherry.png""]",blank.png,PB16.png,,,,,,,,,,,1,,,,,,,,,,,,,4149.972000000067,,completion,,,,,,,,,,,,,4,,,,,,,,,,,,,,,,,,,,,,,,,,,,,,,,,,,,,,,,,,,,,,,,,,,,,,,,,"[""cherry.png""]","[""gummybear.png""]",,,,5,,,false,,1,,,,,,,679625.0200001523,679624.089,675457.764,675461.320000235,675474.117,679640.594,,,,
fixCross,canvas.Screen,2_4_2_6_1_0_0_0_0_5_0,2021-05-24T16:09:23.292Z,,,blank.png,"[""gummybear.png""]",blank.png,blank.png,blank.png,blank.png,blank.png,blank.png,blank.png,blank.png,blank.png,blank.png,blank.png,,,,,,,,,,,,,,,,,,,,,,,,,,,,,"[""gummybear.png""]","[""cherry.png""]",PB12.png,,,,,,,,,,,0,6,"[""cherry.png""]","[""cherry.png""]","[""cherry.png""]","[""cherry.png""]","[""cherry.png""]","[""cherry.png""]",blank.png,PB18.png,PB18.png,"[""cherry.png""]","[""cherry.png""]",blank.png,blank.png,blank.png,blank.png,"[""cherry.png""]","[""cherry.png""]","[""cherry.png""]","[""cherry.png""]","[""cherry.png""]","[""cherry.png""]",1,"[""gummybear.png""]",blank.png,blank.png,blank.png,2,"[""cherry.png""]","[""cherry.png""]",blank.png,blank.png,blank.png,blank.png,PB12.png,,,,,,,,,,,1,,,,,,,,,,,,,716.7039999999106,,timeout,,,,,,,,,,,,,3,,,,,,,,,,,,,,,,,,,,,,,,,,,,,,,,,,,,,,,,,,,,,,,,,,,,,,,,,"[""cherry.png""]","[""gummybear.png""]",,,,5,,,false,,1,,,,,,,680024.3500000797,680023.811,679624.089,679628.3350000158,679640.594,680357.298,6,,,
timeout,canvas.Screen,2_4_2_6_1_0_0_0_0_5_1,2021-05-24T16:09:24.109Z,,,blank.png,"[""gummybear.png""]",blank.png,blank.png,blank.png,blank.png,blank.png,blank.png,blank.png,blank.png,blank.png,blank.png,blank.png,,,,,,,,,,,,,,,,,,,,,,,,,,,,,"[""gummybear.png""]","[""cherry.png""]",PB12.png,,,,,,,,,,,0,6,"[""cherry.png""]","[""cherry.png""]","[""cherry.png""]","[""cherry.png""]","[""cherry.png""]","[""cherry.png""]",blank.png,PB18.png,PB18.png,"[""cherry.png""]","[""cherry.png""]",blank.png,blank.png,blank.png,blank.png,"[""cherry.png""]","[""cherry.png""]","[""cherry.png""]","[""cherry.png""]","[""cherry.png""]","[""cherry.png""]",1,"[""gummybear.png""]",blank.png,blank.png,blank.png,2,"[""cherry.png""]","[""cherry.png""]",blank.png,blank.png,blank.png,blank.png,PB12.png,,,,,,,,,,,1,,,,,,,,,,,,,816.4350000000559,,timeout,,,,,,,,,,,,,3,,,,,,,,,,,,,,,,,,,,,,,,,,,,,,,,,,,,,,,,,,,,,,,,,,,,,,,,,"[""cherry.png""]","[""gummybear.png""]",,,,5,,,false,,1,,,,,,,680841.3249999285,680840.742,680023.811,680360.2399998344,680357.298,681173.733,,,,
choice,canvas.Screen,2_4_2_6_1_0_0_0_0_5_2,2021-05-24T16:09:25.552Z,,,blank.png,"[""gummybear.png""]",blank.png,blank.png,blank.png,blank.png,blank.png,blank.png,blank.png,blank.png,blank.png,blank.png,blank.png,,,,,,,,,,,,,,,,,,,,,,,,,,,,,"[""gummybear.png""]","[""cherry.png""]",PB12.png,,,,,,,,,,,0,6,"[""cherry.png""]","[""cherry.png""]","[""cherry.png""]","[""cherry.png""]","[""cherry.png""]","[""cherry.png""]",blank.png,PB18.png,PB18.png,"[""cherry.png""]","[""cherry.png""]",blank.png,blank.png,blank.png,blank.png,"[""cherry.png""]","[""cherry.png""]","[""cherry.png""]","[""cherry.png""]","[""cherry.png""]","[""cherry.png""]",1,"[""gummybear.png""]",blank.png,blank.png,blank.png,2,"[""cherry.png""]","[""cherry.png""]",blank.png,blank.png,blank.png,blank.png,PB12.png,,,,,,,,,,,1,,,,,,,,,,,,,1109.4669999470934,,response,,,,,,,,,,,,,3,,,,,,,,,,,,,,,,,,,,,,,,,,,,,,,,,,,,,,,,,,,,,,,,,,,,,,,,,"[""cherry.png""]","[""gummybear.png""]",,,,5,right,keydown(ArrowRight),false,,1,,,,,,,682284.2500000261,682283.1999999471,680840.742,681168.9699999988,681173.733,682606.965,,6,,
square,canvas.Screen,2_4_2_6_1_0_0_0_0_5_3,2021-05-24T16:09:26.859Z,,,blank.png,"[""gummybear.png""]",blank.png,blank.png,blank.png,blank.png,blank.png,blank.png,blank.png,blank.png,blank.png,blank.png,blank.png,,,,,,,,,,,,,,,,,,,,,,,,,,,,,"[""gummybear.png""]","[""cherry.png""]",PB12.png,,,,,,,,,,,0,6,"[""cherry.png""]","[""cherry.png""]","[""cherry.png""]","[""cherry.png""]","[""cherry.png""]","[""cherry.png""]",blank.png,PB18.png,PB18.png,"[""cherry.png""]","[""cherry.png""]",blank.png,blank.png,blank.png,blank.png,"[""cherry.png""]","[""cherry.png""]","[""cherry.png""]","[""cherry.png""]","[""cherry.png""]","[""cherry.png""]",1,"[""gummybear.png""]",blank.png,blank.png,blank.png,2,"[""cherry.png""]","[""cherry.png""]",blank.png,blank.png,blank.png,blank.png,PB12.png,,,,,,,,,,,1,,,#808080,#33ff3f,,,,,,,,,1000.0060000000522,,timeout,,,,,,,,,,,,,3,,,,,,,,,,,,,,,,,,,,,,,,,,,,,,,,,,,,,,,,,,,,,,,,,,,,,,,,,"[""cherry.png""]","[""gummybear.png""]",,,,5,,,false,,1,,,,,white,black,683591.2299999036,683590.529,682590.269,682600.184999872,682606.965,683606.971,,,,
ITI_late,canvas.Screen,2_4_2_6_1_0_0_0_0_5_4,2021-05-24T16:09:27.109Z,,,blank.png,"[""gummybear.png""]",blank.png,blank.png,blank.png,blank.png,blank.png,blank.png,blank.png,blank.png,blank.png,blank.png,blank.png,,,,,,,,,,,,,,,,,,,,,,,,,,,,,"[""gummybear.png""]","[""cherry.png""]",PB12.png,,,,,,,,,,,0,6,"[""cherry.png""]","[""cherry.png""]","[""cherry.png""]","[""cherry.png""]","[""cherry.png""]","[""cherry.png""]",blank.png,PB18.png,PB18.png,"[""cherry.png""]","[""cherry.png""]",blank.png,blank.png,blank.png,blank.png,"[""cherry.png""]","[""cherry.png""]","[""cherry.png""]","[""cherry.png""]","[""cherry.png""]","[""cherry.png""]",1,"[""gummybear.png""]",blank.png,blank.png,blank.png,2,"[""cherry.png""]","[""cherry.png""]",blank.png,blank.png,blank.png,blank.png,PB12.png,,,,,,,,,,,1,,,,,,,,,,,,,250.22399999992922,,timeout,,,,,,,,,,,,white,3,,,,,,,,,,,,,,,,,,,,,,,,,,,,,,,,,,,,,,,,,,,,,,,,,,,,,,,,,"[""cherry.png""]","[""gummybear.png""]",,,,5,,,false,,1,,,,,,,683841.7549999431,683840.309,683590.529,683592.6549998112,683606.971,683857.195,,,,
choice_sequence,flow.Sequence,2_4_2_6_1_0_0_0_0_5,2021-05-24T16:09:27.110Z,,,blank.png,"[""gummybear.png""]",blank.png,blank.png,blank.png,blank.png,blank.png,blank.png,blank.png,blank.png,blank.png,blank.png,blank.png,,,,,,,,,,,,,,,,,,,,,,,,,,,,,"[""gummybear.png""]","[""cherry.png""]",PB12.png,,,,,,,,,,,0,6,"[""cherry.png""]","[""cherry.png""]","[""cherry.png""]","[""cherry.png""]","[""cherry.png""]","[""cherry.png""]",blank.png,PB18.png,PB18.png,"[""cherry.png""]","[""cherry.png""]",blank.png,blank.png,blank.png,blank.png,"[""cherry.png""]","[""cherry.png""]","[""cherry.png""]","[""cherry.png""]","[""cherry.png""]","[""cherry.png""]",1,"[""gummybear.png""]",blank.png,blank.png,blank.png,2,"[""cherry.png""]","[""cherry.png""]",blank.png,blank.png,blank.png,blank.png,PB12.png,,,,,,,,,,,1,,,,,,,,,,,,,4199.714999999967,,completion,,,,,,,,,,,,,3,,,,,,,,,,,,,,,,,,,,,,,,,,,,,,,,,,,,,,,,,,,,,,,,,,,,,,,,,"[""cherry.png""]","[""gummybear.png""]",,,,5,,,false,,1,,,,,,,683842.1300002374,683840.309,679624.089,679627.6850001886,679640.594,683857.195,,,,
fixCross,canvas.Screen,2_4_2_6_1_0_0_0_0_6_0,2021-05-24T16:09:27.559Z,,,blank.png,blank.png,blank.png,blank.png,blank.png,blank.png,blank.png,"[""gummybear.png""]",blank.png,blank.png,blank.png,blank.png,blank.png,,,,,,,,,,,,,,,,,,,,,,,,,,,,,"[""gummybear.png""]","[""cherry.png""]",PB18.png,,,,,,,,,,,0,6,"[""cherry.png""]","[""cherry.png""]","[""cherry.png""]","[""cherry.png""]","[""cherry.png""]","[""cherry.png""]",blank.png,PB18.png,PB07.png,"[""cherry.png""]","[""cherry.png""]","[""cherry.png""]","[""cherry.png""]","[""cherry.png""]","[""cherry.png""]","[""cherry.png""]",blank.png,blank.png,blank.png,blank.png,blank.png,1,"[""gummybear.png""]",blank.png,blank.png,blank.png,1,"[""cherry.png""]",blank.png,blank.png,blank.png,blank.png,blank.png,PB07.png,,,,,,,,,,,1,,,,,,,,,,,,,1016.625,,timeout,,,,,,,,,,,,,4,,,,,,,,,,,,,,,,,,,,,,,,,,,,,,,,,,,,,,,,,,,,,,,,,,,,,,,,,"[""cherry.png""]","[""gummybear.png""]",,,,5,,,false,,1,,,,,,,684290.9450000152,684290.405,683840.309,683845.4300002195,683857.195,684873.82,7,,,
timeout,canvas.Screen,2_4_2_6_1_0_0_0_0_6_1,2021-05-24T16:09:28.625Z,,,blank.png,blank.png,blank.png,blank.png,blank.png,blank.png,blank.png,"[""gummybear.png""]",blank.png,blank.png,blank.png,blank.png,blank.png,,,,,,,,,,,,,,,,,,,,,,,,,,,,,"[""gummybear.png""]","[""cherry.png""]",PB18.png,,,,,,,,,,,0,6,"[""cherry.png""]","[""cherry.png""]","[""cherry.png""]","[""cherry.png""]","[""cherry.png""]","[""cherry.png""]",blank.png,PB18.png,PB07.png,"[""cherry.png""]","[""cherry.png""]","[""cherry.png""]","[""cherry.png""]","[""cherry.png""]","[""cherry.png""]","[""cherry.png""]",blank.png,blank.png,blank.png,blank.png,blank.png,1,"[""gummybear.png""]",blank.png,blank.png,blank.png,1,"[""cherry.png""]",blank.png,blank.png,blank.png,blank.png,blank.png,PB07.png,,,,,,,,,,,1,,,,,,,,,,,,,799.6460000000661,,timeout,,,,,,,,,,,,,4,,,,,,,,,,,,,,,,,,,,,,,,,,,,,,,,,,,,,,,,,,,,,,,,,,,,,,,,,"[""cherry.png""]","[""gummybear.png""]",,,,5,,,false,,1,,,,,,,685357.6600002125,685357.101,684290.405,684876.8199998885,684873.82,685673.466,,,,
choice,canvas.Screen,2_4_2_6_1_0_0_0_0_6_2,2021-05-24T16:09:28.945Z,,,blank.png,blank.png,blank.png,blank.png,blank.png,blank.png,blank.png,"[""gummybear.png""]",blank.png,blank.png,blank.png,blank.png,blank.png,,,,,,,,,,,,,,,,,,,,,,,,,,,,,"[""gummybear.png""]","[""cherry.png""]",PB18.png,,,,,,,,,,,0,6,"[""cherry.png""]","[""cherry.png""]","[""cherry.png""]","[""cherry.png""]","[""cherry.png""]","[""cherry.png""]",blank.png,PB18.png,PB07.png,"[""cherry.png""]","[""cherry.png""]","[""cherry.png""]","[""cherry.png""]","[""cherry.png""]","[""cherry.png""]","[""cherry.png""]",blank.png,blank.png,blank.png,blank.png,blank.png,1,"[""gummybear.png""]",blank.png,blank.png,blank.png,1,"[""cherry.png""]",blank.png,blank.png,blank.png,blank.png,blank.png,PB07.png,,,,,,,,,,,1,,,,,,,,,,,,,294.6840002273675,,response,,,,,,,,,,,,,4,,,,,,,,,,,,,,,,,,,,,,,,,,,,,,,,,,,,,,,,,,,,,,,,,,,,,,,,,"[""cherry.png""]","[""gummybear.png""]",,,,5,left,keydown(ArrowLeft),false,,1,,,,,,,685677.670000121,685651.7850002274,685357.101,685666.7200000957,,685990.114,,7,,
square,canvas.Screen,2_4_2_6_1_0_0_0_0_6_3,2021-05-24T16:09:30.243Z,,,blank.png,blank.png,blank.png,blank.png,blank.png,blank.png,blank.png,"[""gummybear.png""]",blank.png,blank.png,blank.png,blank.png,blank.png,,,,,,,,,,,,,,,,,,,,,,,,,,,,,"[""gummybear.png""]","[""cherry.png""]",PB18.png,,,,,,,,,,,0,6,"[""cherry.png""]","[""cherry.png""]","[""cherry.png""]","[""cherry.png""]","[""cherry.png""]","[""cherry.png""]",blank.png,PB18.png,PB07.png,"[""cherry.png""]","[""cherry.png""]","[""cherry.png""]","[""cherry.png""]","[""cherry.png""]","[""cherry.png""]","[""cherry.png""]",blank.png,blank.png,blank.png,blank.png,blank.png,1,"[""gummybear.png""]",blank.png,blank.png,blank.png,1,"[""cherry.png""]",blank.png,blank.png,blank.png,blank.png,blank.png,PB07.png,,,,,,,,,,,1,,,#33ff3f,#808080,,,,,,,,,1000.1790000000037,,timeout,,,,,,,,,,,,,4,,,,,,,,,,,,,,,,,,,,,,,,,,,,,,,,,,,,,,,,,,,,,,,,,,,,,,,,,"[""cherry.png""]","[""gummybear.png""]",,,,5,,,false,,1,,,,,black,white,686975.4650001414,686973.394,685673.466,685996.3600002229,685990.114,686990.293,,,,
ITI_late,canvas.Screen,2_4_2_6_1_0_0_0_0_6_4,2021-05-24T16:09:30.743Z,,,blank.png,blank.png,blank.png,blank.png,blank.png,blank.png,blank.png,"[""gummybear.png""]",blank.png,blank.png,blank.png,blank.png,blank.png,,,,,,,,,,,,,,,,,,,,,,,,,,,,,"[""gummybear.png""]","[""cherry.png""]",PB18.png,,,,,,,,,,,0,6,"[""cherry.png""]","[""cherry.png""]","[""cherry.png""]","[""cherry.png""]","[""cherry.png""]","[""cherry.png""]",blank.png,PB18.png,PB07.png,"[""cherry.png""]","[""cherry.png""]","[""cherry.png""]","[""cherry.png""]","[""cherry.png""]","[""cherry.png""]","[""cherry.png""]",blank.png,blank.png,blank.png,blank.png,blank.png,1,"[""gummybear.png""]",blank.png,blank.png,blank.png,1,"[""cherry.png""]",blank.png,blank.png,blank.png,blank.png,blank.png,PB07.png,,,,,,,,,,,1,,,,,,,,,,,,,499.72400000004563,,timeout,,,,,,,,,,,,white,4,,,,,,,,,,,,,,,,,,,,,,,,,,,,,,,,,,,,,,,,,,,,,,,,,,,,,,,,,"[""cherry.png""]","[""gummybear.png""]",,,,5,,,false,,1,,,,,,,687474.9850002117,687473.362,686973.394,686976.9250000827,686990.293,687490.017,,,,
choice_sequence,flow.Sequence,2_4_2_6_1_0_0_0_0_6,2021-05-24T16:09:30.743Z,,,blank.png,blank.png,blank.png,blank.png,blank.png,blank.png,blank.png,"[""gummybear.png""]",blank.png,blank.png,blank.png,blank.png,blank.png,,,,,,,,,,,,,,,,,,,,,,,,,,,,,"[""gummybear.png""]","[""cherry.png""]",PB18.png,,,,,,,,,,,0,6,"[""cherry.png""]","[""cherry.png""]","[""cherry.png""]","[""cherry.png""]","[""cherry.png""]","[""cherry.png""]",blank.png,PB18.png,PB07.png,"[""cherry.png""]","[""cherry.png""]","[""cherry.png""]","[""cherry.png""]","[""cherry.png""]","[""cherry.png""]","[""cherry.png""]",blank.png,blank.png,blank.png,blank.png,blank.png,1,"[""gummybear.png""]",blank.png,blank.png,blank.png,1,"[""cherry.png""]",blank.png,blank.png,blank.png,blank.png,blank.png,PB07.png,,,,,,,,,,,1,,,,,,,,,,,,,3616.167000000016,,completion,,,,,,,,,,,,,4,,,,,,,,,,,,,,,,,,,,,,,,,,,,,,,,,,,,,,,,,,,,,,,,,,,,,,,,,"[""cherry.png""]","[""gummybear.png""]",,,,5,,,false,,1,,,,,,,687475.3499999642,687473.362,683840.309,683844.8200002313,683857.195,687490.017,,,,
choice_loop,flow.Loop,2_4_2_6_1_0_0_0_0,2021-05-24T16:09:30.743Z,,,,,,,,,,,,,,,,,,,,,,,,,,,,,,,,,,,,,,,,,,,,"[""gummybear.png""]","[""cherry.png""]",,,,,,,,,,,,,,,,,,,,,,,,,,,,,,,,,,,,,,,,,,,,,,,,,,,,,,,,,,,,,,,,,,,,,,,43847.41599999997,,completion,,,,,,,,,,,,,,,,,,,,,,,,,,,,,,,,,,,,,,,,,,,,,,,,,,,,,,,,,,,,,,,,,,,,,,"[""cherry.png""]","[""gummybear.png""]",,,,5,,,false,,,,,,,,,687475.5700002424,687473.362,643609.591,643629.4499998912,643625.946,687490.017,,,,
choice_frame,html.Frame,2_4_2_6_1_0_0_0,2021-05-24T16:09:30.743Z,,,,,,,,,,,,,,,,,,,,,,,,,,,,,,,,,,,,,,,,,,,,,,,,,,,,,,,,,,,,,,,,,,,,,,,,,,,,,,,,,,,,,,,,,,,,,,,,,,,,,,,,,,,,,,,,,,,,43849.689000038896,,,,,,,,,,,,,,,,,,,,,,,,,,,,,,,,,,,,,,,,,,,,,,,,,,,,,,,,,,,,,,,,,,,,,,,,,,,,,5,,,false,,,,,,,,,687475.7300000638,687475.6350000389,643609.591,643610.1950001903,643625.946,687506.7,,,,
sublock_1,flow.Sequence,2_4_2_6_1_0_0,2021-05-24T16:09:30.743Z,,,,,,,,,,,,,,,,,,,,,,,,,,,,,,,,,,,,,,,,,,,,,,,,,,,,,,,,,,,,,,,,,,,,,,,,,,,,,,,,,,,,,,,,,,,,,,,,,,,,,,,,,,,,,,,,,,,,43849.689000038896,,completion,,,,,,,,,,,,,,,,,,,,,,,,,,,,,,,,,,,,,,,,,,,,,,,,,,,,,,,,,,,,,,,,,,,,,,,,,,,5,,,false,,,,,,,,,687475.8199998178,687475.6350000389,643609.591,643610.1649999619,643625.946,687506.7,,,,
fixCross,canvas.Screen,2_4_2_6_1_0_1_0_0_0_0,2021-05-24T16:09:31.408Z,,,blank.png,"[""gummybear.png""]",blank.png,blank.png,blank.png,blank.png,blank.png,blank.png,blank.png,blank.png,blank.png,blank.png,blank.png,,,,,,,,,,,,,,,,,,,,,,,,,,,,,"[""gummybear.png""]","[""cherry.png""]",PB15.png,,,,,,,,,,,0,6,"[""cherry.png""]","[""cherry.png""]","[""cherry.png""]","[""cherry.png""]","[""cherry.png""]","[""cherry.png""]",blank.png,PB18.png,PB18.png,"[""cherry.png""]","[""cherry.png""]","[""cherry.png""]","[""cherry.png""]",blank.png,blank.png,"[""cherry.png""]","[""cherry.png""]","[""cherry.png""]","[""cherry.png""]","[""cherry.png""]","[""cherry.png""]",1,"[""gummybear.png""]",blank.png,blank.png,blank.png,4,"[""cherry.png""]","[""cherry.png""]","[""cherry.png""]","[""cherry.png""]",blank.png,blank.png,PB15.png,,,,,,,,,,,1,,,,,,,,,,,,,999.9310000000987,,timeout,,,,,,,,,,,,,3,,,,,,,,,,,,,,,,,,,,,,,,,,,,,,,,,,,,,,,,,,,,,,,,,,,,,,,,,"[""cherry.png""]","[""gummybear.png""]",,,,2,,,false,,1,,,,,,,688140.7750002109,688140.226,687490.017,687497.5350000896,687506.7,688506.631,8,,,
timeout,canvas.Screen,2_4_2_6_1_0_1_0_0_0_1,2021-05-24T16:09:32.258Z,,,blank.png,"[""gummybear.png""]",blank.png,blank.png,blank.png,blank.png,blank.png,blank.png,blank.png,blank.png,blank.png,blank.png,blank.png,,,,,,,,,,,,,,,,,,,,,,,,,,,,,"[""gummybear.png""]","[""cherry.png""]",PB15.png,,,,,,,,,,,0,6,"[""cherry.png""]","[""cherry.png""]","[""cherry.png""]","[""cherry.png""]","[""cherry.png""]","[""cherry.png""]",blank.png,PB18.png,PB18.png,"[""cherry.png""]","[""cherry.png""]","[""cherry.png""]","[""cherry.png""]",blank.png,blank.png,"[""cherry.png""]","[""cherry.png""]","[""cherry.png""]","[""cherry.png""]","[""cherry.png""]","[""cherry.png""]",1,"[""gummybear.png""]",blank.png,blank.png,blank.png,4,"[""cherry.png""]","[""cherry.png""]","[""cherry.png""]","[""cherry.png""]",blank.png,blank.png,PB15.png,,,,,,,,,,,1,,,,,,,,,,,,,849.9619999999413,,timeout,,,,,,,,,,,,,3,,,,,,,,,,,,,,,,,,,,,,,,,,,,,,,,,,,,,,,,,,,,,,,,,,,,,,,,,"[""cherry.png""]","[""gummybear.png""]",,,,2,,,false,,1,,,,,,,688990.5650001019,688989.928,688140.226,688503.8649998605,688506.631,689356.593,,,,
choice,canvas.Screen,2_4_2_6_1_0_1_0_0_0_2,2021-05-24T16:09:32.686Z,,,blank.png,"[""gummybear.png""]",blank.png,blank.png,blank.png,blank.png,blank.png,blank.png,blank.png,blank.png,blank.png,blank.png,blank.png,,,,,,,,,,,,,,,,,,,,,,,,,,,,,"[""gummybear.png""]","[""cherry.png""]",PB15.png,,,,,,,,,,,0,6,"[""cherry.png""]","[""cherry.png""]","[""cherry.png""]","[""cherry.png""]","[""cherry.png""]","[""cherry.png""]",blank.png,PB18.png,PB18.png,"[""cherry.png""]","[""cherry.png""]","[""cherry.png""]","[""cherry.png""]",blank.png,blank.png,"[""cherry.png""]","[""cherry.png""]","[""cherry.png""]","[""cherry.png""]","[""cherry.png""]","[""cherry.png""]",1,"[""gummybear.png""]",blank.png,blank.png,blank.png,4,"[""cherry.png""]","[""cherry.png""]","[""cherry.png""]","[""cherry.png""]",blank.png,blank.png,PB15.png,,,,,,,,,,,1,,,,,,,,,,,,,60.86199987155851,,response,,,,,,,,,,,,,3,,,,,,,,,,,,,,,,,,,,,,,,,,,,,,,,,,,,,,,,,,,,,,,,,,,,,,,,,"[""cherry.png""]","[""gummybear.png""]",,,,2,right,keydown(ArrowRight),false,,1,,,,,,,689418.3550002053,689417.4549998716,688989.928,689347.5600001402,689356.593,689773.224,,8,,
square,canvas.Screen,2_4_2_6_1_0_1_0_0_0_3,2021-05-24T16:09:34.026Z,,,blank.png,"[""gummybear.png""]",blank.png,blank.png,blank.png,blank.png,blank.png,blank.png,blank.png,blank.png,blank.png,blank.png,blank.png,,,,,,,,,,,,,,,,,,,,,,,,,,,,,"[""gummybear.png""]","[""cherry.png""]",PB15.png,,,,,,,,,,,0,6,"[""cherry.png""]","[""cherry.png""]","[""cherry.png""]","[""cherry.png""]","[""cherry.png""]","[""cherry.png""]",blank.png,PB18.png,PB18.png,"[""cherry.png""]","[""cherry.png""]","[""cherry.png""]","[""cherry.png""]",blank.png,blank.png,"[""cherry.png""]","[""cherry.png""]","[""cherry.png""]","[""cherry.png""]","[""cherry.png""]","[""cherry.png""]",1,"[""gummybear.png""]",blank.png,blank.png,blank.png,4,"[""cherry.png""]","[""cherry.png""]","[""cherry.png""]","[""cherry.png""]",blank.png,blank.png,PB15.png,,,,,,,,,,,1,,,#808080,#33ff3f,,,,,,,,,1000.0069999999832,,timeout,,,,,,,,,,,,,3,,,,,,,,,,,,,,,,,,,,,,,,,,,,,,,,,,,,,,,,,,,,,,,,,,,,,,,,,"[""cherry.png""]","[""gummybear.png""]",,,,2,,,false,,1,,,,,white,black,690758.890000172,690756.493,689756.851,689766.8249998242,689773.224,690773.231,,,,
ITI_late,canvas.Screen,2_4_2_6_1_0_1_0_0_0_4,2021-05-24T16:09:34.775Z,,,blank.png,"[""gummybear.png""]",blank.png,blank.png,blank.png,blank.png,blank.png,blank.png,blank.png,blank.png,blank.png,blank.png,blank.png,,,,,,,,,,,,,,,,,,,,,,,,,,,,,"[""gummybear.png""]","[""cherry.png""]",PB15.png,,,,,,,,,,,0,6,"[""cherry.png""]","[""cherry.png""]","[""cherry.png""]","[""cherry.png""]","[""cherry.png""]","[""cherry.png""]",blank.png,PB18.png,PB18.png,"[""cherry.png""]","[""cherry.png""]","[""cherry.png""]","[""cherry.png""]",blank.png,blank.png,"[""cherry.png""]","[""cherry.png""]","[""cherry.png""]","[""cherry.png""]","[""cherry.png""]","[""cherry.png""]",1,"[""gummybear.png""]",blank.png,blank.png,blank.png,4,"[""cherry.png""]","[""cherry.png""]","[""cherry.png""]","[""cherry.png""]",blank.png,blank.png,PB15.png,,,,,,,,,,,1,,,,,,,,,,,,,749.9109999999637,,timeout,,,,,,,,,,,,white,3,,,,,,,,,,,,,,,,,,,,,,,,,,,,,,,,,,,,,,,,,,,,,,,,,,,,,,,,,"[""cherry.png""]","[""gummybear.png""]",,,,2,,,false,,1,,,,,,,691507.3100002483,691506.734,690756.493,690760.3150000796,690773.231,691523.142,,,,
choice_sequence,flow.Sequence,2_4_2_6_1_0_1_0_0_0,2021-05-24T16:09:34.775Z,,,blank.png,"[""gummybear.png""]",blank.png,blank.png,blank.png,blank.png,blank.png,blank.png,blank.png,blank.png,blank.png,blank.png,blank.png,,,,,,,,,,,,,,,,,,,,,,,,,,,,,"[""gummybear.png""]","[""cherry.png""]",PB15.png,,,,,,,,,,,0,6,"[""cherry.png""]","[""cherry.png""]","[""cherry.png""]","[""cherry.png""]","[""cherry.png""]","[""cherry.png""]",blank.png,PB18.png,PB18.png,"[""cherry.png""]","[""cherry.png""]","[""cherry.png""]","[""cherry.png""]",blank.png,blank.png,"[""cherry.png""]","[""cherry.png""]","[""cherry.png""]","[""cherry.png""]","[""cherry.png""]","[""cherry.png""]",1,"[""gummybear.png""]",blank.png,blank.png,blank.png,4,"[""cherry.png""]","[""cherry.png""]","[""cherry.png""]","[""cherry.png""]",blank.png,blank.png,PB15.png,,,,,,,,,,,1,,,,,,,,,,,,,4000.0340000001015,,completion,,,,,,,,,,,,,3,,,,,,,,,,,,,,,,,,,,,,,,,,,,,,,,,,,,,,,,,,,,,,,,,,,,,,,,,"[""cherry.png""]","[""gummybear.png""]",,,,2,,,false,,1,,,,,,,691507.7400002629,691506.734,687490.017,687496.9250001013,687506.7,691523.142,,,,
fixCross,canvas.Screen,2_4_2_6_1_0_1_0_0_1_0,2021-05-24T16:09:35.375Z,,,blank.png,blank.png,blank.png,blank.png,blank.png,blank.png,blank.png,"[""gummybear.png""]",blank.png,blank.png,blank.png,blank.png,blank.png,,,,,,,,,,,,,,,,,,,,,,,,,,,,,"[""gummybear.png""]","[""cherry.png""]",PB18.png,,,,,,,,,,,0,6,"[""cherry.png""]","[""cherry.png""]","[""cherry.png""]","[""cherry.png""]","[""cherry.png""]","[""cherry.png""]",blank.png,PB18.png,PB12.png,"[""cherry.png""]","[""cherry.png""]","[""cherry.png""]","[""cherry.png""]","[""cherry.png""]","[""cherry.png""]","[""cherry.png""]","[""cherry.png""]",blank.png,blank.png,blank.png,blank.png,1,"[""gummybear.png""]",blank.png,blank.png,blank.png,2,"[""cherry.png""]","[""cherry.png""]",blank.png,blank.png,blank.png,blank.png,PB12.png,,,,,,,,,,,1,,,,,,,,,,,,,899.9899999999907,,timeout,,,,,,,,,,,,,4,,,,,,,,,,,,,,,,,,,,,,,,,,,,,,,,,,,,,,,,,,,,,,,,,,,,,,,,,"[""cherry.png""]","[""gummybear.png""]",,,,2,,,false,,1,,,,,,,692107.3400001042,692106.793,691506.734,691510.8650000766,691523.142,692423.132,9,,,
timeout,canvas.Screen,2_4_2_6_1_0_1_0_0_1_1,2021-05-24T16:09:36.175Z,,,blank.png,blank.png,blank.png,blank.png,blank.png,blank.png,blank.png,"[""gummybear.png""]",blank.png,blank.png,blank.png,blank.png,blank.png,,,,,,,,,,,,,,,,,,,,,,,,,,,,,"[""gummybear.png""]","[""cherry.png""]",PB18.png,,,,,,,,,,,0,6,"[""cherry.png""]","[""cherry.png""]","[""cherry.png""]","[""cherry.png""]","[""cherry.png""]","[""cherry.png""]",blank.png,PB18.png,PB12.png,"[""cherry.png""]","[""cherry.png""]","[""cherry.png""]","[""cherry.png""]","[""cherry.png""]","[""cherry.png""]","[""cherry.png""]","[""cherry.png""]",blank.png,blank.png,blank.png,blank.png,1,"[""gummybear.png""]",blank.png,blank.png,blank.png,2,"[""cherry.png""]","[""cherry.png""]",blank.png,blank.png,blank.png,blank.png,PB12.png,,,,,,,,,,,1,,,,,,,,,,,,,816.5559999999823,,timeout,,,,,,,,,,,,,4,,,,,,,,,,,,,,,,,,,,,,,,,,,,,,,,,,,,,,,,,,,,,,,,,,,,,,,,,"[""cherry.png""]","[""gummybear.png""]",,,,2,,,false,,1,,,,,,,692907.2150001302,692906.656,692106.793,692426.8300002441,692423.132,693239.688,,,,
choice,canvas.Screen,2_4_2_6_1_0_1_0_0_1_2,2021-05-24T16:09:36.914Z,,,blank.png,blank.png,blank.png,blank.png,blank.png,blank.png,blank.png,"[""gummybear.png""]",blank.png,blank.png,blank.png,blank.png,blank.png,,,,,,,,,,,,,,,,,,,,,,,,,,,,,"[""gummybear.png""]","[""cherry.png""]",PB18.png,,,,,,,,,,,0,6,"[""cherry.png""]","[""cherry.png""]","[""cherry.png""]","[""cherry.png""]","[""cherry.png""]","[""cherry.png""]",blank.png,PB18.png,PB12.png,"[""cherry.png""]","[""cherry.png""]","[""cherry.png""]","[""cherry.png""]","[""cherry.png""]","[""cherry.png""]","[""cherry.png""]","[""cherry.png""]",blank.png,blank.png,blank.png,blank.png,1,"[""gummybear.png""]",blank.png,blank.png,blank.png,2,"[""cherry.png""]","[""cherry.png""]",blank.png,blank.png,blank.png,blank.png,PB12.png,,,,,,,,,,,1,,,,,,,,,,,,,406.1820001240121,,response,,,,,,,,,,,,,4,,,,,,,,,,,,,,,,,,,,,,,,,,,,,,,,,,,,,,,,,,,,,,,,,,,,,,,,,"[""cherry.png""]","[""gummybear.png""]",,,,2,left,keydown(ArrowLeft),false,,1,,,,,,,693646.865000017,693645.870000124,692906.656,693232.8150002286,693239.688,693989.646,,9,,
square,canvas.Screen,2_4_2_6_1_0_1_0_0_1_3,2021-05-24T16:09:38.241Z,,,blank.png,blank.png,blank.png,blank.png,blank.png,blank.png,blank.png,"[""gummybear.png""]",blank.png,blank.png,blank.png,blank.png,blank.png,,,,,,,,,,,,,,,,,,,,,,,,,,,,,"[""gummybear.png""]","[""cherry.png""]",PB18.png,,,,,,,,,,,0,6,"[""cherry.png""]","[""cherry.png""]","[""cherry.png""]","[""cherry.png""]","[""cherry.png""]","[""cherry.png""]",blank.png,PB18.png,PB12.png,"[""cherry.png""]","[""cherry.png""]","[""cherry.png""]","[""cherry.png""]","[""cherry.png""]","[""cherry.png""]","[""cherry.png""]","[""cherry.png""]",blank.png,blank.png,blank.png,blank.png,1,"[""gummybear.png""]",blank.png,blank.png,blank.png,2,"[""cherry.png""]","[""cherry.png""]",blank.png,blank.png,blank.png,blank.png,PB12.png,,,,,,,,,,,1,,,#33ff3f,#808080,,,,,,,,,1000.1590000001015,,timeout,,,,,,,,,,,,,4,,,,,,,,,,,,,,,,,,,,,,,,,,,,,,,,,,,,,,,,,,,,,,,,,,,,,,,,,"[""cherry.png""]","[""gummybear.png""]",,,,2,,,false,,1,,,,,black,white,694973.5400001518,694972.937,693956.279,693971.5700000525,693989.646,694989.805,,,,
ITI_late,canvas.Screen,2_4_2_6_1_0_1_0_0_1_4,2021-05-24T16:09:38.991Z,,,blank.png,blank.png,blank.png,blank.png,blank.png,blank.png,blank.png,"[""gummybear.png""]",blank.png,blank.png,blank.png,blank.png,blank.png,,,,,,,,,,,,,,,,,,,,,,,,,,,,,"[""gummybear.png""]","[""cherry.png""]",PB18.png,,,,,,,,,,,0,6,"[""cherry.png""]","[""cherry.png""]","[""cherry.png""]","[""cherry.png""]","[""cherry.png""]","[""cherry.png""]",blank.png,PB18.png,PB12.png,"[""cherry.png""]","[""cherry.png""]","[""cherry.png""]","[""cherry.png""]","[""cherry.png""]","[""cherry.png""]","[""cherry.png""]","[""cherry.png""]",blank.png,blank.png,blank.png,blank.png,1,"[""gummybear.png""]",blank.png,blank.png,blank.png,2,"[""cherry.png""]","[""cherry.png""]",blank.png,blank.png,blank.png,blank.png,PB12.png,,,,,,,,,,,1,,,,,,,,,,,,,749.8049999999348,,timeout,,,,,,,,,,,,white,4,,,,,,,,,,,,,,,,,,,,,,,,,,,,,,,,,,,,,,,,,,,,,,,,,,,,,,,,,"[""cherry.png""]","[""gummybear.png""]",,,,2,,,false,,1,,,,,,,695723.8850002177,695723.33,694972.937,694974.9949998222,694989.805,695739.61,,,,
choice_sequence,flow.Sequence,2_4_2_6_1_0_1_0_0_1,2021-05-24T16:09:38.992Z,,,blank.png,blank.png,blank.png,blank.png,blank.png,blank.png,blank.png,"[""gummybear.png""]",blank.png,blank.png,blank.png,blank.png,blank.png,,,,,,,,,,,,,,,,,,,,,,,,,,,,,"[""gummybear.png""]","[""cherry.png""]",PB18.png,,,,,,,,,,,0,6,"[""cherry.png""]","[""cherry.png""]","[""cherry.png""]","[""cherry.png""]","[""cherry.png""]","[""cherry.png""]",blank.png,PB18.png,PB12.png,"[""cherry.png""]","[""cherry.png""]","[""cherry.png""]","[""cherry.png""]","[""cherry.png""]","[""cherry.png""]","[""cherry.png""]","[""cherry.png""]",blank.png,blank.png,blank.png,blank.png,1,"[""gummybear.png""]",blank.png,blank.png,blank.png,2,"[""cherry.png""]","[""cherry.png""]",blank.png,blank.png,blank.png,blank.png,PB12.png,,,,,,,,,,,1,,,,,,,,,,,,,4200.1879999999655,,completion,,,,,,,,,,,,,4,,,,,,,,,,,,,,,,,,,,,,,,,,,,,,,,,,,,,,,,,,,,,,,,,,,,,,,,,"[""cherry.png""]","[""gummybear.png""]",,,,2,,,false,,1,,,,,,,695724.245000165,695723.33,691506.734,691510.2699999698,691523.142,695739.61,,,,
fixCross,canvas.Screen,2_4_2_6_1_0_1_0_0_2_0,2021-05-24T16:09:39.441Z,,,blank.png,"[""gummybear.png""]",blank.png,blank.png,blank.png,blank.png,blank.png,blank.png,blank.png,blank.png,blank.png,blank.png,blank.png,,,,,,,,,,,,,,,,,,,,,,,,,,,,,"[""gummybear.png""]","[""cherry.png""]",PB07.png,,,,,,,,,,,0,6,"[""cherry.png""]","[""cherry.png""]","[""cherry.png""]","[""cherry.png""]","[""cherry.png""]","[""cherry.png""]",blank.png,PB18.png,PB18.png,"[""cherry.png""]",blank.png,blank.png,blank.png,blank.png,blank.png,"[""cherry.png""]","[""cherry.png""]","[""cherry.png""]","[""cherry.png""]","[""cherry.png""]","[""cherry.png""]",1,"[""gummybear.png""]",blank.png,blank.png,blank.png,1,"[""cherry.png""]",blank.png,blank.png,blank.png,blank.png,blank.png,PB07.png,,,,,,,,,,,1,,,,,,,,,,,,,733.1840000000084,,timeout,,,,,,,,,,,,,3,,,,,,,,,,,,,,,,,,,,,,,,,,,,,,,,,,,,,,,,,,,,,,,,,,,,,,,,,"[""cherry.png""]","[""gummybear.png""]",,,,2,,,false,,1,,,,,,,696173.8900002092,696173.323,695723.33,695727.4099998176,695739.61,696472.794,10,,,
timeout,canvas.Screen,2_4_2_6_1_0_1_0_0_2_1,2021-05-24T16:09:40.225Z,,,blank.png,"[""gummybear.png""]",blank.png,blank.png,blank.png,blank.png,blank.png,blank.png,blank.png,blank.png,blank.png,blank.png,blank.png,,,,,,,,,,,,,,,,,,,,,,,,,,,,,"[""gummybear.png""]","[""cherry.png""]",PB07.png,,,,,,,,,,,0,6,"[""cherry.png""]","[""cherry.png""]","[""cherry.png""]","[""cherry.png""]","[""cherry.png""]","[""cherry.png""]",blank.png,PB18.png,PB18.png,"[""cherry.png""]",blank.png,blank.png,blank.png,blank.png,blank.png,"[""cherry.png""]","[""cherry.png""]","[""cherry.png""]","[""cherry.png""]","[""cherry.png""]","[""cherry.png""]",1,"[""gummybear.png""]",blank.png,blank.png,blank.png,1,"[""cherry.png""]",blank.png,blank.png,blank.png,blank.png,blank.png,PB07.png,,,,,,,,,,,1,,,,,,,,,,,,,799.9599999999627,,timeout,,,,,,,,,,,,,3,,,,,,,,,,,,,,,,,,,,,,,,,,,,,,,,,,,,,,,,,,,,,,,,,,,,,,,,,"[""cherry.png""]","[""gummybear.png""]",,,,2,,,false,,1,,,,,,,696957.0650001988,696956.475,696173.323,696475.8000001311,696472.794,697272.754,,,,
choice,canvas.Screen,2_4_2_6_1_0_1_0_0_2_2,2021-05-24T16:09:41.382Z,,,blank.png,"[""gummybear.png""]",blank.png,blank.png,blank.png,blank.png,blank.png,blank.png,blank.png,blank.png,blank.png,blank.png,blank.png,,,,,,,,,,,,,,,,,,,,,,,,,,,,,"[""gummybear.png""]","[""cherry.png""]",PB07.png,,,,,,,,,,,0,6,"[""cherry.png""]","[""cherry.png""]","[""cherry.png""]","[""cherry.png""]","[""cherry.png""]","[""cherry.png""]",blank.png,PB18.png,PB18.png,"[""cherry.png""]",blank.png,blank.png,blank.png,blank.png,blank.png,"[""cherry.png""]","[""cherry.png""]","[""cherry.png""]","[""cherry.png""]","[""cherry.png""]","[""cherry.png""]",1,"[""gummybear.png""]",blank.png,blank.png,blank.png,1,"[""cherry.png""]",blank.png,blank.png,blank.png,blank.png,blank.png,PB07.png,,,,,,,,,,,1,,,,,,,,,,,,,840.8459998078179,,response,,,,,,,,,,,,,3,,,,,,,,,,,,,,,,,,,,,,,,,,,,,,,,,,,,,,,,,,,,,,,,,,,,,,,,,"[""cherry.png""]","[""gummybear.png""]",,,,2,right,keydown(ArrowRight),false,,1,,,,,,,698114.5549998619,698113.5999998078,696956.475,697264.46999982,697272.754,698422.715,,10,,
square,canvas.Screen,2_4_2_6_1_0_1_0_0_2_3,2021-05-24T16:09:42.676Z,,,blank.png,"[""gummybear.png""]",blank.png,blank.png,blank.png,blank.png,blank.png,blank.png,blank.png,blank.png,blank.png,blank.png,blank.png,,,,,,,,,,,,,,,,,,,,,,,,,,,,,"[""gummybear.png""]","[""cherry.png""]",PB07.png,,,,,,,,,,,0,6,"[""cherry.png""]","[""cherry.png""]","[""cherry.png""]","[""cherry.png""]","[""cherry.png""]","[""cherry.png""]",blank.png,PB18.png,PB18.png,"[""cherry.png""]",blank.png,blank.png,blank.png,blank.png,blank.png,"[""cherry.png""]","[""cherry.png""]","[""cherry.png""]","[""cherry.png""]","[""cherry.png""]","[""cherry.png""]",1,"[""gummybear.png""]",blank.png,blank.png,blank.png,1,"[""cherry.png""]",blank.png,blank.png,blank.png,blank.png,blank.png,PB07.png,,,,,,,,,,,1,,,#808080,#33ff3f,,,,,,,,,999.954000000027,,timeout,,,,,,,,,,,,,3,,,,,,,,,,,,,,,,,,,,,,,,,,,,,,,,,,,,,,,,,,,,,,,,,,,,,,,,,"[""cherry.png""]","[""gummybear.png""]",,,,2,,,false,,1,,,,,white,black,699408.6099998094,699406.015,698405.997,698415.335000027,698422.715,699422.669,,,,
