sender,sender_type,sender_id,timestamp,meta,,Blank,DownLeft1,DownLeft2,DownLeft3,DownLeft4,DownLeft5,DownLeft6,DownRight1,DownRight2,DownRight3,DownRight4,DownRight5,DownRight6,FoodHabits_Fru_item1,FoodHabits_Fru_item2,FoodHabits_Fru_item3,FoodHabits_Fru_item4,FoodHabits_Fru_item5,FoodHabits_Fru_item6,FoodHabits_Fru_item7,FoodHabits_Meat_item1,FoodHabits_Meat_item2,FoodHabits_Meat_item3,FoodHabits_Meat_item4,FoodHabits_Meat_item5,FoodHabits_Meat_item6,FoodHabits_Meat_item7,FoodHabits_Swe_item1,FoodHabits_Swe_item2,FoodHabits_Swe_item3,FoodHabits_Swe_item4,FoodHabits_Swe_item5,FoodHabits_Swe_item6,FoodHabits_Swe_item7,FoodHabits_Veg_item1,FoodHabits_Veg_item2,FoodHabits_Veg_item3,FoodHabits_Veg_item4,FoodHabits_Veg_item5,FoodHabits_Veg_item6,FoodHabits_Veg_item7,ImgA,ImgB,LeftBar,PSS_item01,PSS_item02,PSS_item03,PSS_item04,PSS_item05,PSS_item06,PSS_item07,PSS_item08,PSS_item09,PSS_item10,RefA,RefB,RefB1,RefB2,RefB3,RefB4,RefB5,RefB6,RefB7,Ref_PB,RightBar,UpLeft1,UpLeft2,UpLeft3,UpLeft4,UpLeft5,UpLeft6,UpRight1,UpRight2,UpRight3,UpRight4,UpRight5,UpRight6,VarA,VarA1,VarA2,VarA3,VarA4,VarB,VarB1,VarB2,VarB3,VarB4,VarB5,VarB6,Var_PB,attCheck_fileA,attCheck_fileB,attCheck_fileC,attCheck_fileD,attCheck_options,attCheck_valueA,attCheck_valueB,attCheck_valueC,attCheck_valueD,attention_check,block,break1,browser_name,choseL,choseR,consent_form1,consent_form2,consentconfirmation_form1,consentconfirmation_form2,correct,correctResponse,diet,disorder,duration,edu,ended_on,enjoy,full_version,gender,group,hunger,img,imgTask,input_age,input_meal,input_occ,input_remark,lateRespFeed,list,major_version,message,mixQ_item1,mixQ_item2,mixQ_item3,mixQ_item4,mixQ_item5,name,navigator_appName,navigator_userAgent,os,pracQ1_IDa,pracQ1_IDb,pracQ1_IDc,pracQ1_IDd,pracQ1_optionA,pracQ1_optionB,pracQ1_optionC,pracQ1_optionD,pracQ1_valueA,pracQ1_valueB,pracQ1_valueC,pracQ1_valueD,pracQ2_IDa,pracQ2_IDb,pracQ2_IDc,pracQ2_optionA,pracQ2_optionB,pracQ2_optionC,pracQ2_valueA,pracQ2_valueB,pracQ2_valueC,pracQ4_IDa,pracQ4_IDb,pracQ4_IDc,pracQ4_IDd,pracQ4_optionA,pracQ4_optionB,pracQ4_optionC,pracQ4_optionD,pracQ4_valueA,pracQ4_valueB,pracQ4_valueC,pracQ4_valueD,pracQ5_IDa,pracQ5_IDb,pracQ5_IDc,pracQ5_IDd,pracQ5_optionA,pracQ5_optionB,pracQ5_optionC,pracQ5_optionD,pracQ5_valueA,pracQ5_valueB,pracQ5_valueC,pracQ5_valueD,prefHealty,prefUnhealthy,prolific_ID,psessionID,pstudyID,rep,response,response_action,skip,snack,sublock,subtitle,task_difficulty,task_engagement,task_focus,textL,textR,time_commit,time_end,time_render,time_run,time_show,time_switch,trial_count,trial_countO,url,valence
Title,html.Page,0,2021-05-24T16:02:37.775Z,"{""labjs_version"":""20.2.2"",""labjs_build"":{""flavor"":""production"",""commit"":""a25486e0c714a0ae2ce03ff94b7bb6896854dcfa""},""location"":""https://run.pavlovia.org/E3lab/rebund/html/?PROLIFIC_PID=5e83d40c2598d412c836b579&STUDY_ID=60008f34cd719d13b0d706dd&SESSION_ID=60abce02c3faad3857f2e12a"",""userAgent"":""Mozilla/5.0 (Windows NT 10.0; Win64; x64) AppleWebKit/537.36 (KHTML, like Gecko) Chrome/90.0.4430.212 Safari/537.36"",""platform"":""Win32"",""language"":""en-US"",""locale"":""en-US"",""timeZone"":""America/New_York"",""timezoneOffset"":240,""screen_width"":2560,""screen_height"":1440,""scroll_width"":2560,""scroll_height"":1281,""window_innerWidth"":2560,""window_innerHeight"":1329,""devicePixelRatio"":1}",,,,,,,,,,,,,,,,,,,,,,,,,,,,,,,,,,,,,,,,,,,,,,,,,,,,,,,,,,,,,,,,,,,,,,,,,,,,,,,,,,,,,,,,,,,,,,,,,,,,,,,,,,,,,,,,,,,18525.083000000894,,form submission,,,,,,,,,,,,,,,,,,,,,,,,,,,,,,,,,,,,,,,,,,,,,,,,,,,,,,,,,,,,,,,,,,,,,,,,,,,,,,,,,,,,,,,20803.329999995185,20802.960000000894,2271.406,2269.559999986086,2277.877,20812.277,,,"{""PROLIFIC_PID"":""5e83d40c2598d412c836b579"",""STUDY_ID"":""60008f34cd719d13b0d706dd"",""SESSION_ID"":""60abce02c3faad3857f2e12a""}",
get_systemInfo,canvas.Screen,1,2021-05-24T16:02:37.790Z,,,,,,,,,,,,,,,,,,,,,,,,,,,,,,,,,,,,,,,,,,,,,,,,,,,,,,,,,,,,,,,,,,,,,,,,,,,,,,,,,,,,,,,,,,,,,,,,,,,,,,,,,Chrome,,,,,,,,,,,7316.926000000003,,timeout,,90.0.4430.212,,,,,,,,,,,,90,,,,,,,,Netscape,"Mozilla/5.0 (Windows NT 10.0; Win64; x64) AppleWebKit/537.36 (KHTML, like Gecko) Chrome/90.0.4430.212 Safari/537.36",Windows,,,,,,,,,,,,,,,,,,,,,,,,,,,,,,,,,,,,,,,,,,,,,,,,5e83d40c2598d412c836b579,,60008f34cd719d13b0d706dd,,,,,,,,,,,,,20818.16500000423,20817.920000001322,20799.352,20804.13000000408,20812.277,28129.203,,,,
ConsentForm,html.Form,2_0,2021-05-24T16:05:02.659Z,,,,,,,,,,,,,,,,,,,,,,,,,,,,,,,,,,,,,,,,,,,,,,,,,,,,,,,,,,,,,,,,,,,,,,,,,,,,,,,,,,,,,,,,,,,,,,,,,,,,,,,,,,,,true,true,,,,,,,137557.3869999975,,form submission,,,,,,,,,,,,,,,,,,,,,,,,,,,,,,,,,,,,,,,,,,,,,,,,,,,,,,,,,,,,,,,,,,,,,,,,,,,,,,,,,,,,,,,165687.50999998883,165686.58999999752,20817.920000001322,28132.400000002235,28129.203,165691.121,,,,
PepTalk,html.Page,2_1,2021-05-24T16:05:25.412Z,,,,,,,,,,,,,,,,,,,,,,,,,,,,,,,,,,,,,,,,,,,,,,,,,,,,,,,,,,,,,,,,,,,,,,,,,,,,,,,,,,,,,,,,,,,,,,,,,,,,,,,,,,,,,,,,,,,,22749.089000000648,,form submission,,,,,,,,,,,,,,,,,,,,,,,,,,,,,,,,,,,,,,,,,,,,,,,,,,,,,,,,,,,,,,,,,,,,,,,,,,,,,,,,,,,,,,,188440.49999999697,188440.21000000066,165684.635,165687.8049999941,165691.121,188442.641,,,,
Demographics,html.Form,2_2,2021-05-24T16:06:22.527Z,,,,,,,,,,,,,,,,,,,,,,,,,,,,,,,,,,,,,,,,,,,,,,,,,,,,,,,,,,,,,,,,,,,,,,,,,,,,,,,,,,,,,,,,,,,,,,,,,,,,,,,,,,,,,,,,,,,,57113.038999990385,3,form submission,,,2,,,,,26,,Software Developer,,,,,,,,,,,,,,,,,,,,,,,,,,,,,,,,,,,,,,,,,,,,,,,,,,,,,,,,,,,,,,,,,,,,,,,,,,,,,245555.96500000684,245555.6799999904,188436.186,188440.58500000392,188442.641,245557.22,,,,
InclusionCrit,html.Form,2_3,2021-05-24T16:06:40.063Z,,,,,,,,,,,,,,,,,,,,,,,,,,,,,,,,,,,,,,,,,,,,,,,,,,,,,,,,,,,,,,,,,,,,,,,,,,,,,,,,,,,,,,,,,,,,,,,,,,,,,,,,,,,,,,,,,,1,1,17533.535000011994,,form submission,1,,,,,,,,,,,,,,,,,,,,,,,,,,,,,,,,,,,,,,,,,,,,,,,,,,,,,,,,,,,,,,,,,,,,,,,,,,,,,,,,,,,,,,263091.06999999494,263090.755000012,245550.771,245556.05499999365,245557.22,263112.387,,,,
Selection,html.Page,2_4_0,2021-05-24T16:06:53.484Z,,,,,,,,,,,,,,,,,,,,,,,,,,,,,,,,,,,,,,,,,,,,,,,,,,,,,,,,,,,,,,,,,,,,,,,,,,,,,,,,,,,,,,,,,,,,,,,,,,,,,,,,,,,,,,,,,,,,13400.297999994247,,form submission,,,,,,,,,,,,,,,,,,,,,,,,,,,,,,,,,,,,,,,,,,,,,,,,,,,,,,,,,,,,,,,,,,,,,,,,,,,,,,,1,,,,,,,,276512.95999999274,276512.68499999424,263084.234,263091.20500000427,263112.387,276516.907,,,,
Load,html.Page,2_4_1,2021-05-24T16:06:53.490Z,,,,,,,,,,,,,,,,,,,,,,,,,,,,,,,,,,,,,,,,,,,,,,,,,,,,,,,,,,,,,,,,,,,,,,,,,,,,,,,,,,,,,,,,,,,,,,,,,,,,,,,,,,,,,,,,,,,,3681.0380000000005,,timeout,,,,,,,,,,,,,,,,,,,,,,,,,,,,,,,,,,,,,,,,,,,,,,,,,,,,,,,,,,,,,,,,,,,,,,,,,,,,,,,,,,,,,,,276518.2949999871,276518.0800000089,276510.424,276513.03500001086,276516.907,280197.945,,,,
SequenceSweet,flow.Sequence,2_4_2,2021-05-24T16:06:55.905Z,,,,,,,,,,,,,,,,,,,,,,,,,,,,,,,,,,,,,,,,,,,,,,,,,,,,,,,,,,,,,,,,,,,,,,,,,,,,,,,,,,,,,,,,,,,,,,,,,,,,,,,,,,,,,,,,,,,,NaN,,skipped,,,,,,,,,,,,,,,,,,,,,,,,,,,,,,,,,,,,,,,,,,,,,,,,,,,,,,,,,,,,,,,,,,,,,,,,,,,,,,true,,,,,,,,,278933.9800000016,276518.0800000089,,278933.6699999985,,280197.945,0,0,,
ratings_instructions,html.Screen,2_4_3_0,2021-05-24T16:07:24.826Z,,,,,,,,,,,,,,,,,,,,,,,,,,,,,,,,,,,,,,,,,,,,,,,,,,,,,,,,,,,,,,,,,,,,,,,,,,,,,,,,,,,,,,,,,,,,,,,,,,,,,,,,,,,,,,,,,,,,27654.819999988715,,response,,,,,,,,,,,,,,,,,,,,,,,,,,,,,,,,,,,,,,,,,,,,,,,,,,,,,,,,,,,,,,,,,,,,,,,,,,,,continue,keypress(Space),false,,,,,,,,,307854.07000000123,307852.7649999887,276518.0800000089,280207.56999999867,280197.945,307864.025,0,0,,
fixCross,canvas.Screen,2_4_3_1_0_0,2021-05-24T16:07:25.326Z,,,,,,,,,,,,,,,,,,,,,,,,,,,,,,,,,,,,,,,,,,,,,,,,,,,,,,,,,,,,,,,,,,,,,,,,,,,,,,,,,,,,,,,,,,,,,,,,,,,,,,,,,,,,,,,,,,,,497.2619999999879,,timeout,,,,healthy,,walnut.png,,,,,,,,,,,,,,,walnut,,,,,,,,,,,,,,,,,,,,,,,,,,,,,,,,,,,,,,,,,,,,,,,,,,,,,,,,,false,,,,,,,,,308355.20499999984,308354.826,307857.562,307854.35999999754,307864.025,308361.287,,,,
Rating,html.Form,2_4_3_1_0_1,2021-05-24T16:07:35.857Z,,,,,,,,,,,,,,,,,,,,,,,,,,,,,,,,,,,,,,,,,,,,,,,,,,,,,,,,,,,,,,,,,,,,,,,,,,,,,,,,,,,,,,,,,,,,,,,,,,,,,,,,,,,,,,,,,,,,10524.012999994447,,form submission,,,,healthy,,walnut.png,,,,,,,,,,,,,,,walnut,,,,,,,,,,,,,,,,,,,,,,,,,,,,,,,,,,,,,,,,,,,,,,,,,,,,,,,,,false,,,,,,,,,318885.55000000633,318885.29999999446,308354.826,308355.29499998665,308361.287,318887.846,,,,74
rating_sequence,flow.Sequence,2_4_3_1_0,2021-05-24T16:07:35.857Z,,,,,,,,,,,,,,,,,,,,,,,,,,,,,,,,,,,,,,,,,,,,,,,,,,,,,,,,,,,,,,,,,,,,,,,,,,,,,,,,,,,,,,,,,,,,,,,,,,,,,,,,,,,,,,,,,,,,11021.274999994435,,completion,,,,healthy,,walnut.png,,,,,,,,,,,,,,,walnut,,,,,,,,,,,,,,,,,,,,,,,,,,,,,,,,,,,,,,,,,,,,,,,,,,,,,,,,,false,,,,,,,,,318885.6800000067,318885.29999999446,307857.562,307854.33999999077,307864.025,318887.846,,,,
fixCross,canvas.Screen,2_4_3_1_1_0,2021-05-24T16:07:36.350Z,,,,,,,,,,,,,,,,,,,,,,,,,,,,,,,,,,,,,,,,,,,,,,,,,,,,,,,,,,,,,,,,,,,,,,,,,,,,,,,,,,,,,,,,,,,,,,,,,,,,,,,,,,,,,,,,,,,,497.24099999998,,timeout,,,,healthy,,carrot.png,,,,,,,,,,,,,,,carrot,,,,,,,,,,,,,,,,,,,,,,,,,,,,,,,,,,,,,,,,,,,,,,,,,,,,,,,,,false,,,,,,,,,319378.93999999505,319378.633,318881.366,318885.74500000686,318887.846,319385.087,,,,
Rating,html.Form,2_4_3_1_1_1,2021-05-24T16:07:42.584Z,,,,,,,,,,,,,,,,,,,,,,,,,,,,,,,,,,,,,,,,,,,,,,,,,,,,,,,,,,,,,,,,,,,,,,,,,,,,,,,,,,,,,,,,,,,,,,,,,,,,,,,,,,,,,,,,,,,,6227.098000005411,,form submission,,,,healthy,,carrot.png,,,,,,,,,,,,,,,carrot,,,,,,,,,,,,,,,,,,,,,,,,,,,,,,,,,,,,,,,,,,,,,,,,,,,,,,,,,false,,,,,,,,,325612.43999999715,325612.1850000054,319378.633,319379.01999999303,319385.087,325617.071,,,,62
rating_sequence,flow.Sequence,2_4_3_1_1,2021-05-24T16:07:42.584Z,,,,,,,,,,,,,,,,,,,,,,,,,,,,,,,,,,,,,,,,,,,,,,,,,,,,,,,,,,,,,,,,,,,,,,,,,,,,,,,,,,,,,,,,,,,,,,,,,,,,,,,,,,,,,,,,,,,,6724.339000005391,,completion,,,,healthy,,carrot.png,,,,,,,,,,,,,,,carrot,,,,,,,,,,,,,,,,,,,,,,,,,,,,,,,,,,,,,,,,,,,,,,,,,,,,,,,,,false,,,,,,,,,325612.54999999073,325612.1850000054,318881.366,318885.7250000001,318887.846,325617.071,,,,
fixCross,canvas.Screen,2_4_3_1_2_0,2021-05-24T16:07:43.079Z,,,,,,,,,,,,,,,,,,,,,,,,,,,,,,,,,,,,,,,,,,,,,,,,,,,,,,,,,,,,,,,,,,,,,,,,,,,,,,,,,,,,,,,,,,,,,,,,,,,,,,,,,,,,,,,,,,,,497.2609999999986,,timeout,,,,unhealthy,,dried_meat.png,,,,,,,,,,,,,,,dried meat,,,,,,,,,,,,,,,,,,,,,,,,,,,,,,,,,,,,,,,,,,,,,,,,,,,,,,,,,false,,,,,,,,,326108.16999999224,326107.868,325610.606,325612.6199999999,325617.071,326114.332,,,,
Rating,html.Form,2_4_3_1_2_1,2021-05-24T16:07:49.424Z,,,,,,,,,,,,,,,,,,,,,,,,,,,,,,,,,,,,,,,,,,,,,,,,,,,,,,,,,,,,,,,,,,,,,,,,,,,,,,,,,,,,,,,,,,,,,,,,,,,,,,,,,,,,,,,,,,,,6337.72300000157,,form submission,,,,unhealthy,,dried_meat.png,,,,,,,,,,,,,,,dried meat,,,,,,,,,,,,,,,,,,,,,,,,,,,,,,,,,,,,,,,,,,,,,,,,,,,,,,,,,false,,,,,,,,,332452.3099999933,332452.05500000156,326107.868,326108.2549999992,326114.332,332456.101,,,,51
rating_sequence,flow.Sequence,2_4_3_1_2,2021-05-24T16:07:49.424Z,,,,,,,,,,,,,,,,,,,,,,,,,,,,,,,,,,,,,,,,,,,,,,,,,,,,,,,,,,,,,,,,,,,,,,,,,,,,,,,,,,,,,,,,,,,,,,,,,,,,,,,,,,,,,,,,,,,,6834.984000001568,,completion,,,,unhealthy,,dried_meat.png,,,,,,,,,,,,,,,dried meat,,,,,,,,,,,,,,,,,,,,,,,,,,,,,,,,,,,,,,,,,,,,,,,,,,,,,,,,,false,,,,,,,,,332452.415000007,332452.05500000156,325610.606,325612.5999999931,325617.071,332456.101,,,,
fixCross,canvas.Screen,2_4_3_1_3_0,2021-05-24T16:07:49.918Z,,,,,,,,,,,,,,,,,,,,,,,,,,,,,,,,,,,,,,,,,,,,,,,,,,,,,,,,,,,,,,,,,,,,,,,,,,,,,,,,,,,,,,,,,,,,,,,,,,,,,,,,,,,,,,,,,,,,497.24599999998463,,timeout,,,,unhealthy,,ham.png,,,,,,,,,,,,,,,ham,,,,,,,,,,,,,,,,,,,,,,,,,,,,,,,,,,,,,,,,,,,,,,,,,,,,,,,,,false,,,,,,,,,332947.18499999726,332946.903,332449.623,332452.48499998706,332456.101,332953.347,,,,
Rating,html.Form,2_4_3_1_3_1,2021-05-24T16:07:53.196Z,,,,,,,,,,,,,,,,,,,,,,,,,,,,,,,,,,,,,,,,,,,,,,,,,,,,,,,,,,,,,,,,,,,,,,,,,,,,,,,,,,,,,,,,,,,,,,,,,,,,,,,,,,,,,,,,,,,,3270.847999987949,,form submission,,,,unhealthy,,ham.png,,,,,,,,,,,,,,,ham,,,,,,,,,,,,,,,,,,,,,,,,,,,,,,,,,,,,,,,,,,,,,,,,,,,,,,,,,false,,,,,,,,,336224.45499998867,336224.19499998796,332946.903,332947.2700000042,332953.347,336227.576,,,,58
rating_sequence,flow.Sequence,2_4_3_1_3,2021-05-24T16:07:53.196Z,,,,,,,,,,,,,,,,,,,,,,,,,,,,,,,,,,,,,,,,,,,,,,,,,,,,,,,,,,,,,,,,,,,,,,,,,,,,,,,,,,,,,,,,,,,,,,,,,,,,,,,,,,,,,,,,,,,,3768.093999987934,,completion,,,,unhealthy,,ham.png,,,,,,,,,,,,,,,ham,,,,,,,,,,,,,,,,,,,,,,,,,,,,,,,,,,,,,,,,,,,,,,,,,,,,,,,,,false,,,,,,,,,336224.5600000024,336224.19499998796,332449.623,332452.4650000094,332456.101,336227.576,,,,
fixCross,canvas.Screen,2_4_3_1_4_0,2021-05-24T16:07:53.690Z,,,,,,,,,,,,,,,,,,,,,,,,,,,,,,,,,,,,,,,,,,,,,,,,,,,,,,,,,,,,,,,,,,,,,,,,,,,,,,,,,,,,,,,,,,,,,,,,,,,,,,,,,,,,,,,,,,,,497.25699999998324,,timeout,,,,unhealthy,,frie.png,,,,,,,,,,,,,,,frie,,,,,,,,,,,,,,,,,,,,,,,,,,,,,,,,,,,,,,,,,,,,,,,,,,,,,,,,,false,,,,,,,,,336718.6999999976,336718.367,336221.1,336224.6199999936,336227.576,336724.833,,,,
Rating,html.Form,2_4_3_1_4_1,2021-05-24T16:07:59.270Z,,,,,,,,,,,,,,,,,,,,,,,,,,,,,,,,,,,,,,,,,,,,,,,,,,,,,,,,,,,,,,,,,,,,,,,,,,,,,,,,,,,,,,,,,,,,,,,,,,,,,,,,,,,,,,,,,,,,5573.227000001003,,form submission,,,,unhealthy,,frie.png,,,,,,,,,,,,,,,frie,,,,,,,,,,,,,,,,,,,,,,,,,,,,,,,,,,,,,,,,,,,,,,,,,,,,,,,,,false,,,,,,,,,342298.3499999973,342298.060000001,336718.367,336718.7799999956,336724.833,342315.727,,,,69
rating_sequence,flow.Sequence,2_4_3_1_4,2021-05-24T16:07:59.270Z,,,,,,,,,,,,,,,,,,,,,,,,,,,,,,,,,,,,,,,,,,,,,,,,,,,,,,,,,,,,,,,,,,,,,,,,,,,,,,,,,,,,,,,,,,,,,,,,,,,,,,,,,,,,,,,,,,,,6070.484000000986,,completion,,,,unhealthy,,frie.png,,,,,,,,,,,,,,,frie,,,,,,,,,,,,,,,,,,,,,,,,,,,,,,,,,,,,,,,,,,,,,,,,,,,,,,,,,false,,,,,,,,,342298.46499999985,342298.060000001,336221.1,336224.5999999868,336227.576,342315.727,,,,
fixCross,canvas.Screen,2_4_3_1_5_0,2021-05-24T16:07:59.780Z,,,,,,,,,,,,,,,,,,,,,,,,,,,,,,,,,,,,,,,,,,,,,,,,,,,,,,,,,,,,,,,,,,,,,,,,,,,,,,,,,,,,,,,,,,,,,,,,,,,,,,,,,,,,,,,,,,,,499.0009999999893,,timeout,,,,unhealthy,,nacho.png,,,,,,,,,,,,,,,nacho,,,,,,,,,,,,,,,,,,,,,,,,,,,,,,,,,,,,,,,,,,,,,,,,,,,,,,,,,false,,,,,,,,,342808.59000000055,342808.261,342291.625,342298.53,342315.727,342814.728,,,,
Rating,html.Form,2_4_3_1_5_1,2021-05-24T16:08:05.218Z,,,,,,,,,,,,,,,,,,,,,,,,,,,,,,,,,,,,,,,,,,,,,,,,,,,,,,,,,,,,,,,,,,,,,,,,,,,,,,,,,,,,,,,,,,,,,,,,,,,,,,,,,,,,,,,,,,,,5432.277000011993,,form submission,,,,unhealthy,,nacho.png,,,,,,,,,,,,,,,nacho,,,,,,,,,,,,,,,,,,,,,,,,,,,,,,,,,,,,,,,,,,,,,,,,,,,,,,,,,false,,,,,,,,,348247.22499999916,348247.005000012,342808.261,342808.6699999985,342814.728,348252.369,,,,86
rating_sequence,flow.Sequence,2_4_3_1_5,2021-05-24T16:08:05.219Z,,,,,,,,,,,,,,,,,,,,,,,,,,,,,,,,,,,,,,,,,,,,,,,,,,,,,,,,,,,,,,,,,,,,,,,,,,,,,,,,,,,,,,,,,,,,,,,,,,,,,,,,,,,,,,,,,,,,5931.278000011982,,completion,,,,unhealthy,,nacho.png,,,,,,,,,,,,,,,nacho,,,,,,,,,,,,,,,,,,,,,,,,,,,,,,,,,,,,,,,,,,,,,,,,,,,,,,,,,false,,,,,,,,,348247.314999986,348247.005000012,342291.625,342298.50999999326,342315.727,348252.369,,,,
fixCross,canvas.Screen,2_4_3_1_6_0,2021-05-24T16:08:05.715Z,,,,,,,,,,,,,,,,,,,,,,,,,,,,,,,,,,,,,,,,,,,,,,,,,,,,,,,,,,,,,,,,,,,,,,,,,,,,,,,,,,,,,,,,,,,,,,,,,,,,,,,,,,,,,,,,,,,,497.2509999999893,,timeout,,,,unhealthy,,bretzel.png,,,,,,,,,,,,,,,bretzel,,,,,,,,,,,,,,,,,,,,,,,,,,,,,,,,,,,,,,,,,,,,,,,,,,,,,,,,,false,,,,,,,,,348743.4849999845,348743.168,348245.904,348247.3849999951,348252.369,348749.62,,,,
Rating,html.Form,2_4_3_1_6_1,2021-05-24T16:08:13.705Z,,,,,,,,,,,,,,,,,,,,,,,,,,,,,,,,,,,,,,,,,,,,,,,,,,,,,,,,,,,,,,,,,,,,,,,,,,,,,,,,,,,,,,,,,,,,,,,,,,,,,,,,,,,,,,,,,,,,7984.405000012484,,form submission,,,,unhealthy,,bretzel.png,,,,,,,,,,,,,,,bretzel,,,,,,,,,,,,,,,,,,,,,,,,,,,,,,,,,,,,,,,,,,,,,,,,,,,,,,,,,false,,,,,,,,,356734.24499999965,356734.0250000125,348743.168,348743.58499998925,348749.62,356738.177,,,,78
rating_sequence,flow.Sequence,2_4_3_1_6,2021-05-24T16:08:13.706Z,,,,,,,,,,,,,,,,,,,,,,,,,,,,,,,,,,,,,,,,,,,,,,,,,,,,,,,,,,,,,,,,,,,,,,,,,,,,,,,,,,,,,,,,,,,,,,,,,,,,,,,,,,,,,,,,,,,,8481.656000012474,,completion,,,,unhealthy,,bretzel.png,,,,,,,,,,,,,,,bretzel,,,,,,,,,,,,,,,,,,,,,,,,,,,,,,,,,,,,,,,,,,,,,,,,,,,,,,,,,false,,,,,,,,,356734.3450000044,356734.0250000125,348245.904,348247.36499998835,348252.369,356738.177,,,,
fixCross,canvas.Screen,2_4_3_1_7_0,2021-05-24T16:08:14.201Z,,,,,,,,,,,,,,,,,,,,,,,,,,,,,,,,,,,,,,,,,,,,,,,,,,,,,,,,,,,,,,,,,,,,,,,,,,,,,,,,,,,,,,,,,,,,,,,,,,,,,,,,,,,,,,,,,,,,497.28800000000047,,timeout,,,,healthy,,celery.png,,,,,,,,,,,,,,,celery,,,,,,,,,,,,,,,,,,,,,,,,,,,,,,,,,,,,,,,,,,,,,,,,,,,,,,,,,false,,,,,,,,,357229.92499999236,357228.979,356731.721,356734.4100000046,356738.177,357235.465,,,,
Rating,html.Form,2_4_3_1_7_1,2021-05-24T16:08:20.966Z,,,,,,,,,,,,,,,,,,,,,,,,,,,,,,,,,,,,,,,,,,,,,,,,,,,,,,,,,,,,,,,,,,,,,,,,,,,,,,,,,,,,,,,,,,,,,,,,,,,,,,,,,,,,,,,,,,,,6759.529999986349,,form submission,,,,healthy,,celery.png,,,,,,,,,,,,,,,celery,,,,,,,,,,,,,,,,,,,,,,,,,,,,,,,,,,,,,,,,,,,,,,,,,,,,,,,,,false,,,,,,,,,363995.23000000045,363994.9949999864,357228.979,357230.01999998814,357235.465,363996.978,,,,70
rating_sequence,flow.Sequence,2_4_3_1_7,2021-05-24T16:08:20.967Z,,,,,,,,,,,,,,,,,,,,,,,,,,,,,,,,,,,,,,,,,,,,,,,,,,,,,,,,,,,,,,,,,,,,,,,,,,,,,,,,,,,,,,,,,,,,,,,,,,,,,,,,,,,,,,,,,,,,7256.81799998635,,completion,,,,healthy,,celery.png,,,,,,,,,,,,,,,celery,,,,,,,,,,,,,,,,,,,,,,,,,,,,,,,,,,,,,,,,,,,,,,,,,,,,,,,,,false,,,,,,,,,363995.33999999403,363994.9949999864,356731.721,356734.3899999978,356738.177,363996.978,,,,
fixCross,canvas.Screen,2_4_3_1_8_0,2021-05-24T16:08:21.459Z,,,,,,,,,,,,,,,,,,,,,,,,,,,,,,,,,,,,,,,,,,,,,,,,,,,,,,,,,,,,,,,,,,,,,,,,,,,,,,,,,,,,,,,,,,,,,,,,,,,,,,,,,,,,,,,,,,,,497.25500000000466,,timeout,,,,healthy,,cashew.png,,,,,,,,,,,,,,,cashew,,,,,,,,,,,,,,,,,,,,,,,,,,,,,,,,,,,,,,,,,,,,,,,,,,,,,,,,,false,,,,,,,,,364488.05499999435,364487.772,363990.512,363995.4349999898,363996.978,364494.233,,,,
Rating,html.Form,2_4_3_1_8_1,2021-05-24T16:08:26.553Z,,,,,,,,,,,,,,,,,,,,,,,,,,,,,,,,,,,,,,,,,,,,,,,,,,,,,,,,,,,,,,,,,,,,,,,,,,,,,,,,,,,,,,,,,,,,,,,,,,,,,,,,,,,,,,,,,,,,5086.722000012174,,form submission,,,,healthy,,cashew.png,,,,,,,,,,,,,,,cashew,,,,,,,,,,,,,,,,,,,,,,,,,,,,,,,,,,,,,,,,,,,,,,,,,,,,,,,,,false,,,,,,,,,369581.17499999935,369580.9550000122,364487.772,364488.1349999923,364494.233,369583.182,,,,64
rating_sequence,flow.Sequence,2_4_3_1_8,2021-05-24T16:08:26.553Z,,,,,,,,,,,,,,,,,,,,,,,,,,,,,,,,,,,,,,,,,,,,,,,,,,,,,,,,,,,,,,,,,,,,,,,,,,,,,,,,,,,,,,,,,,,,,,,,,,,,,,,,,,,,,,,,,,,,5583.977000012179,,completion,,,,healthy,,cashew.png,,,,,,,,,,,,,,,cashew,,,,,,,,,,,,,,,,,,,,,,,,,,,,,,,,,,,,,,,,,,,,,,,,,,,,,,,,,false,,,,,,,,,369581.28499999293,369580.9550000122,363990.512,363995.4049999942,363996.978,369583.182,,,,
fixCross,canvas.Screen,2_4_3_1_9_0,2021-05-24T16:08:27.046Z,,,,,,,,,,,,,,,,,,,,,,,,,,,,,,,,,,,,,,,,,,,,,,,,,,,,,,,,,,,,,,,,,,,,,,,,,,,,,,,,,,,,,,,,,,,,,,,,,,,,,,,,,,,,,,,,,,,,497.2410000000382,,timeout,,,,healthy,,edamame.png,,,,,,,,,,,,,,,edamame,,,,,,,,,,,,,,,,,,,,,,,,,,,,,,,,,,,,,,,,,,,,,,,,,,,,,,,,,false,,,,,,,,,370074.2249999894,370073.945,369576.682,369581.3499999931,369583.182,370080.423,,,,
Rating,html.Form,2_4_3_1_9_1,2021-05-24T16:08:33.551Z,,,,,,,,,,,,,,,,,,,,,,,,,,,,,,,,,,,,,,,,,,,,,,,,,,,,,,,,,,,,,,,,,,,,,,,,,,,,,,,,,,,,,,,,,,,,,,,,,,,,,,,,,,,,,,,,,,,,6498.482000002114,,form submission,,,,healthy,,edamame.png,,,,,,,,,,,,,,,edamame,,,,,,,,,,,,,,,,,,,,,,,,,,,,,,,,,,,,,,,,,,,,,,,,,,,,,,,,,false,,,,,,,,,376579.11500000046,376578.9050000021,370073.945,370074.30499998736,370080.423,376583.618,,,,42
rating_sequence,flow.Sequence,2_4_3_1_9,2021-05-24T16:08:33.551Z,,,,,,,,,,,,,,,,,,,,,,,,,,,,,,,,,,,,,,,,,,,,,,,,,,,,,,,,,,,,,,,,,,,,,,,,,,,,,,,,,,,,,,,,,,,,,,,,,,,,,,,,,,,,,,,,,,,,6995.723000002152,,completion,,,,healthy,,edamame.png,,,,,,,,,,,,,,,edamame,,,,,,,,,,,,,,,,,,,,,,,,,,,,,,,,,,,,,,,,,,,,,,,,,,,,,,,,,false,,,,,,,,,376579.22499999404,376578.9050000021,369576.682,369581.32999998634,369583.182,376583.618,,,,
fixCross,canvas.Screen,2_4_3_1_10_0,2021-05-24T16:08:34.046Z,,,,,,,,,,,,,,,,,,,,,,,,,,,,,,,,,,,,,,,,,,,,,,,,,,,,,,,,,,,,,,,,,,,,,,,,,,,,,,,,,,,,,,,,,,,,,,,,,,,,,,,,,,,,,,,,,,,,497.2609999999986,,timeout,,,,healthy,,cucumber.png,,,,,,,,,,,,,,,cucumber,,,,,,,,,,,,,,,,,,,,,,,,,,,,,,,,,,,,,,,,,,,,,,,,,,,,,,,,,false,,,,,,,,,377074.72000000416,377074.425,376577.146,376579.28499998525,376583.618,377080.879,,,,
Rating,html.Form,2_4_3_1_10_1,2021-05-24T16:08:39.263Z,,,,,,,,,,,,,,,,,,,,,,,,,,,,,,,,,,,,,,,,,,,,,,,,,,,,,,,,,,,,,,,,,,,,,,,,,,,,,,,,,,,,,,,,,,,,,,,,,,,,,,,,,,,,,,,,,,,,5210.16599999083,,form submission,,,,healthy,,cucumber.png,,,,,,,,,,,,,,,cucumber,,,,,,,,,,,,,,,,,,,,,,,,,,,,,,,,,,,,,,,,,,,,,,,,,,,,,,,,,false,,,,,,,,,382291.2549999892,382291.04499999085,377074.425,377074.8050000111,377080.879,382292.488,,,,75
rating_sequence,flow.Sequence,2_4_3_1_10,2021-05-24T16:08:39.263Z,,,,,,,,,,,,,,,,,,,,,,,,,,,,,,,,,,,,,,,,,,,,,,,,,,,,,,,,,,,,,,,,,,,,,,,,,,,,,,,,,,,,,,,,,,,,,,,,,,,,,,,,,,,,,,,,,,,,5707.426999990828,,completion,,,,healthy,,cucumber.png,,,,,,,,,,,,,,,cucumber,,,,,,,,,,,,,,,,,,,,,,,,,,,,,,,,,,,,,,,,,,,,,,,,,,,,,,,,,false,,,,,,,,,382291.34999998496,382291.04499999085,376577.146,376579.2650000076,376583.618,382292.488,,,,
fixCross,canvas.Screen,2_4_3_1_11_0,2021-05-24T16:08:39.755Z,,,,,,,,,,,,,,,,,,,,,,,,,,,,,,,,,,,,,,,,,,,,,,,,,,,,,,,,,,,,,,,,,,,,,,,,,,,,,,,,,,,,,,,,,,,,,,,,,,,,,,,,,,,,,,,,,,,,497.2609999999986,,timeout,,,,unhealthy,,chips.png,,,,,,,,,,,,,,,potato chip,,,,,,,,,,,,,,,,,,,,,,,,,,,,,,,,,,,,,,,,,,,,,,,,,,,,,,,,,false,,,,,,,,,382783.52999998606,382783.294,382286.028,382291.4100000053,382292.488,382789.749,,,,
Rating,html.Form,2_4_3_1_11_1,2021-05-24T16:08:43.933Z,,,,,,,,,,,,,,,,,,,,,,,,,,,,,,,,,,,,,,,,,,,,,,,,,,,,,,,,,,,,,,,,,,,,,,,,,,,,,,,,,,,,,,,,,,,,,,,,,,,,,,,,,,,,,,,,,,,,4171.17599999212,,form submission,,,,unhealthy,,chips.png,,,,,,,,,,,,,,,potato chip,,,,,,,,,,,,,,,,,,,,,,,,,,,,,,,,,,,,,,,,,,,,,,,,,,,,,,,,,false,,,,,,,,,386961.1300000106,386960.92499999213,382783.294,382783.620000002,382789.749,386974.377,,,,68
rating_sequence,flow.Sequence,2_4_3_1_11,2021-05-24T16:08:43.933Z,,,,,,,,,,,,,,,,,,,,,,,,,,,,,,,,,,,,,,,,,,,,,,,,,,,,,,,,,,,,,,,,,,,,,,,,,,,,,,,,,,,,,,,,,,,,,,,,,,,,,,,,,,,,,,,,,,,,4668.436999992118,,completion,,,,unhealthy,,chips.png,,,,,,,,,,,,,,,potato chip,,,,,,,,,,,,,,,,,,,,,,,,,,,,,,,,,,,,,,,,,,,,,,,,,,,,,,,,,false,,,,,,,,,386961.2250000064,386960.92499999213,382286.028,382291.3899999985,382292.488,386974.377,,,,
fixCross,canvas.Screen,2_4_3_1_12_0,2021-05-24T16:08:44.437Z,,,,,,,,,,,,,,,,,,,,,,,,,,,,,,,,,,,,,,,,,,,,,,,,,,,,,,,,,,,,,,,,,,,,,,,,,,,,,,,,,,,,,,,,,,,,,,,,,,,,,,,,,,,,,,,,,,,,497.4220000000205,,timeout,,,,healthy,,tomato.png,,,,,,,,,,,,,,,cherry tomato,,,,,,,,,,,,,,,,,,,,,,,,,,,,,,,,,,,,,,,,,,,,,,,,,,,,,,,,,false,,,,,,,,,387465.6350000005,387465.342,386955.158,386961.29000000656,386974.377,387471.799,,,,
Rating,html.Form,2_4_3_1_12_1,2021-05-24T16:08:48.790Z,,,,,,,,,,,,,,,,,,,,,,,,,,,,,,,,,,,,,,,,,,,,,,,,,,,,,,,,,,,,,,,,,,,,,,,,,,,,,,,,,,,,,,,,,,,,,,,,,,,,,,,,,,,,,,,,,,,,4346.106000003521,,form submission,,,,healthy,,tomato.png,,,,,,,,,,,,,,,cherry tomato,,,,,,,,,,,,,,,,,,,,,,,,,,,,,,,,,,,,,,,,,,,,,,,,,,,,,,,,,false,,,,,,,,,391818.1249999907,391817.9050000035,387465.342,387465.7099999895,387471.799,391838.669,,,,90
rating_sequence,flow.Sequence,2_4_3_1_12,2021-05-24T16:08:48.790Z,,,,,,,,,,,,,,,,,,,,,,,,,,,,,,,,,,,,,,,,,,,,,,,,,,,,,,,,,,,,,,,,,,,,,,,,,,,,,,,,,,,,,,,,,,,,,,,,,,,,,,,,,,,,,,,,,,,,4843.528000003542,,completion,,,,healthy,,tomato.png,,,,,,,,,,,,,,,cherry tomato,,,,,,,,,,,,,,,,,,,,,,,,,,,,,,,,,,,,,,,,,,,,,,,,,,,,,,,,,false,,,,,,,,,391818.2300000044,391817.9050000035,386955.158,386961.2699999998,386974.377,391838.669,,,,
fixCross,canvas.Screen,2_4_3_1_13_0,2021-05-24T16:08:49.306Z,,,,,,,,,,,,,,,,,,,,,,,,,,,,,,,,,,,,,,,,,,,,,,,,,,,,,,,,,,,,,,,,,,,,,,,,,,,,,,,,,,,,,,,,,,,,,,,,,,,,,,,,,,,,,,,,,,,,502.4789999999921,,timeout,,,,healthy,,radish.png,,,,,,,,,,,,,,,radish,,,,,,,,,,,,,,,,,,,,,,,,,,,,,,,,,,,,,,,,,,,,,,,,,,,,,,,,,false,,,,,,,,,392334.96999999625,392334.678,391811.572,391818.2899999956,391838.669,392341.148,,,,
Rating,html.Form,2_4_3_1_13_1,2021-05-24T16:08:53.569Z,,,,,,,,,,,,,,,,,,,,,,,,,,,,,,,,,,,,,,,,,,,,,,,,,,,,,,,,,,,,,,,,,,,,,,,,,,,,,,,,,,,,,,,,,,,,,,,,,,,,,,,,,,,,,,,,,,,,4256.081999984861,,form submission,,,,healthy,,radish.png,,,,,,,,,,,,,,,radish,,,,,,,,,,,,,,,,,,,,,,,,,,,,,,,,,,,,,,,,,,,,,,,,,,,,,,,,,false,,,,,,,,,396597.4400000123,396597.22999998485,392334.678,392335.0499999942,392341.148,396603.414,,,,31
rating_sequence,flow.Sequence,2_4_3_1_13,2021-05-24T16:08:53.569Z,,,,,,,,,,,,,,,,,,,,,,,,,,,,,,,,,,,,,,,,,,,,,,,,,,,,,,,,,,,,,,,,,,,,,,,,,,,,,,,,,,,,,,,,,,,,,,,,,,,,,,,,,,,,,,,,,,,,4758.560999984853,,completion,,,,healthy,,radish.png,,,,,,,,,,,,,,,radish,,,,,,,,,,,,,,,,,,,,,,,,,,,,,,,,,,,,,,,,,,,,,,,,,,,,,,,,,false,,,,,,,,,396597.53500000807,396597.22999998485,391811.572,391818.2749999978,391838.669,396603.414,,,,
fixCross,canvas.Screen,2_4_3_1_14_0,2021-05-24T16:08:54.066Z,,,,,,,,,,,,,,,,,,,,,,,,,,,,,,,,,,,,,,,,,,,,,,,,,,,,,,,,,,,,,,,,,,,,,,,,,,,,,,,,,,,,,,,,,,,,,,,,,,,,,,,,,,,,,,,,,,,,497.3269999999902,,timeout,,,,unhealthy,,ritz.png,,,,,,,,,,,,,,,cracker,,,,,,,,,,,,,,,,,,,,,,,,,,,,,,,,,,,,,,,,,,,,,,,,,,,,,,,,,false,,,,,,,,,397094.5150000043,397094.223,396596.954,396597.5899999903,396603.414,397100.741,,,,
Rating,html.Form,2_4_3_1_14_1,2021-05-24T16:08:57.490Z,,,,,,,,,,,,,,,,,,,,,,,,,,,,,,,,,,,,,,,,,,,,,,,,,,,,,,,,,,,,,,,,,,,,,,,,,,,,,,,,,,,,,,,,,,,,,,,,,,,,,,,,,,,,,,,,,,,,3417.2240000063903,,form submission,,,,unhealthy,,ritz.png,,,,,,,,,,,,,,,cracker,,,,,,,,,,,,,,,,,,,,,,,,,,,,,,,,,,,,,,,,,,,,,,,,,,,,,,,,,false,,,,,,,,,400518.1900000025,400517.96500000637,397094.223,397094.5950000023,397100.741,400523.433,,,,81
rating_sequence,flow.Sequence,2_4_3_1_14,2021-05-24T16:08:57.490Z,,,,,,,,,,,,,,,,,,,,,,,,,,,,,,,,,,,,,,,,,,,,,,,,,,,,,,,,,,,,,,,,,,,,,,,,,,,,,,,,,,,,,,,,,,,,,,,,,,,,,,,,,,,,,,,,,,,,3914.5510000063805,,completion,,,,unhealthy,,ritz.png,,,,,,,,,,,,,,,cracker,,,,,,,,,,,,,,,,,,,,,,,,,,,,,,,,,,,,,,,,,,,,,,,,,,,,,,,,,false,,,,,,,,,400518.2949999871,400517.96500000637,396596.954,396597.5800000015,396603.414,400523.433,,,,
fixCross,canvas.Screen,2_4_3_1_15_0,2021-05-24T16:08:57.986Z,,,,,,,,,,,,,,,,,,,,,,,,,,,,,,,,,,,,,,,,,,,,,,,,,,,,,,,,,,,,,,,,,,,,,,,,,,,,,,,,,,,,,,,,,,,,,,,,,,,,,,,,,,,,,,,,,,,,497.26799999998184,,timeout,,,,healthy,,pickle.png,,,,,,,,,,,,,,,pickle,,,,,,,,,,,,,,,,,,,,,,,,,,,,,,,,,,,,,,,,,,,,,,,,,,,,,,,,,false,,,,,,,,,401014.519999997,401014.23,400516.968,400518.36499999627,400523.433,401020.701,,,,
Rating,html.Form,2_4_3_1_15_1,2021-05-24T16:09:13.134Z,,,,,,,,,,,,,,,,,,,,,,,,,,,,,,,,,,,,,,,,,,,,,,,,,,,,,,,,,,,,,,,,,,,,,,,,,,,,,,,,,,,,,,,,,,,,,,,,,,,,,,,,,,,,,,,,,,,,15141.184000008623,,form submission,,,,healthy,,pickle.png,,,,,,,,,,,,,,,pickle,,,,,,,,,,,,,,,,,,,,,,,,,,,,,,,,,,,,,,,,,,,,,,,,,,,,,,,,,false,,,,,,,,,416162.1049999958,416161.8850000086,401014.23,401014.59999999497,401020.701,416164.782,,,,90
rating_sequence,flow.Sequence,2_4_3_1_15,2021-05-24T16:09:13.134Z,,,,,,,,,,,,,,,,,,,,,,,,,,,,,,,,,,,,,,,,,,,,,,,,,,,,,,,,,,,,,,,,,,,,,,,,,,,,,,,,,,,,,,,,,,,,,,,,,,,,,,,,,,,,,,,,,,,,15638.452000008605,,completion,,,,healthy,,pickle.png,,,,,,,,,,,,,,,pickle,,,,,,,,,,,,,,,,,,,,,,,,,,,,,,,,,,,,,,,,,,,,,,,,,,,,,,,,,false,,,,,,,,,416162.21999999834,416161.8850000086,400516.968,400518.3449999895,400523.433,416164.782,,,,
fixCross,canvas.Screen,2_4_3_1_16_0,2021-05-24T16:09:13.627Z,,,,,,,,,,,,,,,,,,,,,,,,,,,,,,,,,,,,,,,,,,,,,,,,,,,,,,,,,,,,,,,,,,,,,,,,,,,,,,,,,,,,,,,,,,,,,,,,,,,,,,,,,,,,,,,,,,,,497.18900000001304,,timeout,,,,unhealthy,,peanut_cracker.png,,,,,,,,,,,,,,,peanut chip,,,,,,,,,,,,,,,,,,,,,,,,,,,,,,,,,,,,,,,,,,,,,,,,,,,,,,,,,false,,,,,,,,,416655.80000000773,416655.512,416158.239,416162.2849999985,416164.782,416661.971,,,,
Rating,html.Form,2_4_3_1_16_1,2021-05-24T16:09:17.998Z,,,,,,,,,,,,,,,,,,,,,,,,,,,,,,,,,,,,,,,,,,,,,,,,,,,,,,,,,,,,,,,,,,,,,,,,,,,,,,,,,,,,,,,,,,,,,,,,,,,,,,,,,,,,,,,,,,,,4364.059000008157,,form submission,,,,unhealthy,,peanut_cracker.png,,,,,,,,,,,,,,,peanut chip,,,,,,,,,,,,,,,,,,,,,,,,,,,,,,,,,,,,,,,,,,,,,,,,,,,,,,,,,false,,,,,,,,,421026.2550000043,421026.0300000082,416655.512,416655.8800000057,416661.971,421027.582,,,,68
rating_sequence,flow.Sequence,2_4_3_1_16,2021-05-24T16:09:17.998Z,,,,,,,,,,,,,,,,,,,,,,,,,,,,,,,,,,,,,,,,,,,,,,,,,,,,,,,,,,,,,,,,,,,,,,,,,,,,,,,,,,,,,,,,,,,,,,,,,,,,,,,,,,,,,,,,,,,,4861.2480000081705,,completion,,,,unhealthy,,peanut_cracker.png,,,,,,,,,,,,,,,peanut chip,,,,,,,,,,,,,,,,,,,,,,,,,,,,,,,,,,,,,,,,,,,,,,,,,,,,,,,,,false,,,,,,,,,421026.3500000001,421026.0300000082,416158.239,416162.26499999175,416164.782,421027.582,,,,
fixCross,canvas.Screen,2_4_3_1_17_0,2021-05-24T16:09:18.490Z,,,,,,,,,,,,,,,,,,,,,,,,,,,,,,,,,,,,,,,,,,,,,,,,,,,,,,,,,,,,,,,,,,,,,,,,,,,,,,,,,,,,,,,,,,,,,,,,,,,,,,,,,,,,,,,,,,,,497.26600000000326,,timeout,,,,unhealthy,,sausage.png,,,,,,,,,,,,,,,salami,,,,,,,,,,,,,,,,,,,,,,,,,,,,,,,,,,,,,,,,,,,,,,,,,,,,,,,,,false,,,,,,,,,421518.6849999882,421518.387,421021.122,421026.4099999913,421027.582,421524.848,,,,
Rating,html.Form,2_4_3_1_17_1,2021-05-24T16:09:22.473Z,,,,,,,,,,,,,,,,,,,,,,,,,,,,,,,,,,,,,,,,,,,,,,,,,,,,,,,,,,,,,,,,,,,,,,,,,,,,,,,,,,,,,,,,,,,,,,,,,,,,,,,,,,,,,,,,,,,,3976.0869999891147,,form submission,,,,unhealthy,,sausage.png,,,,,,,,,,,,,,,salami,,,,,,,,,,,,,,,,,,,,,,,,,,,,,,,,,,,,,,,,,,,,,,,,,,,,,,,,,false,,,,,,,,,425501.1550000054,425500.9349999891,421518.387,421518.7549999973,421524.848,425509.471,,,,96
rating_sequence,flow.Sequence,2_4_3_1_17,2021-05-24T16:09:22.473Z,,,,,,,,,,,,,,,,,,,,,,,,,,,,,,,,,,,,,,,,,,,,,,,,,,,,,,,,,,,,,,,,,,,,,,,,,,,,,,,,,,,,,,,,,,,,,,,,,,,,,,,,,,,,,,,,,,,,4473.352999989118,,completion,,,,unhealthy,,sausage.png,,,,,,,,,,,,,,,salami,,,,,,,,,,,,,,,,,,,,,,,,,,,,,,,,,,,,,,,,,,,,,,,,,,,,,,,,,false,,,,,,,,,425501.25500001013,425500.9349999891,421021.122,421026.38999998453,421027.582,425509.471,,,,
rating_loop,flow.Loop,2_4_3_1,2021-05-24T16:09:22.473Z,,,,,,,,,,,,,,,,,,,,,,,,,,,,,,,,,,,,,,,,,,,,,,,,,,,,,,,,,,,,,,,,,,,,,,,,,,,,,,,,,,,,,,,,,,,,,,,,,,,,,,,,,,,,,,,,,,,,117636.90999998909,,completion,,,,,,,,,,,,,,,,,,,,,,,,,,,,,,,,,,,,,,,,,,,,,,,,,,,,,,,,,,,,,,,,,,,,,,,,,,,,,,false,,,,,,,,,425501.339999988,425500.9349999891,307857.562,307854.319999984,307864.025,425509.471,,,,
data_transmission,html.Screen,2_4_3_2,2021-05-24T16:09:22.478Z,,,,,,,,,,,,,,,,,,,,,,,,,,,,,,,,,,,,,,,,,,,,,,,,,,,,,,,,,,,,,,,,,,,,,,,,,,,,,,,,,,,,,,,,,,,,,,,,,,,,,,,,,,,,,,,,,,,,NaN,,no compatible backend,,,,,,,,,,,,,,,Transferring data,,,,,,,,,,,,,,,,,,,,,,,,,,,,,,,,,,,,,,,,,,,,,,,,,,,,,,,,,,,,,,,false,,,Please wait a second…,,,,,,425506.395000004,425506.2399999879,,425501.3800000015,,425509.471,,,,
instructions,html.Screen,2_4_3_3,2021-05-24T16:11:24.801Z,,,,,,,,,,,,,,,,,,,,,,,,,,,,,,,,,,,,,,,,,,,,,,,,,,,,,,,,,,,,,,,,,,,,,,,,,,,,,,,,,,,,,,,,,,,,,,,,,,,,,,,,,,,,,,,,,,,,122319.93399999675,,done,,,,,,,,,,,,,,,,,,,,,,,,,,,,,,,,,,,,,,,,,,,,,,,,,,,,,,,,,,,,,,,,,,,,,,,,,,,,,,false,,,,,,,,,547829.5400000061,547829.4049999968,425496.521,425506.47500000196,425509.471,547836.943,,,,
Q1,html.Screen,2_4_3_4_0,2021-05-24T16:11:33.444Z,,,,,,,,,,,,,,,,,,,,,,,,,,,,,,,,,,,,,,,,,,,,,,,,,,,,,,,,,,,,,,,,,,,,,,,,,,,,,,,,,,,,,,,,,,,,,,,,,,,,,,,,,,,,,,,,false,input_Q1==3,,,8634.431999993743,,response,,,,,,,,,,,,,,,,,,,,,,,,,Q1_i4,Q1_i2,Q1_i3,Q1_i1,4,2,3,1,false,false,correct,false,,,,,,,,,,,,,,,,,,,,,,,,,,,,,,,,,,,,,,,,,click #Q1_i3,false,,,,,,,,,556472.695000004,556471.3749999937,547830.461,547829.6400000108,547836.943,556477.722,,,,
Q1_correct,html.Screen,2_4_3_4_1,2021-05-24T16:11:35.372Z,,,,,,,,,,,,,,,,,,,,,,,,,,,,,,,,,,,,,,,,,,,,,,,,,,,,,,,,,,,,,,,,,,,,,,,,,,,,,,,,,,,,,,,,,,,,,,,,,,,,,,,,,,,,,,,,,,,,1922.9480000027688,,response,,,,,,,,,,,,,,,,,,,,,,,,,,,,,,,,,,,,,,,,,,,,,,,,,,,,,,,,,,,,,,,,,,,,,,,,,,,,,keypress,false,,,,,,,,,558401.0300000082,558400.6700000027,556471.267,556472.7950000088,556477.722,558402.236,,,,
Q2,html.Screen,2_4_3_4_2,2021-05-24T16:11:43.947Z,,,,,,,,,,,,,,,,,,,,,,,,,,,,,,,,,,,,,,,,,,,,,,,,,,,,,,,,,,,,,,,,,,,,,,,,,,,,,,,,,,,,,,,,,,,,,,,,,,,,,,,,,,,,,,,,,,,,8573.14899999788,,response,,,,,,,,,,,,,,,,,,,,,,,,,,,,,,,,,,,,,Q2_i1,Q2_i2,Q2_i3,Option 1,Option 2,Same amount,correct,opt2,same,,,,,,,,,,,,,,,,,,,,,,,,,,,,,,,,click #Q2_i1,false,,,,,,,,,566975.8049999946,566975.3849999979,558395.752,558401.0950000084,558402.236,566978.451,,,,
Q2_correct,html.Screen,2_4_3_4_3,2021-05-24T16:11:45.078Z,,,,,,,,,,,,,,,,,,,,,,,,,,,,,,,,,,,,,,,,,,,,,,,,,,,,,,,,,,,,,,,,,,,,,,,,,,,,,,,,,,,,,,,,,,,,,,,,,,,,,,,,,,,,,,,,,,,,1128.3990000110352,,response,,,,,,,,,,,,,,,,,,,,,,,,,,,,,,,,,,,,,,,,,,,,,,,,,,,,,,,,,,,,,,,,,,,,,,,,,,,,,keypress,false,,,,,,,,,568107.2099999874,568106.850000011,566971.976,566975.8999999904,566978.451,568108.634,,,,
Q4,html.Screen,2_4_3_4_4,2021-05-24T16:11:58.504Z,,,,,,,,,,,,,,,,,,,,,,,,,,,,,,,,,,,,,,,,,,,,,,,,,,,,,,,,,,,,,,,,,,,,,,,,,,,,,,,,,,,,,,,,,,,,,,,,,,,,,,,,,,,,,,,,,,,,13423.791000012192,,response,,,,,,,,,,,,,,,,,,,,,,,,,,,,,,,,,,,,,,,,,,,,,,Q4_i3,Q4_i2,Q4_i1,Q4_i4,Press the arrow key that corresponds with the snack option with more food items,Indicate the number of food items in each snack option,Press the arrow key that corresponds with the snack option I prefer,Press the space key,morefood,indicate,correct,pressspace,,,,,,,,,,,,,,,,,,,,click #Q4_i1,false,,,,,,,,,581532.8149999841,581532.4250000122,568102.125,568107.2749999876,568108.634,581534.795,,,,
Q4_correct,html.Screen,2_4_3_4_5,2021-05-24T16:11:59.468Z,,,,,,,,,,,,,,,,,,,,,,,,,,,,,,,,,,,,,,,,,,,,,,,,,,,,,,,,,,,,,,,,,,,,,,,,,,,,,,,,,,,,,,,,,,,,,,,,,,,,,,,,,,,,,,,,,,,,961.9999999845168,,response,,,,,,,,,,,,,,,,,,,,,,,,,,,,,,,,,,,,,,,,,,,,,,,,,,,,,,,,,,,,,,,,,,,,,,,,,,,,,keypress,false,,,,,,,,,582497.1249999944,582496.7949999846,581528.321,581532.9149999889,581534.795,582503.509,,,,
Q5,html.Screen,2_4_3_4_6,2021-05-24T16:12:10.082Z,,,,,,,,,,,,,,,,,,,,,,,,,,,,,,,,,,,,,,,,,,,,,,,,,,,,,,,,,,,,,,,,,,,,,,,,,,,,,,,,,,,,,,,,,,,,,,,,,,,,,,,,,,,,,,,,,,,,10606.865999989328,,response,,,,,,,,,,,,,,,,,,,,,,,,,,,,,,,,,,,,,,,,,,,,,,,,,,,,,,,,,,Q5_i4,Q5_i2,Q5_i1,Q5_i3,Snack Option 1 has been chosen,There are more pieces of chocolate in snack Option 2,Snack Option 2 has been chosen,There are more slices of kiwi in snack Option 1,chose1,morechoc2,correct,morekiwi1,,,,,,,,click #Q5_i1,false,,,,,,,,,593110.8700000041,593110.3749999893,582490.565,582497.1899999946,582503.509,593113.996,,,,
Q5_correct,html.Screen,2_4_3_4_7,2021-05-24T16:12:11.277Z,,,,,,,,,,,,,,,,,,,,,,,,,,,,,,,,,,,,,,,,,,,,,,,,,,,,,,,,,,,,,,,,,,,,,,,,,,,,,,,,,,,,,,,,,,,,,,,,,,,,,,,,,,,,,,,,,,,,1191.6039999923669,,response,,,,,,,,,,,,,,,,,,,,,,,,,,,,,,,,,,,,,,,,,,,,,,,,,,,,,,,,,,,,,,,,,,,,,,,,,,,,,keypress,false,,,,,,,,,594305.9399999911,594305.5999999924,593107.525,593110.9850000066,593113.996,594308.763,,,,
practice_sequence,flow.Sequence,2_4_3_4,2021-05-24T16:12:11.277Z,,,,,,,,,,,,,,,,,,,,,,,,,,,,,,,,,,,,,,,,,,,,,,,,,,,,,,,,,,,,,,,,,,,,,,,,,,,,,,,,,,,,,,,,,,,,,,,,,,,,,,,,,,,,,,,,,,,,46468.65699999244,,completion,,,,,,,,,,,,,,,,,,,,,,,,,,,,,,,,,,,,,,,,,,,,,,,,,,,,,,,,,,,,,,,,,,,,,,,,,,,,,,false,,,,,,,,,594306.0399999958,594305.5999999924,547830.461,547829.6200000041,547836.943,594308.763,,,,
final_instru,html.Screen,2_4_3_5,2021-05-24T16:12:48.757Z,,,,,,,,,,,,,,,,,,,,,,,,,,,,,,,,,,,,,,,,,,,,,,,,,,,,,,,,,,,,,,,,,,,,,,,,,,,,,,,,,,,,,,,,,,,,,,,,,,,,,,,,,,,,,,,,,,,,37477.321999999695,,done,,,,,,,,,,,,,,,,,,,,,,,,,,,,,,,,,,,,,,,,,,,,,,,,,,,,,,,,,,,,,,,,,,,,,,,,,,,,,,false,,,,,,,,,631786.2099999911,631786.0849999997,594302.244,594306.0800000094,594308.763,631790.977,,,,
blank_screen,canvas.Screen,2_4_3_6_0,2021-05-24T16:12:50.758Z,,,,,,,,,,,,,,,,,,,,,,,,,,,,,,,,,,,,,,,,,,,,,,,,,,,,,,,,,,,,,,,,,,,,,,,,,,,,,,,,,,,,,,,,,,,,,,,,,,,,,,,,,,,,,,,,,,,,2021.3420000000624,,timeout,,,,,,,,,,,,,,,,,,,,,,,,,,,,,,,,,,,,,,,,,,,,,,,,,,,,,,,,,,,,,,,,,,,,,,,,,,,,,,false,,,,,,,,,633786.8449999951,633786.472,631784.487,631786.300000007,631790.977,633812.319,,,,
fixCross,canvas.Screen,2_4_3_6_1_0_0_0_0_0_0,2021-05-24T16:12:51.378Z,,,blank.png,blank.png,blank.png,blank.png,blank.png,blank.png,blank.png,"[""sausage.png""]",blank.png,blank.png,blank.png,blank.png,blank.png,,,,,,,,,,,,,,,,,,,,,,,,,,,,,"[""sausage.png""]","[""tomato.png""]",PB18.png,,,,,,,,,,,0,6,"[""tomato.png""]","[""tomato.png""]","[""tomato.png""]","[""tomato.png""]","[""tomato.png""]","[""tomato.png""]",blank.png,PB18.png,PB17.png,"[""tomato.png""]","[""tomato.png""]","[""tomato.png""]","[""tomato.png""]","[""tomato.png""]","[""tomato.png""]","[""tomato.png""]","[""tomato.png""]","[""tomato.png""]","[""tomato.png""]","[""tomato.png""]","[""tomato.png""]",1,"[""sausage.png""]",blank.png,blank.png,blank.png,6,"[""tomato.png""]","[""tomato.png""]","[""tomato.png""]","[""tomato.png""]","[""tomato.png""]","[""tomato.png""]",PB17.png,,,,,,,,,,,1,,,,,,,,,,,,,1175.3519999999553,,timeout,,,,,,,,,,,,,4,,,,,,,,,,,,,,,,,,,,,,,,,,,,,,,,,,,,,,,,,,,,,,,,,,,,,,,,,"[""tomato.png""]","[""sausage.png""]",,,,2,,,false,,1,,,,,,,634406.9099999906,634406.604,633786.472,633811.8400000094,633812.319,634987.671,1,,,
timeout,canvas.Screen,2_4_3_6_1_0_0_0_0_0_1,2021-05-24T16:12:52.450Z,,,blank.png,blank.png,blank.png,blank.png,blank.png,blank.png,blank.png,"[""sausage.png""]",blank.png,blank.png,blank.png,blank.png,blank.png,,,,,,,,,,,,,,,,,,,,,,,,,,,,,"[""sausage.png""]","[""tomato.png""]",PB18.png,,,,,,,,,,,0,6,"[""tomato.png""]","[""tomato.png""]","[""tomato.png""]","[""tomato.png""]","[""tomato.png""]","[""tomato.png""]",blank.png,PB18.png,PB17.png,"[""tomato.png""]","[""tomato.png""]","[""tomato.png""]","[""tomato.png""]","[""tomato.png""]","[""tomato.png""]","[""tomato.png""]","[""tomato.png""]","[""tomato.png""]","[""tomato.png""]","[""tomato.png""]","[""tomato.png""]",1,"[""sausage.png""]",blank.png,blank.png,blank.png,6,"[""tomato.png""]","[""tomato.png""]","[""tomato.png""]","[""tomato.png""]","[""tomato.png""]","[""tomato.png""]",PB17.png,,,,,,,,,,,1,,,,,,,,,,,,,813.7079999999842,,timeout,,,,,,,,,,,,,4,,,,,,,,,,,,,,,,,,,,,,,,,,,,,,,,,,,,,,,,,,,,,,,,,,,,,,,,,"[""tomato.png""]","[""sausage.png""]",,,,2,,,false,,1,,,,,,,635478.7650000071,635478.477,634406.604,635031.9449999952,634987.671,635801.379,,,,
choice,canvas.Screen,2_4_3_6_1_0_0_0_0_0_2,2021-05-24T16:12:55.421Z,,,blank.png,blank.png,blank.png,blank.png,blank.png,blank.png,blank.png,"[""sausage.png""]",blank.png,blank.png,blank.png,blank.png,blank.png,,,,,,,,,,,,,,,,,,,,,,,,,,,,,"[""sausage.png""]","[""tomato.png""]",PB18.png,,,,,,,,,,,0,6,"[""tomato.png""]","[""tomato.png""]","[""tomato.png""]","[""tomato.png""]","[""tomato.png""]","[""tomato.png""]",blank.png,PB18.png,PB17.png,"[""tomato.png""]","[""tomato.png""]","[""tomato.png""]","[""tomato.png""]","[""tomato.png""]","[""tomato.png""]","[""tomato.png""]","[""tomato.png""]","[""tomato.png""]","[""tomato.png""]","[""tomato.png""]","[""tomato.png""]",1,"[""sausage.png""]",blank.png,blank.png,blank.png,6,"[""tomato.png""]","[""tomato.png""]","[""tomato.png""]","[""tomato.png""]","[""tomato.png""]","[""tomato.png""]",PB17.png,,,,,,,,,,,1,,,,,,,,,,,,,2648.036000010092,,response,,,,,,,,,,,,,4,,,,,,,,,,,,,,,,,,,,,,,,,,,,,,,,,,,,,,,,,,,,,,,,,,,,,,,,,"[""tomato.png""]","[""sausage.png""]",,,,2,right,keydown(ArrowRight),false,,1,,,,,,,638450.6650000112,638449.41500001,635478.477,635803.7849999964,635801.379,638752.764,,1,,
square,canvas.Screen,2_4_3_6_1_0_0_0_0_0_3,2021-05-24T16:12:56.718Z,,,blank.png,blank.png,blank.png,blank.png,blank.png,blank.png,blank.png,"[""sausage.png""]",blank.png,blank.png,blank.png,blank.png,blank.png,,,,,,,,,,,,,,,,,,,,,,,,,,,,,"[""sausage.png""]","[""tomato.png""]",PB18.png,,,,,,,,,,,0,6,"[""tomato.png""]","[""tomato.png""]","[""tomato.png""]","[""tomato.png""]","[""tomato.png""]","[""tomato.png""]",blank.png,PB18.png,PB17.png,"[""tomato.png""]","[""tomato.png""]","[""tomato.png""]","[""tomato.png""]","[""tomato.png""]","[""tomato.png""]","[""tomato.png""]","[""tomato.png""]","[""tomato.png""]","[""tomato.png""]","[""tomato.png""]","[""tomato.png""]",1,"[""sausage.png""]",blank.png,blank.png,blank.png,6,"[""tomato.png""]","[""tomato.png""]","[""tomato.png""]","[""tomato.png""]","[""tomato.png""]","[""tomato.png""]",PB17.png,,,,,,,,,,,1,,,#808080,#33ff3f,,,,,,,,,1000.9679999999935,,timeout,,,,,,,,,,,,,4,,,,,,,,,,,,,,,,,,,,,,,,,,,,,,,,,,,,,,,,,,,,,,,,,,,,,,,,,"[""tomato.png""]","[""sausage.png""]",,,,2,,,false,,1,,,,,white,black,639747.5949999935,639747.213,638739.765,638743.8700000057,638752.764,639753.732,,,,
ITI_late,canvas.Screen,2_4_3_6_1_0_0_0_0_0_4,2021-05-24T16:12:56.970Z,,,blank.png,blank.png,blank.png,blank.png,blank.png,blank.png,blank.png,"[""sausage.png""]",blank.png,blank.png,blank.png,blank.png,blank.png,,,,,,,,,,,,,,,,,,,,,,,,,,,,,"[""sausage.png""]","[""tomato.png""]",PB18.png,,,,,,,,,,,0,6,"[""tomato.png""]","[""tomato.png""]","[""tomato.png""]","[""tomato.png""]","[""tomato.png""]","[""tomato.png""]",blank.png,PB18.png,PB17.png,"[""tomato.png""]","[""tomato.png""]","[""tomato.png""]","[""tomato.png""]","[""tomato.png""]","[""tomato.png""]","[""tomato.png""]","[""tomato.png""]","[""tomato.png""]","[""tomato.png""]","[""tomato.png""]","[""tomato.png""]",1,"[""sausage.png""]",blank.png,blank.png,blank.png,6,"[""tomato.png""]","[""tomato.png""]","[""tomato.png""]","[""tomato.png""]","[""tomato.png""]","[""tomato.png""]",PB17.png,,,,,,,,,,,1,,,,,,,,,,,,,251.81500000006054,,timeout,,,,,,,,,,,,white,4,,,,,,,,,,,,,,,,,,,,,,,,,,,,,,,,,,,,,,,,,,,,,,,,,,,,,,,,,"[""tomato.png""]","[""sausage.png""]",,,,2,,,false,,1,,,,,,,639999.5099999942,639999.07,639747.213,639748.5450000095,639753.732,640005.547,,,,
choice_sequence,flow.Sequence,2_4_3_6_1_0_0_0_0_0,2021-05-24T16:12:56.971Z,,,blank.png,blank.png,blank.png,blank.png,blank.png,blank.png,blank.png,"[""sausage.png""]",blank.png,blank.png,blank.png,blank.png,blank.png,,,,,,,,,,,,,,,,,,,,,,,,,,,,,"[""sausage.png""]","[""tomato.png""]",PB18.png,,,,,,,,,,,0,6,"[""tomato.png""]","[""tomato.png""]","[""tomato.png""]","[""tomato.png""]","[""tomato.png""]","[""tomato.png""]",blank.png,PB18.png,PB17.png,"[""tomato.png""]","[""tomato.png""]","[""tomato.png""]","[""tomato.png""]","[""tomato.png""]","[""tomato.png""]","[""tomato.png""]","[""tomato.png""]","[""tomato.png""]","[""tomato.png""]","[""tomato.png""]","[""tomato.png""]",1,"[""sausage.png""]",blank.png,blank.png,blank.png,6,"[""tomato.png""]","[""tomato.png""]","[""tomato.png""]","[""tomato.png""]","[""tomato.png""]","[""tomato.png""]",PB17.png,,,,,,,,,,,1,,,,,,,,,,,,,6186.750999999931,,completion,,,,,,,,,,,,,4,,,,,,,,,,,,,,,,,,,,,,,,,,,,,,,,,,,,,,,,,,,,,,,,,,,,,,,,,"[""tomato.png""]","[""sausage.png""]",,,,2,,,false,,1,,,,,,,639999.8149999883,639999.07,633786.472,633811.0499999893,633812.319,640005.547,,,,
fixCross,canvas.Screen,2_4_3_6_1_0_0_0_0_1_0,2021-05-24T16:12:57.668Z,,,blank.png,blank.png,blank.png,blank.png,blank.png,blank.png,blank.png,"[""sausage.png""]",blank.png,blank.png,blank.png,blank.png,blank.png,,,,,,,,,,,,,,,,,,,,,,,,,,,,,"[""sausage.png""]","[""tomato.png""]",PB18.png,,,,,,,,,,,0,6,"[""tomato.png""]","[""tomato.png""]","[""tomato.png""]","[""tomato.png""]","[""tomato.png""]","[""tomato.png""]",blank.png,PB18.png,PB01.png,"[""tomato.png""]","[""tomato.png""]","[""tomato.png""]","[""tomato.png""]","[""tomato.png""]","[""tomato.png""]",blank.png,blank.png,blank.png,blank.png,blank.png,blank.png,1,"[""sausage.png""]",blank.png,blank.png,blank.png,0,blank.png,blank.png,blank.png,blank.png,blank.png,blank.png,PB01.png,,,,,,,,,,,1,,,,,,,,,,,,,975.1479999999283,,timeout,,,,,,,,,,,,,4,,,,,,,,,,,,,,,,,,,,,,,,,,,,,,,,,,,,,,,,,,,,,,,,,,,,,,,,,"[""tomato.png""]","[""sausage.png""]",,,,2,,,false,,1,,,,,,,640696.8300000008,640696.537,639999.07,640002.2400000016,640005.547,640980.695,2,,,
timeout,canvas.Screen,2_4_3_6_1_0_0_0_0_1_1,2021-05-24T16:12:58.443Z,,,blank.png,blank.png,blank.png,blank.png,blank.png,blank.png,blank.png,"[""sausage.png""]",blank.png,blank.png,blank.png,blank.png,blank.png,,,,,,,,,,,,,,,,,,,,,,,,,,,,,"[""sausage.png""]","[""tomato.png""]",PB18.png,,,,,,,,,,,0,6,"[""tomato.png""]","[""tomato.png""]","[""tomato.png""]","[""tomato.png""]","[""tomato.png""]","[""tomato.png""]",blank.png,PB18.png,PB01.png,"[""tomato.png""]","[""tomato.png""]","[""tomato.png""]","[""tomato.png""]","[""tomato.png""]","[""tomato.png""]",blank.png,blank.png,blank.png,blank.png,blank.png,blank.png,1,"[""sausage.png""]",blank.png,blank.png,blank.png,0,blank.png,blank.png,blank.png,blank.png,blank.png,blank.png,PB01.png,,,,,,,,,,,1,,,,,,,,,,,,,716.8680000000168,,timeout,,,,,,,,,,,,,4,,,,,,,,,,,,,,,,,,,,,,,,,,,,,,,,,,,,,,,,,,,,,,,,,,,,,,,,,"[""tomato.png""]","[""sausage.png""]",,,,2,,,false,,1,,,,,,,641471.7700000037,641471.493,640696.537,640982.5699999928,640980.695,641697.563,,,,
choice,canvas.Screen,2_4_3_6_1_0_0_0_0_1_2,2021-05-24T16:13:00.202Z,,,blank.png,blank.png,blank.png,blank.png,blank.png,blank.png,blank.png,"[""sausage.png""]",blank.png,blank.png,blank.png,blank.png,blank.png,,,,,,,,,,,,,,,,,,,,,,,,,,,,,"[""sausage.png""]","[""tomato.png""]",PB18.png,,,,,,,,,,,0,6,"[""tomato.png""]","[""tomato.png""]","[""tomato.png""]","[""tomato.png""]","[""tomato.png""]","[""tomato.png""]",blank.png,PB18.png,PB01.png,"[""tomato.png""]","[""tomato.png""]","[""tomato.png""]","[""tomato.png""]","[""tomato.png""]","[""tomato.png""]",blank.png,blank.png,blank.png,blank.png,blank.png,blank.png,1,"[""sausage.png""]",blank.png,blank.png,blank.png,0,blank.png,blank.png,blank.png,blank.png,blank.png,blank.png,PB01.png,,,,,,,,,,,1,,,,,,,,,,,,,1532.822000002605,,response,,,,,,,,,,,,,4,,,,,,,,,,,,,,,,,,,,,,,,,,,,,,,,,,,,,,,,,,,,,,,,,,,,,,,,,"[""tomato.png""]","[""sausage.png""]",,,,2,left,keydown(ArrowLeft),false,,1,,,,,,,643231.2500000116,643230.3850000026,641471.493,641693.9499999862,641697.563,643447.689,,2,,
square,canvas.Screen,2_4_3_6_1_0_0_0_0_1_3,2021-05-24T16:13:01.414Z,,,blank.png,blank.png,blank.png,blank.png,blank.png,blank.png,blank.png,"[""sausage.png""]",blank.png,blank.png,blank.png,blank.png,blank.png,,,,,,,,,,,,,,,,,,,,,,,,,,,,,"[""sausage.png""]","[""tomato.png""]",PB18.png,,,,,,,,,,,0,6,"[""tomato.png""]","[""tomato.png""]","[""tomato.png""]","[""tomato.png""]","[""tomato.png""]","[""tomato.png""]",blank.png,PB18.png,PB01.png,"[""tomato.png""]","[""tomato.png""]","[""tomato.png""]","[""tomato.png""]","[""tomato.png""]","[""tomato.png""]",blank.png,blank.png,blank.png,blank.png,blank.png,blank.png,1,"[""sausage.png""]",blank.png,blank.png,blank.png,0,blank.png,blank.png,blank.png,blank.png,blank.png,blank.png,PB01.png,,,,,,,,,,,1,,,#33ff3f,#808080,,,,,,,,,1000.9429999999702,,timeout,,,,,,,,,,,,,4,,,,,,,,,,,,,,,,,,,,,,,,,,,,,,,,,,,,,,,,,,,,,,,,,,,,,,,,,"[""tomato.png""]","[""sausage.png""]",,,,2,,,false,,1,,,,,black,white,644442.7600000054,644442.178,643434.728,643438.3899999957,643447.689,644448.632,,,,
ITI_late,canvas.Screen,2_4_3_6_1_0_0_0_0_1_4,2021-05-24T16:13:02.666Z,,,blank.png,blank.png,blank.png,blank.png,blank.png,blank.png,blank.png,"[""sausage.png""]",blank.png,blank.png,blank.png,blank.png,blank.png,,,,,,,,,,,,,,,,,,,,,,,,,,,,,"[""sausage.png""]","[""tomato.png""]",PB18.png,,,,,,,,,,,0,6,"[""tomato.png""]","[""tomato.png""]","[""tomato.png""]","[""tomato.png""]","[""tomato.png""]","[""tomato.png""]",blank.png,PB18.png,PB01.png,"[""tomato.png""]","[""tomato.png""]","[""tomato.png""]","[""tomato.png""]","[""tomato.png""]","[""tomato.png""]",blank.png,blank.png,blank.png,blank.png,blank.png,blank.png,1,"[""sausage.png""]",blank.png,blank.png,blank.png,0,blank.png,blank.png,blank.png,blank.png,blank.png,blank.png,PB01.png,,,,,,,,,,,1,,,,,,,,,,,,,1252.9000000000233,,timeout,,,,,,,,,,,,white,4,,,,,,,,,,,,,,,,,,,,,,,,,,,,,,,,,,,,,,,,,,,,,,,,,,,,,,,,,"[""tomato.png""]","[""sausage.png""]",,,,2,,,false,,1,,,,,,,645695.4799999949,645695.036,644442.178,644444.0299999842,644448.632,645701.532,,,,
choice_sequence,flow.Sequence,2_4_3_6_1_0_0_0_0_1,2021-05-24T16:13:02.667Z,,,blank.png,blank.png,blank.png,blank.png,blank.png,blank.png,blank.png,"[""sausage.png""]",blank.png,blank.png,blank.png,blank.png,blank.png,,,,,,,,,,,,,,,,,,,,,,,,,,,,,"[""sausage.png""]","[""tomato.png""]",PB18.png,,,,,,,,,,,0,6,"[""tomato.png""]","[""tomato.png""]","[""tomato.png""]","[""tomato.png""]","[""tomato.png""]","[""tomato.png""]",blank.png,PB18.png,PB01.png,"[""tomato.png""]","[""tomato.png""]","[""tomato.png""]","[""tomato.png""]","[""tomato.png""]","[""tomato.png""]",blank.png,blank.png,blank.png,blank.png,blank.png,blank.png,1,"[""sausage.png""]",blank.png,blank.png,blank.png,0,blank.png,blank.png,blank.png,blank.png,blank.png,blank.png,PB01.png,,,,,,,,,,,1,,,,,,,,,,,,,5689.488999999943,,completion,,,,,,,,,,,,,4,,,,,,,,,,,,,,,,,,,,,,,,,,,,,,,,,,,,,,,,,,,,,,,,,,,,,,,,,"[""tomato.png""]","[""sausage.png""]",,,,2,,,false,,1,,,,,,,645695.7600000023,645695.036,639999.07,640001.7949999892,640005.547,645701.532,,,,
fixCross,canvas.Screen,2_4_3_6_1_0_0_0_0_2_0,2021-05-24T16:13:03.163Z,,,blank.png,"[""sausage.png""]",blank.png,blank.png,blank.png,blank.png,blank.png,blank.png,blank.png,blank.png,blank.png,blank.png,blank.png,,,,,,,,,,,,,,,,,,,,,,,,,,,,,"[""sausage.png""]","[""tomato.png""]",PB15.png,,,,,,,,,,,0,6,"[""tomato.png""]","[""tomato.png""]","[""tomato.png""]","[""tomato.png""]","[""tomato.png""]","[""tomato.png""]",blank.png,PB18.png,PB18.png,"[""tomato.png""]","[""tomato.png""]","[""tomato.png""]","[""tomato.png""]",blank.png,blank.png,"[""tomato.png""]","[""tomato.png""]","[""tomato.png""]","[""tomato.png""]","[""tomato.png""]","[""tomato.png""]",1,"[""sausage.png""]",blank.png,blank.png,blank.png,4,"[""tomato.png""]","[""tomato.png""]","[""tomato.png""]","[""tomato.png""]",blank.png,blank.png,PB15.png,,,,,,,,,,,1,,,,,,,,,,,,,762.0379999999423,,timeout,,,,,,,,,,,,,3,,,,,,,,,,,,,,,,,,,,,,,,,,,,,,,,,,,,,,,,,,,,,,,,,,,,,,,,,"[""tomato.png""]","[""sausage.png""]",,,,2,,,false,,1,,,,,,,646192.6150000072,646192.295,645695.036,645702.2350000043,645701.532,646463.57,3,,,
timeout,canvas.Screen,2_4_3_6_1_0_0_0_0_2_1,2021-05-24T16:13:03.925Z,,,blank.png,"[""sausage.png""]",blank.png,blank.png,blank.png,blank.png,blank.png,blank.png,blank.png,blank.png,blank.png,blank.png,blank.png,,,,,,,,,,,,,,,,,,,,,,,,,,,,,"[""sausage.png""]","[""tomato.png""]",PB15.png,,,,,,,,,,,0,6,"[""tomato.png""]","[""tomato.png""]","[""tomato.png""]","[""tomato.png""]","[""tomato.png""]","[""tomato.png""]",blank.png,PB18.png,PB18.png,"[""tomato.png""]","[""tomato.png""]","[""tomato.png""]","[""tomato.png""]",blank.png,blank.png,"[""tomato.png""]","[""tomato.png""]","[""tomato.png""]","[""tomato.png""]","[""tomato.png""]","[""tomato.png""]",1,"[""sausage.png""]",blank.png,blank.png,blank.png,4,"[""tomato.png""]","[""tomato.png""]","[""tomato.png""]","[""tomato.png""]",blank.png,blank.png,PB15.png,,,,,,,,,,,1,,,,,,,,,,,,,768.5060000000522,,timeout,,,,,,,,,,,,,3,,,,,,,,,,,,,,,,,,,,,,,,,,,,,,,,,,,,,,,,,,,,,,,,,,,,,,,,,"[""tomato.png""]","[""sausage.png""]",,,,2,,,false,,1,,,,,,,646954.6499999997,646954.339,646192.295,646473.0200000049,646463.57,647232.076,,,,
choice,canvas.Screen,2_4_3_6_1_0_0_0_0_2_2,2021-05-24T16:13:06.193Z,,,blank.png,"[""sausage.png""]",blank.png,blank.png,blank.png,blank.png,blank.png,blank.png,blank.png,blank.png,blank.png,blank.png,blank.png,,,,,,,,,,,,,,,,,,,,,,,,,,,,,"[""sausage.png""]","[""tomato.png""]",PB15.png,,,,,,,,,,,0,6,"[""tomato.png""]","[""tomato.png""]","[""tomato.png""]","[""tomato.png""]","[""tomato.png""]","[""tomato.png""]",blank.png,PB18.png,PB18.png,"[""tomato.png""]","[""tomato.png""]","[""tomato.png""]","[""tomato.png""]",blank.png,blank.png,"[""tomato.png""]","[""tomato.png""]","[""tomato.png""]","[""tomato.png""]","[""tomato.png""]","[""tomato.png""]",1,"[""sausage.png""]",blank.png,blank.png,blank.png,4,"[""tomato.png""]","[""tomato.png""]","[""tomato.png""]","[""tomato.png""]",blank.png,blank.png,PB15.png,,,,,,,,,,,1,,,,,,,,,,,,,1989.3789999916917,,response,,,,,,,,,,,,,3,,,,,,,,,,,,,,,,,,,,,,,,,,,,,,,,,,,,,,,,,,,,,,,,,,,,,,,,,"[""tomato.png""]","[""sausage.png""]",,,,2,left,keydown(ArrowLeft),false,,1,,,,,,,649222.2849999962,649221.4549999917,646954.339,647225.3250000067,647232.076,649501.583,,3,,
square,canvas.Screen,2_4_3_6_1_0_0_0_0_2_3,2021-05-24T16:13:07.465Z,,,blank.png,"[""sausage.png""]",blank.png,blank.png,blank.png,blank.png,blank.png,blank.png,blank.png,blank.png,blank.png,blank.png,blank.png,,,,,,,,,,,,,,,,,,,,,,,,,,,,,"[""sausage.png""]","[""tomato.png""]",PB15.png,,,,,,,,,,,0,6,"[""tomato.png""]","[""tomato.png""]","[""tomato.png""]","[""tomato.png""]","[""tomato.png""]","[""tomato.png""]",blank.png,PB18.png,PB18.png,"[""tomato.png""]","[""tomato.png""]","[""tomato.png""]","[""tomato.png""]",blank.png,blank.png,"[""tomato.png""]","[""tomato.png""]","[""tomato.png""]","[""tomato.png""]","[""tomato.png""]","[""tomato.png""]",1,"[""sausage.png""]",blank.png,blank.png,blank.png,4,"[""tomato.png""]","[""tomato.png""]","[""tomato.png""]","[""tomato.png""]",blank.png,blank.png,PB15.png,,,,,,,,,,,1,,,#33ff3f,#808080,,,,,,,,,998.1979999999749,,timeout,,,,,,,,,,,,,3,,,,,,,,,,,,,,,,,,,,,,,,,,,,,,,,,,,,,,,,,,,,,,,,,,,,,,,,,"[""tomato.png""]","[""sausage.png""]",,,,2,,,false,,1,,,,,black,white,650493.9549999835,650493.324,649479.418,649484.7099999897,649501.583,650499.781,,,,
ITI_late,canvas.Screen,2_4_3_6_1_0_0_0_0_2_4,2021-05-24T16:13:08.466Z,,,blank.png,"[""sausage.png""]",blank.png,blank.png,blank.png,blank.png,blank.png,blank.png,blank.png,blank.png,blank.png,blank.png,blank.png,,,,,,,,,,,,,,,,,,,,,,,,,,,,,"[""sausage.png""]","[""tomato.png""]",PB15.png,,,,,,,,,,,0,6,"[""tomato.png""]","[""tomato.png""]","[""tomato.png""]","[""tomato.png""]","[""tomato.png""]","[""tomato.png""]",blank.png,PB18.png,PB18.png,"[""tomato.png""]","[""tomato.png""]","[""tomato.png""]","[""tomato.png""]",blank.png,blank.png,"[""tomato.png""]","[""tomato.png""]","[""tomato.png""]","[""tomato.png""]","[""tomato.png""]","[""tomato.png""]",1,"[""sausage.png""]",blank.png,blank.png,blank.png,4,"[""tomato.png""]","[""tomato.png""]","[""tomato.png""]","[""tomato.png""]",blank.png,blank.png,PB15.png,,,,,,,,,,,1,,,,,,,,,,,,,1001.0350000000326,,timeout,,,,,,,,,,,,white,3,,,,,,,,,,,,,,,,,,,,,,,,,,,,,,,,,,,,,,,,,,,,,,,,,,,,,,,,,"[""tomato.png""]","[""sausage.png""]",,,,2,,,false,,1,,,,,,,651494.7549999924,651494.315,650493.324,650494.9750000087,650499.781,651500.816,,,,
choice_sequence,flow.Sequence,2_4_3_6_1_0_0_0_0_2,2021-05-24T16:13:08.466Z,,,blank.png,"[""sausage.png""]",blank.png,blank.png,blank.png,blank.png,blank.png,blank.png,blank.png,blank.png,blank.png,blank.png,blank.png,,,,,,,,,,,,,,,,,,,,,,,,,,,,,"[""sausage.png""]","[""tomato.png""]",PB15.png,,,,,,,,,,,0,6,"[""tomato.png""]","[""tomato.png""]","[""tomato.png""]","[""tomato.png""]","[""tomato.png""]","[""tomato.png""]",blank.png,PB18.png,PB18.png,"[""tomato.png""]","[""tomato.png""]","[""tomato.png""]","[""tomato.png""]",blank.png,blank.png,"[""tomato.png""]","[""tomato.png""]","[""tomato.png""]","[""tomato.png""]","[""tomato.png""]","[""tomato.png""]",1,"[""sausage.png""]",blank.png,blank.png,blank.png,4,"[""tomato.png""]","[""tomato.png""]","[""tomato.png""]","[""tomato.png""]",blank.png,blank.png,PB15.png,,,,,,,,,,,1,,,,,,,,,,,,,5792.782999999938,,completion,,,,,,,,,,,,,3,,,,,,,,,,,,,,,,,,,,,,,,,,,,,,,,,,,,,,,,,,,,,,,,,,,,,,,,,"[""tomato.png""]","[""sausage.png""]",,,,2,,,false,,1,,,,,,,651495.0449999887,651494.315,645695.036,645701.3149999839,645701.532,651500.816,,,,
fixCross,canvas.Screen,2_4_3_6_1_0_0_0_0_3_0,2021-05-24T16:13:08.866Z,,,blank.png,"[""sausage.png""]",blank.png,blank.png,blank.png,blank.png,blank.png,blank.png,blank.png,blank.png,blank.png,blank.png,blank.png,,,,,,,,,,,,,,,,,,,,,,,,,,,,,"[""sausage.png""]","[""tomato.png""]",PB14.png,,,,,,,,,,,0,6,"[""tomato.png""]","[""tomato.png""]","[""tomato.png""]","[""tomato.png""]","[""tomato.png""]","[""tomato.png""]",blank.png,PB18.png,PB18.png,"[""tomato.png""]","[""tomato.png""]","[""tomato.png""]",blank.png,blank.png,blank.png,"[""tomato.png""]","[""tomato.png""]","[""tomato.png""]","[""tomato.png""]","[""tomato.png""]","[""tomato.png""]",1,"[""sausage.png""]",blank.png,blank.png,blank.png,3,"[""tomato.png""]","[""tomato.png""]","[""tomato.png""]",blank.png,blank.png,blank.png,PB14.png,,,,,,,,,,,1,,,,,,,,,,,,,645.814000000013,,timeout,,,,,,,,,,,,,3,,,,,,,,,,,,,,,,,,,,,,,,,,,,,,,,,,,,,,,,,,,,,,,,,,,,,,,,,"[""tomato.png""]","[""sausage.png""]",,,,2,,,false,,1,,,,,,,651894.9950000097,651894.714,651494.315,651497.5050000066,651500.816,652146.63,4,,,
timeout,canvas.Screen,2_4_3_6_1_0_0_0_0_3_1,2021-05-24T16:13:09.608Z,,,blank.png,"[""sausage.png""]",blank.png,blank.png,blank.png,blank.png,blank.png,blank.png,blank.png,blank.png,blank.png,blank.png,blank.png,,,,,,,,,,,,,,,,,,,,,,,,,,,,,"[""sausage.png""]","[""tomato.png""]",PB14.png,,,,,,,,,,,0,6,"[""tomato.png""]","[""tomato.png""]","[""tomato.png""]","[""tomato.png""]","[""tomato.png""]","[""tomato.png""]",blank.png,PB18.png,PB18.png,"[""tomato.png""]","[""tomato.png""]","[""tomato.png""]",blank.png,blank.png,blank.png,"[""tomato.png""]","[""tomato.png""]","[""tomato.png""]","[""tomato.png""]","[""tomato.png""]","[""tomato.png""]",1,"[""sausage.png""]",blank.png,blank.png,blank.png,3,"[""tomato.png""]","[""tomato.png""]","[""tomato.png""]",blank.png,blank.png,blank.png,PB14.png,,,,,,,,,,,1,,,,,,,,,,,,,755.5799999999581,,timeout,,,,,,,,,,,,,3,,,,,,,,,,,,,,,,,,,,,,,,,,,,,,,,,,,,,,,,,,,,,,,,,,,,,,,,,"[""tomato.png""]","[""sausage.png""]",,,,2,,,false,,1,,,,,,,652637.6849999942,652637.388,651894.714,652148.835,652146.63,652902.21,,,,
choice,canvas.Screen,2_4_3_6_1_0_0_0_0_3_2,2021-05-24T16:13:12.231Z,,,blank.png,"[""sausage.png""]",blank.png,blank.png,blank.png,blank.png,blank.png,blank.png,blank.png,blank.png,blank.png,blank.png,blank.png,,,,,,,,,,,,,,,,,,,,,,,,,,,,,"[""sausage.png""]","[""tomato.png""]",PB14.png,,,,,,,,,,,0,6,"[""tomato.png""]","[""tomato.png""]","[""tomato.png""]","[""tomato.png""]","[""tomato.png""]","[""tomato.png""]",blank.png,PB18.png,PB18.png,"[""tomato.png""]","[""tomato.png""]","[""tomato.png""]",blank.png,blank.png,blank.png,"[""tomato.png""]","[""tomato.png""]","[""tomato.png""]","[""tomato.png""]","[""tomato.png""]","[""tomato.png""]",1,"[""sausage.png""]",blank.png,blank.png,blank.png,3,"[""tomato.png""]","[""tomato.png""]","[""tomato.png""]",blank.png,blank.png,blank.png,PB14.png,,,,,,,,,,,1,,,,,,,,,,,,,2357.285000005737,,response,,,,,,,,,,,,,3,,,,,,,,,,,,,,,,,,,,,,,,,,,,,,,,,,,,,,,,,,,,,,,,,,,,,,,,,"[""tomato.png""]","[""sausage.png""]",,,,2,left,keydown(ArrowLeft),false,,1,,,,,,,655260.409999988,655259.4950000057,652637.388,652894.9600000051,652902.21,655524.654,,4,,
square,canvas.Screen,2_4_3_6_1_0_0_0_0_3_3,2021-05-24T16:13:13.490Z,,,blank.png,"[""sausage.png""]",blank.png,blank.png,blank.png,blank.png,blank.png,blank.png,blank.png,blank.png,blank.png,blank.png,blank.png,,,,,,,,,,,,,,,,,,,,,,,,,,,,,"[""sausage.png""]","[""tomato.png""]",PB14.png,,,,,,,,,,,0,6,"[""tomato.png""]","[""tomato.png""]","[""tomato.png""]","[""tomato.png""]","[""tomato.png""]","[""tomato.png""]",blank.png,PB18.png,PB18.png,"[""tomato.png""]","[""tomato.png""]","[""tomato.png""]",blank.png,blank.png,blank.png,"[""tomato.png""]","[""tomato.png""]","[""tomato.png""]","[""tomato.png""]","[""tomato.png""]","[""tomato.png""]",1,"[""sausage.png""]",blank.png,blank.png,blank.png,3,"[""tomato.png""]","[""tomato.png""]","[""tomato.png""]",blank.png,blank.png,blank.png,PB14.png,,,,,,,,,,,1,,,#33ff3f,#808080,,,,,,,,,1000.4440000000177,,timeout,,,,,,,,,,,,,3,,,,,,,,,,,,,,,,,,,,,,,,,,,,,,,,,,,,,,,,,,,,,,,,,,,,,,,,,"[""tomato.png""]","[""sausage.png""]",,,,2,,,false,,1,,,,,black,white,656519.0350000048,656518.644,655504.739,655510.2949999855,655524.654,656525.098,,,,
ITI_late,canvas.Screen,2_4_3_6_1_0_0_0_0_3_4,2021-05-24T16:13:13.742Z,,,blank.png,"[""sausage.png""]",blank.png,blank.png,blank.png,blank.png,blank.png,blank.png,blank.png,blank.png,blank.png,blank.png,blank.png,,,,,,,,,,,,,,,,,,,,,,,,,,,,,"[""sausage.png""]","[""tomato.png""]",PB14.png,,,,,,,,,,,0,6,"[""tomato.png""]","[""tomato.png""]","[""tomato.png""]","[""tomato.png""]","[""tomato.png""]","[""tomato.png""]",blank.png,PB18.png,PB18.png,"[""tomato.png""]","[""tomato.png""]","[""tomato.png""]",blank.png,blank.png,blank.png,"[""tomato.png""]","[""tomato.png""]","[""tomato.png""]","[""tomato.png""]","[""tomato.png""]","[""tomato.png""]",1,"[""sausage.png""]",blank.png,blank.png,blank.png,3,"[""tomato.png""]","[""tomato.png""]","[""tomato.png""]",blank.png,blank.png,blank.png,PB14.png,,,,,,,,,,,1,,,,,,,,,,,,,251.89199999999255,,timeout,,,,,,,,,,,,white,3,,,,,,,,,,,,,,,,,,,,,,,,,,,,,,,,,,,,,,,,,,,,,,,,,,,,,,,,,"[""tomato.png""]","[""sausage.png""]",,,,2,,,false,,1,,,,,,,656770.829999994,656770.505,656518.644,656520.0400000031,656525.098,656776.99,,,,
choice_sequence,flow.Sequence,2_4_3_6_1_0_0_0_0_3,2021-05-24T16:13:13.742Z,,,blank.png,"[""sausage.png""]",blank.png,blank.png,blank.png,blank.png,blank.png,blank.png,blank.png,blank.png,blank.png,blank.png,blank.png,,,,,,,,,,,,,,,,,,,,,,,,,,,,,"[""sausage.png""]","[""tomato.png""]",PB14.png,,,,,,,,,,,0,6,"[""tomato.png""]","[""tomato.png""]","[""tomato.png""]","[""tomato.png""]","[""tomato.png""]","[""tomato.png""]",blank.png,PB18.png,PB18.png,"[""tomato.png""]","[""tomato.png""]","[""tomato.png""]",blank.png,blank.png,blank.png,"[""tomato.png""]","[""tomato.png""]","[""tomato.png""]","[""tomato.png""]","[""tomato.png""]","[""tomato.png""]",1,"[""sausage.png""]",blank.png,blank.png,blank.png,3,"[""tomato.png""]","[""tomato.png""]","[""tomato.png""]",blank.png,blank.png,blank.png,PB14.png,,,,,,,,,,,1,,,,,,,,,,,,,5269.689000000013,,completion,,,,,,,,,,,,,3,,,,,,,,,,,,,,,,,,,,,,,,,,,,,,,,,,,,,,,,,,,,,,,,,,,,,,,,,"[""tomato.png""]","[""sausage.png""]",,,,2,,,false,,1,,,,,,,656771.1199999903,656770.505,651494.315,651497.0700000122,651500.816,656776.99,,,,
fixCross,canvas.Screen,2_4_3_6_1_0_0_0_0_4_0,2021-05-24T16:13:13.993Z,,,blank.png,"[""sausage.png""]",blank.png,blank.png,blank.png,blank.png,blank.png,blank.png,blank.png,blank.png,blank.png,blank.png,blank.png,,,,,,,,,,,,,,,,,,,,,,,,,,,,,"[""sausage.png""]","[""tomato.png""]",PB07.png,,,,,,,,,,,0,6,"[""tomato.png""]","[""tomato.png""]","[""tomato.png""]","[""tomato.png""]","[""tomato.png""]","[""tomato.png""]",blank.png,PB18.png,PB18.png,"[""tomato.png""]",blank.png,blank.png,blank.png,blank.png,blank.png,"[""tomato.png""]","[""tomato.png""]","[""tomato.png""]","[""tomato.png""]","[""tomato.png""]","[""tomato.png""]",1,"[""sausage.png""]",blank.png,blank.png,blank.png,1,"[""tomato.png""]",blank.png,blank.png,blank.png,blank.png,blank.png,PB07.png,,,,,,,,,,,1,,,,,,,,,,,,,471.5540000000037,,timeout,,,,,,,,,,,,,3,,,,,,,,,,,,,,,,,,,,,,,,,,,,,,,,,,,,,,,,,,,,,,,,,,,,,,,,,"[""tomato.png""]","[""sausage.png""]",,,,2,,,false,,1,,,,,,,657022.655000008,657022.374,656770.505,656773.5499999835,656776.99,657248.544,5,,,
timeout,canvas.Screen,2_4_3_6_1_0_0_0_0_4_1,2021-05-24T16:13:14.710Z,,,blank.png,"[""sausage.png""]",blank.png,blank.png,blank.png,blank.png,blank.png,blank.png,blank.png,blank.png,blank.png,blank.png,blank.png,,,,,,,,,,,,,,,,,,,,,,,,,,,,,"[""sausage.png""]","[""tomato.png""]",PB07.png,,,,,,,,,,,0,6,"[""tomato.png""]","[""tomato.png""]","[""tomato.png""]","[""tomato.png""]","[""tomato.png""]","[""tomato.png""]",blank.png,PB18.png,PB18.png,"[""tomato.png""]",blank.png,blank.png,blank.png,blank.png,blank.png,"[""tomato.png""]","[""tomato.png""]","[""tomato.png""]","[""tomato.png""]","[""tomato.png""]","[""tomato.png""]",1,"[""sausage.png""]",blank.png,blank.png,blank.png,1,"[""tomato.png""]",blank.png,blank.png,blank.png,blank.png,blank.png,PB07.png,,,,,,,,,,,1,,,,,,,,,,,,,723.2199999999721,,timeout,,,,,,,,,,,,,3,,,,,,,,,,,,,,,,,,,,,,,,,,,,,,,,,,,,,,,,,,,,,,,,,,,,,,,,,"[""tomato.png""]","[""sausage.png""]",,,,2,,,false,,1,,,,,,,657739.6700000099,657739.21,657022.374,657250.9699999937,657248.544,657971.764,,,,
choice,canvas.Screen,2_4_3_6_1_0_0_0_0_4_2,2021-05-24T16:13:17.493Z,,,blank.png,"[""sausage.png""]",blank.png,blank.png,blank.png,blank.png,blank.png,blank.png,blank.png,blank.png,blank.png,blank.png,blank.png,,,,,,,,,,,,,,,,,,,,,,,,,,,,,"[""sausage.png""]","[""tomato.png""]",PB07.png,,,,,,,,,,,0,6,"[""tomato.png""]","[""tomato.png""]","[""tomato.png""]","[""tomato.png""]","[""tomato.png""]","[""tomato.png""]",blank.png,PB18.png,PB18.png,"[""tomato.png""]",blank.png,blank.png,blank.png,blank.png,blank.png,"[""tomato.png""]","[""tomato.png""]","[""tomato.png""]","[""tomato.png""]","[""tomato.png""]","[""tomato.png""]",1,"[""sausage.png""]",blank.png,blank.png,blank.png,1,"[""tomato.png""]",blank.png,blank.png,blank.png,blank.png,blank.png,PB07.png,,,,,,,,,,,1,,,,,,,,,,,,,2548.6660000041593,,response,,,,,,,,,,,,,3,,,,,,,,,,,,,,,,,,,,,,,,,,,,,,,,,,,,,,,,,,,,,,,,,,,,,,,,,"[""tomato.png""]","[""sausage.png""]",,,,2,left,keydown(ArrowLeft),false,,1,,,,,,,660521.7750000011,660520.4300000041,657739.21,657968.8399999868,657971.764,660770.135,,5,,
square,canvas.Screen,2_4_3_6_1_0_0_0_0_4_3,2021-05-24T16:13:18.734Z,,,blank.png,"[""sausage.png""]",blank.png,blank.png,blank.png,blank.png,blank.png,blank.png,blank.png,blank.png,blank.png,blank.png,blank.png,,,,,,,,,,,,,,,,,,,,,,,,,,,,,"[""sausage.png""]","[""tomato.png""]",PB07.png,,,,,,,,,,,0,6,"[""tomato.png""]","[""tomato.png""]","[""tomato.png""]","[""tomato.png""]","[""tomato.png""]","[""tomato.png""]",blank.png,PB18.png,PB18.png,"[""tomato.png""]",blank.png,blank.png,blank.png,blank.png,blank.png,"[""tomato.png""]","[""tomato.png""]","[""tomato.png""]","[""tomato.png""]","[""tomato.png""]","[""tomato.png""]",1,"[""sausage.png""]",blank.png,blank.png,blank.png,1,"[""tomato.png""]",blank.png,blank.png,blank.png,blank.png,blank.png,PB07.png,,,,,,,,,,,1,,,#33ff3f,#808080,,,,,,,,,998.8610000000335,,timeout,,,,,,,,,,,,,3,,,,,,,,,,,,,,,,,,,,,,,,,,,,,,,,,,,,,,,,,,,,,,,,,,,,,,,,,"[""tomato.png""]","[""sausage.png""]",,,,2,,,false,,1,,,,,black,white,661762.9749999905,661762.546,660742.173,660747.7800000052,660770.135,661768.996,,,,
ITI_late,canvas.Screen,2_4_3_6_1_0_0_0_0_4_4,2021-05-24T16:13:18.985Z,,,blank.png,"[""sausage.png""]",blank.png,blank.png,blank.png,blank.png,blank.png,blank.png,blank.png,blank.png,blank.png,blank.png,blank.png,,,,,,,,,,,,,,,,,,,,,,,,,,,,,"[""sausage.png""]","[""tomato.png""]",PB07.png,,,,,,,,,,,0,6,"[""tomato.png""]","[""tomato.png""]","[""tomato.png""]","[""tomato.png""]","[""tomato.png""]","[""tomato.png""]",blank.png,PB18.png,PB18.png,"[""tomato.png""]",blank.png,blank.png,blank.png,blank.png,blank.png,"[""tomato.png""]","[""tomato.png""]","[""tomato.png""]","[""tomato.png""]","[""tomato.png""]","[""tomato.png""]",1,"[""sausage.png""]",blank.png,blank.png,blank.png,1,"[""tomato.png""]",blank.png,blank.png,blank.png,blank.png,blank.png,PB07.png,,,,,,,,,,,1,,,,,,,,,,,,,251.89199999999255,,timeout,,,,,,,,,,,,white,3,,,,,,,,,,,,,,,,,,,,,,,,,,,,,,,,,,,,,,,,,,,,,,,,,,,,,,,,,"[""tomato.png""]","[""sausage.png""]",,,,2,,,false,,1,,,,,,,662014.6700000041,662014.406,661762.546,661764.0649999958,661768.996,662020.888,,,,
choice_sequence,flow.Sequence,2_4_3_6_1_0_0_0_0_4,2021-05-24T16:13:18.986Z,,,blank.png,"[""sausage.png""]",blank.png,blank.png,blank.png,blank.png,blank.png,blank.png,blank.png,blank.png,blank.png,blank.png,blank.png,,,,,,,,,,,,,,,,,,,,,,,,,,,,,"[""sausage.png""]","[""tomato.png""]",PB07.png,,,,,,,,,,,0,6,"[""tomato.png""]","[""tomato.png""]","[""tomato.png""]","[""tomato.png""]","[""tomato.png""]","[""tomato.png""]",blank.png,PB18.png,PB18.png,"[""tomato.png""]",blank.png,blank.png,blank.png,blank.png,blank.png,"[""tomato.png""]","[""tomato.png""]","[""tomato.png""]","[""tomato.png""]","[""tomato.png""]","[""tomato.png""]",1,"[""sausage.png""]",blank.png,blank.png,blank.png,1,"[""tomato.png""]",blank.png,blank.png,blank.png,blank.png,blank.png,PB07.png,,,,,,,,,,,1,,,,,,,,,,,,,5237.415999999968,,completion,,,,,,,,,,,,,3,,,,,,,,,,,,,,,,,,,,,,,,,,,,,,,,,,,,,,,,,,,,,,,,,,,,,,,,,"[""tomato.png""]","[""sausage.png""]",,,,2,,,false,,1,,,,,,,662014.9450000026,662014.406,656770.505,656773.119999998,656776.99,662020.888,,,,
fixCross,canvas.Screen,2_4_3_6_1_0_0_0_0_5_0,2021-05-24T16:13:19.386Z,,,blank.png,"[""sausage.png""]",blank.png,blank.png,blank.png,blank.png,blank.png,blank.png,blank.png,blank.png,blank.png,blank.png,blank.png,,,,,,,,,,,,,,,,,,,,,,,,,,,,,"[""sausage.png""]","[""tomato.png""]",PB12.png,,,,,,,,,,,0,6,"[""tomato.png""]","[""tomato.png""]","[""tomato.png""]","[""tomato.png""]","[""tomato.png""]","[""tomato.png""]",blank.png,PB18.png,PB18.png,"[""tomato.png""]","[""tomato.png""]",blank.png,blank.png,blank.png,blank.png,"[""tomato.png""]","[""tomato.png""]","[""tomato.png""]","[""tomato.png""]","[""tomato.png""]","[""tomato.png""]",1,"[""sausage.png""]",blank.png,blank.png,blank.png,2,"[""tomato.png""]","[""tomato.png""]",blank.png,blank.png,blank.png,blank.png,PB12.png,,,,,,,,,,,1,,,,,,,,,,,,,632.9039999999804,,timeout,,,,,,,,,,,,,3,,,,,,,,,,,,,,,,,,,,,,,,,,,,,,,,,,,,,,,,,,,,,,,,,,,,,,,,,"[""tomato.png""]","[""sausage.png""]",,,,2,,,false,,1,,,,,,,662415.1100000017,662414.807,662014.406,662017.354999989,662020.888,662653.792,6,,,
timeout,canvas.Screen,2_4_3_6_1_0_0_0_0_5_1,2021-05-24T16:13:20.116Z,,,blank.png,"[""sausage.png""]",blank.png,blank.png,blank.png,blank.png,blank.png,blank.png,blank.png,blank.png,blank.png,blank.png,blank.png,,,,,,,,,,,,,,,,,,,,,,,,,,,,,"[""sausage.png""]","[""tomato.png""]",PB12.png,,,,,,,,,,,0,6,"[""tomato.png""]","[""tomato.png""]","[""tomato.png""]","[""tomato.png""]","[""tomato.png""]","[""tomato.png""]",blank.png,PB18.png,PB18.png,"[""tomato.png""]","[""tomato.png""]",blank.png,blank.png,blank.png,blank.png,"[""tomato.png""]","[""tomato.png""]","[""tomato.png""]","[""tomato.png""]","[""tomato.png""]","[""tomato.png""]",1,"[""sausage.png""]",blank.png,blank.png,blank.png,2,"[""tomato.png""]","[""tomato.png""]",blank.png,blank.png,blank.png,blank.png,PB12.png,,,,,,,,,,,1,,,,,,,,,,,,,742.655999999959,,timeout,,,,,,,,,,,,,3,,,,,,,,,,,,,,,,,,,,,,,,,,,,,,,,,,,,,,,,,,,,,,,,,,,,,,,,,"[""tomato.png""]","[""sausage.png""]",,,,2,,,false,,1,,,,,,,663144.8650000093,663144.56,662414.807,662656.3850000093,662653.792,663396.448,,,,
choice,canvas.Screen,2_4_3_6_1_0_0_0_0_5_2,2021-05-24T16:13:21.815Z,,,blank.png,"[""sausage.png""]",blank.png,blank.png,blank.png,blank.png,blank.png,blank.png,blank.png,blank.png,blank.png,blank.png,blank.png,,,,,,,,,,,,,,,,,,,,,,,,,,,,,"[""sausage.png""]","[""tomato.png""]",PB12.png,,,,,,,,,,,0,6,"[""tomato.png""]","[""tomato.png""]","[""tomato.png""]","[""tomato.png""]","[""tomato.png""]","[""tomato.png""]",blank.png,PB18.png,PB18.png,"[""tomato.png""]","[""tomato.png""]",blank.png,blank.png,blank.png,blank.png,"[""tomato.png""]","[""tomato.png""]","[""tomato.png""]","[""tomato.png""]","[""tomato.png""]","[""tomato.png""]",1,"[""sausage.png""]",blank.png,blank.png,blank.png,2,"[""tomato.png""]","[""tomato.png""]",blank.png,blank.png,blank.png,blank.png,PB12.png,,,,,,,,,,,1,,,,,,,,,,,,,1446.90200001013,,response,,,,,,,,,,,,,3,,,,,,,,,,,,,,,,,,,,,,,,,,,,,,,,,,,,,,,,,,,,,,,,,,,,,,,,,"[""tomato.png""]","[""sausage.png""]",,,,2,left,keydown(ArrowLeft),false,,1,,,,,,,664844.14500001,664843.3500000101,663144.56,663390.5599999998,663396.448,665088.424,,6,,
square,canvas.Screen,2_4_3_6_1_0_0_0_0_5_3,2021-05-24T16:13:23.054Z,,,blank.png,"[""sausage.png""]",blank.png,blank.png,blank.png,blank.png,blank.png,blank.png,blank.png,blank.png,blank.png,blank.png,blank.png,,,,,,,,,,,,,,,,,,,,,,,,,,,,,"[""sausage.png""]","[""tomato.png""]",PB12.png,,,,,,,,,,,0,6,"[""tomato.png""]","[""tomato.png""]","[""tomato.png""]","[""tomato.png""]","[""tomato.png""]","[""tomato.png""]",blank.png,PB18.png,PB18.png,"[""tomato.png""]","[""tomato.png""]",blank.png,blank.png,blank.png,blank.png,"[""tomato.png""]","[""tomato.png""]","[""tomato.png""]","[""tomato.png""]","[""tomato.png""]","[""tomato.png""]",1,"[""sausage.png""]",blank.png,blank.png,blank.png,2,"[""tomato.png""]","[""tomato.png""]",blank.png,blank.png,blank.png,blank.png,PB12.png,,,,,,,,,,,1,,,#33ff3f,#808080,,,,,,,,,1000.9780000000028,,timeout,,,,,,,,,,,,,3,,,,,,,,,,,,,,,,,,,,,,,,,,,,,,,,,,,,,,,,,,,,,,,,,,,,,,,,,"[""tomato.png""]","[""sausage.png""]",,,,2,,,false,,1,,,,,black,white,666083.3550000098,666082.943,665075.501,665079.4900000037,665088.424,666089.402,,,,
ITI_late,canvas.Screen,2_4_3_6_1_0_0_0_0_5_4,2021-05-24T16:13:24.307Z,,,blank.png,"[""sausage.png""]",blank.png,blank.png,blank.png,blank.png,blank.png,blank.png,blank.png,blank.png,blank.png,blank.png,blank.png,,,,,,,,,,,,,,,,,,,,,,,,,,,,,"[""sausage.png""]","[""tomato.png""]",PB12.png,,,,,,,,,,,0,6,"[""tomato.png""]","[""tomato.png""]","[""tomato.png""]","[""tomato.png""]","[""tomato.png""]","[""tomato.png""]",blank.png,PB18.png,PB18.png,"[""tomato.png""]","[""tomato.png""]",blank.png,blank.png,blank.png,blank.png,"[""tomato.png""]","[""tomato.png""]","[""tomato.png""]","[""tomato.png""]","[""tomato.png""]","[""tomato.png""]",1,"[""sausage.png""]",blank.png,blank.png,blank.png,2,"[""tomato.png""]","[""tomato.png""]",blank.png,blank.png,blank.png,blank.png,PB12.png,,,,,,,,,,,1,,,,,,,,,,,,,1252.8880000000354,,timeout,,,,,,,,,,,,white,3,,,,,,,,,,,,,,,,,,,,,,,,,,,,,,,,,,,,,,,,,,,,,,,,,,,,,,,,,"[""tomato.png""]","[""sausage.png""]",,,,2,,,false,,1,,,,,,,667336.0749999993,667335.801,666082.943,666084.4449999859,666089.402,667342.29,,,,
choice_sequence,flow.Sequence,2_4_3_6_1_0_0_0_0_5,2021-05-24T16:13:24.307Z,,,blank.png,"[""sausage.png""]",blank.png,blank.png,blank.png,blank.png,blank.png,blank.png,blank.png,blank.png,blank.png,blank.png,blank.png,,,,,,,,,,,,,,,,,,,,,,,,,,,,,"[""sausage.png""]","[""tomato.png""]",PB12.png,,,,,,,,,,,0,6,"[""tomato.png""]","[""tomato.png""]","[""tomato.png""]","[""tomato.png""]","[""tomato.png""]","[""tomato.png""]",blank.png,PB18.png,PB18.png,"[""tomato.png""]","[""tomato.png""]",blank.png,blank.png,blank.png,blank.png,"[""tomato.png""]","[""tomato.png""]","[""tomato.png""]","[""tomato.png""]","[""tomato.png""]","[""tomato.png""]",1,"[""sausage.png""]",blank.png,blank.png,blank.png,2,"[""tomato.png""]","[""tomato.png""]",blank.png,blank.png,blank.png,blank.png,PB12.png,,,,,,,,,,,1,,,,,,,,,,,,,5314.912999999942,,completion,,,,,,,,,,,,,3,,,,,,,,,,,,,,,,,,,,,,,,,,,,,,,,,,,,,,,,,,,,,,,,,,,,,,,,,"[""tomato.png""]","[""sausage.png""]",,,,2,,,false,,1,,,,,,,667336.3449999888,667335.801,662014.406,662016.9250000035,662020.888,667342.29,,,,
fixCross,canvas.Screen,2_4_3_6_1_0_0_0_0_6_0,2021-05-24T16:13:24.656Z,,,blank.png,blank.png,blank.png,blank.png,blank.png,blank.png,blank.png,"[""sausage.png""]",blank.png,blank.png,blank.png,blank.png,blank.png,,,,,,,,,,,,,,,,,,,,,,,,,,,,,"[""sausage.png""]","[""tomato.png""]",PB18.png,,,,,,,,,,,0,6,"[""tomato.png""]","[""tomato.png""]","[""tomato.png""]","[""tomato.png""]","[""tomato.png""]","[""tomato.png""]",blank.png,PB18.png,PB16.png,"[""tomato.png""]","[""tomato.png""]","[""tomato.png""]","[""tomato.png""]","[""tomato.png""]","[""tomato.png""]","[""tomato.png""]","[""tomato.png""]","[""tomato.png""]","[""tomato.png""]","[""tomato.png""]",blank.png,1,"[""sausage.png""]",blank.png,blank.png,blank.png,5,"[""tomato.png""]","[""tomato.png""]","[""tomato.png""]","[""tomato.png""]","[""tomato.png""]",blank.png,PB16.png,,,,,,,,,,,1,,,,,,,,,,,,,626.4459999999963,,timeout,,,,,,,,,,,,,4,,,,,,,,,,,,,,,,,,,,,,,,,,,,,,,,,,,,,,,,,,,,,,,,,,,,,,,,,"[""tomato.png""]","[""sausage.png""]",,,,2,,,false,,1,,,,,,,667684.9849999999,667684.528,667335.801,667338.7750000111,667342.29,667968.736,7,,,
timeout,canvas.Screen,2_4_3_6_1_0_0_0_0_6_1,2021-05-24T16:13:25.431Z,,,blank.png,blank.png,blank.png,blank.png,blank.png,blank.png,blank.png,"[""sausage.png""]",blank.png,blank.png,blank.png,blank.png,blank.png,,,,,,,,,,,,,,,,,,,,,,,,,,,,,"[""sausage.png""]","[""tomato.png""]",PB18.png,,,,,,,,,,,0,6,"[""tomato.png""]","[""tomato.png""]","[""tomato.png""]","[""tomato.png""]","[""tomato.png""]","[""tomato.png""]",blank.png,PB18.png,PB16.png,"[""tomato.png""]","[""tomato.png""]","[""tomato.png""]","[""tomato.png""]","[""tomato.png""]","[""tomato.png""]","[""tomato.png""]","[""tomato.png""]","[""tomato.png""]","[""tomato.png""]","[""tomato.png""]",blank.png,1,"[""sausage.png""]",blank.png,blank.png,blank.png,5,"[""tomato.png""]","[""tomato.png""]","[""tomato.png""]","[""tomato.png""]","[""tomato.png""]",blank.png,PB16.png,,,,,,,,,,,1,,,,,,,,,,,,,781.4000000000233,,timeout,,,,,,,,,,,,,4,,,,,,,,,,,,,,,,,,,,,,,,,,,,,,,,,,,,,,,,,,,,,,,,,,,,,,,,,"[""tomato.png""]","[""sausage.png""]",,,,2,,,false,,1,,,,,,,668459.7749999957,668459.488,667684.528,667972.929999989,667968.736,668750.136,,,,
choice,canvas.Screen,2_4_3_6_1_0_0_0_0_6_2,2021-05-24T16:13:26.652Z,,,blank.png,blank.png,blank.png,blank.png,blank.png,blank.png,blank.png,"[""sausage.png""]",blank.png,blank.png,blank.png,blank.png,blank.png,,,,,,,,,,,,,,,,,,,,,,,,,,,,,"[""sausage.png""]","[""tomato.png""]",PB18.png,,,,,,,,,,,0,6,"[""tomato.png""]","[""tomato.png""]","[""tomato.png""]","[""tomato.png""]","[""tomato.png""]","[""tomato.png""]",blank.png,PB18.png,PB16.png,"[""tomato.png""]","[""tomato.png""]","[""tomato.png""]","[""tomato.png""]","[""tomato.png""]","[""tomato.png""]","[""tomato.png""]","[""tomato.png""]","[""tomato.png""]","[""tomato.png""]","[""tomato.png""]",blank.png,1,"[""sausage.png""]",blank.png,blank.png,blank.png,5,"[""tomato.png""]","[""tomato.png""]","[""tomato.png""]","[""tomato.png""]","[""tomato.png""]",blank.png,PB16.png,,,,,,,,,,,1,,,,,,,,,,,,,930.3290000121342,,response,,,,,,,,,,,,,4,,,,,,,,,,,,,,,,,,,,,,,,,,,,,,,,,,,,,,,,,,,,,,,,,,,,,,,,,"[""tomato.png""]","[""sausage.png""]",,,,2,right,keydown(ArrowRight),false,,1,,,,,,,669681.4449999947,669680.4650000122,668459.488,668745.1050000091,668750.136,669970.705,,7,,
square,canvas.Screen,2_4_3_6_1_0_0_0_0_6_3,2021-05-24T16:13:27.936Z,,,blank.png,blank.png,blank.png,blank.png,blank.png,blank.png,blank.png,"[""sausage.png""]",blank.png,blank.png,blank.png,blank.png,blank.png,,,,,,,,,,,,,,,,,,,,,,,,,,,,,"[""sausage.png""]","[""tomato.png""]",PB18.png,,,,,,,,,,,0,6,"[""tomato.png""]","[""tomato.png""]","[""tomato.png""]","[""tomato.png""]","[""tomato.png""]","[""tomato.png""]",blank.png,PB18.png,PB16.png,"[""tomato.png""]","[""tomato.png""]","[""tomato.png""]","[""tomato.png""]","[""tomato.png""]","[""tomato.png""]","[""tomato.png""]","[""tomato.png""]","[""tomato.png""]","[""tomato.png""]","[""tomato.png""]",blank.png,1,"[""sausage.png""]",blank.png,blank.png,blank.png,5,"[""tomato.png""]","[""tomato.png""]","[""tomato.png""]","[""tomato.png""]","[""tomato.png""]",blank.png,PB16.png,,,,,,,,,,,1,,,#808080,#33ff3f,,,,,,,,,1000.9450000000652,,timeout,,,,,,,,,,,,,4,,,,,,,,,,,,,,,,,,,,,,,,,,,,,,,,,,,,,,,,,,,,,,,,,,,,,,,,,"[""tomato.png""]","[""sausage.png""]",,,,2,,,false,,1,,,,,white,black,670965.6050000049,670965.193,669957.751,669961.9299999904,669970.705,670971.65,,,,
ITI_late,canvas.Screen,2_4_3_6_1_0_0_0_0_6_4,2021-05-24T16:13:28.937Z,,,blank.png,blank.png,blank.png,blank.png,blank.png,blank.png,blank.png,"[""sausage.png""]",blank.png,blank.png,blank.png,blank.png,blank.png,,,,,,,,,,,,,,,,,,,,,,,,,,,,,"[""sausage.png""]","[""tomato.png""]",PB18.png,,,,,,,,,,,0,6,"[""tomato.png""]","[""tomato.png""]","[""tomato.png""]","[""tomato.png""]","[""tomato.png""]","[""tomato.png""]",blank.png,PB18.png,PB16.png,"[""tomato.png""]","[""tomato.png""]","[""tomato.png""]","[""tomato.png""]","[""tomato.png""]","[""tomato.png""]","[""tomato.png""]","[""tomato.png""]","[""tomato.png""]","[""tomato.png""]","[""tomato.png""]",blank.png,1,"[""sausage.png""]",blank.png,blank.png,blank.png,5,"[""tomato.png""]","[""tomato.png""]","[""tomato.png""]","[""tomato.png""]","[""tomato.png""]",blank.png,PB16.png,,,,,,,,,,,1,,,,,,,,,,,,,1007.4549999999581,,timeout,,,,,,,,,,,,white,4,,,,,,,,,,,,,,,,,,,,,,,,,,,,,,,,,,,,,,,,,,,,,,,,,,,,,,,,,"[""tomato.png""]","[""sausage.png""]",,,,2,,,false,,1,,,,,,,671966.5049999894,671966.183,670965.193,670966.7299999855,670971.65,671979.105,,,,
choice_sequence,flow.Sequence,2_4_3_6_1_0_0_0_0_6,2021-05-24T16:13:28.938Z,,,blank.png,blank.png,blank.png,blank.png,blank.png,blank.png,blank.png,"[""sausage.png""]",blank.png,blank.png,blank.png,blank.png,blank.png,,,,,,,,,,,,,,,,,,,,,,,,,,,,,"[""sausage.png""]","[""tomato.png""]",PB18.png,,,,,,,,,,,0,6,"[""tomato.png""]","[""tomato.png""]","[""tomato.png""]","[""tomato.png""]","[""tomato.png""]","[""tomato.png""]",blank.png,PB18.png,PB16.png,"[""tomato.png""]","[""tomato.png""]","[""tomato.png""]","[""tomato.png""]","[""tomato.png""]","[""tomato.png""]","[""tomato.png""]","[""tomato.png""]","[""tomato.png""]","[""tomato.png""]","[""tomato.png""]",blank.png,1,"[""sausage.png""]",blank.png,blank.png,blank.png,5,"[""tomato.png""]","[""tomato.png""]","[""tomato.png""]","[""tomato.png""]","[""tomato.png""]",blank.png,PB16.png,,,,,,,,,,,1,,,,,,,,,,,,,4623.892999999924,,completion,,,,,,,,,,,,,4,,,,,,,,,,,,,,,,,,,,,,,,,,,,,,,,,,,,,,,,,,,,,,,,,,,,,,,,,"[""tomato.png""]","[""sausage.png""]",,,,2,,,false,,1,,,,,,,671966.8349999993,671966.183,667335.801,667338.3399999875,667342.29,671979.105,,,,
choice_loop,flow.Loop,2_4_3_6_1_0_0_0_0,2021-05-24T16:13:28.938Z,,,,,,,,,,,,,,,,,,,,,,,,,,,,,,,,,,,,,,,,,,,,"[""sausage.png""]","[""tomato.png""]",,,,,,,,,,,,,,,,,,,,,,,,,,,,,,,,,,,,,,,,,,,,,,,,,,,,,,,,,,,,,,,,,,,,,,,38153.86399999994,,completion,,,,,,,,,,,,,,,,,,,,,,,,,,,,,,,,,,,,,,,,,,,,,,,,,,,,,,,,,,,,,,,,,,,,,,"[""tomato.png""]","[""sausage.png""]",,,,2,,,false,,,,,,,,,671967.015000002,671966.183,633786.472,633808.7599999853,633812.319,671979.105,,,,
choice_frame,html.Frame,2_4_3_6_1_0_0_0,2021-05-24T16:13:28.938Z,,,,,,,,,,,,,,,,,,,,,,,,,,,,,,,,,,,,,,,,,,,,,,,,,,,,,,,,,,,,,,,,,,,,,,,,,,,,,,,,,,,,,,,,,,,,,,,,,,,,,,,,,,,,,,,,,,,,38154.74600000435,,,,,,,,,,,,,,,,,,,,,,,,,,,,,,,,,,,,,,,,,,,,,,,,,,,,,,,,,,,,,,,,,,,,,,,,,,,,,2,,,false,,,,,,,,,671967.1249999956,671967.0650000044,633786.472,633786.9699999865,633812.319,671985.584,,,,
sublock_1,flow.Sequence,2_4_3_6_1_0_0,2021-05-24T16:13:28.938Z,,,,,,,,,,,,,,,,,,,,,,,,,,,,,,,,,,,,,,,,,,,,,,,,,,,,,,,,,,,,,,,,,,,,,,,,,,,,,,,,,,,,,,,,,,,,,,,,,,,,,,,,,,,,,,,,,,,,38154.74600000435,,completion,,,,,,,,,,,,,,,,,,,,,,,,,,,,,,,,,,,,,,,,,,,,,,,,,,,,,,,,,,,,,,,,,,,,,,,,,,,2,,,false,,,,,,,,,671967.1950000047,671967.0650000044,633786.472,633786.9500000088,633812.319,671985.584,,,,
fixCross,canvas.Screen,2_4_3_6_1_0_1_0_0_0_0,2021-05-24T16:13:29.603Z,,,blank.png,blank.png,blank.png,blank.png,blank.png,blank.png,blank.png,"[""sausage.png""]",blank.png,blank.png,blank.png,blank.png,blank.png,,,,,,,,,,,,,,,,,,,,,,,,,,,,,"[""sausage.png""]","[""tomato.png""]",PB18.png,,,,,,,,,,,0,6,"[""tomato.png""]","[""tomato.png""]","[""tomato.png""]","[""tomato.png""]","[""tomato.png""]","[""tomato.png""]",blank.png,PB18.png,PB16.png,"[""tomato.png""]","[""tomato.png""]","[""tomato.png""]","[""tomato.png""]","[""tomato.png""]","[""tomato.png""]","[""tomato.png""]","[""tomato.png""]","[""tomato.png""]","[""tomato.png""]","[""tomato.png""]",blank.png,1,"[""sausage.png""]",blank.png,blank.png,blank.png,5,"[""tomato.png""]","[""tomato.png""]","[""tomato.png""]","[""tomato.png""]","[""tomato.png""]",blank.png,PB16.png,,,,,,,,,,,1,,,,,,,,,,,,,929.9809999999125,,timeout,,,,,,,,,,,,,4,,,,,,,,,,,,,,,,,,,,,,,,,,,,,,,,,,,,,,,,,,,,,,,,,,,,,,,,,"[""tomato.png""]","[""sausage.png""]",,,,6,,,false,,1,,,,,,,672631.8000000028,672631.364,671979.105,671982.3549999855,671985.584,672915.565,8,,,
timeout,canvas.Screen,2_4_3_6_1_0_1_0_0_0_1,2021-05-24T16:13:30.377Z,,,blank.png,blank.png,blank.png,blank.png,blank.png,blank.png,blank.png,"[""sausage.png""]",blank.png,blank.png,blank.png,blank.png,blank.png,,,,,,,,,,,,,,,,,,,,,,,,,,,,,"[""sausage.png""]","[""tomato.png""]",PB18.png,,,,,,,,,,,0,6,"[""tomato.png""]","[""tomato.png""]","[""tomato.png""]","[""tomato.png""]","[""tomato.png""]","[""tomato.png""]",blank.png,PB18.png,PB16.png,"[""tomato.png""]","[""tomato.png""]","[""tomato.png""]","[""tomato.png""]","[""tomato.png""]","[""tomato.png""]","[""tomato.png""]","[""tomato.png""]","[""tomato.png""]","[""tomato.png""]","[""tomato.png""]",blank.png,1,"[""sausage.png""]",blank.png,blank.png,blank.png,5,"[""tomato.png""]","[""tomato.png""]","[""tomato.png""]","[""tomato.png""]","[""tomato.png""]",blank.png,PB16.png,,,,,,,,,,,1,,,,,,,,,,,,,781.4040000000969,,timeout,,,,,,,,,,,,,4,,,,,,,,,,,,,,,,,,,,,,,,,,,,,,,,,,,,,,,,,,,,,,,,,,,,,,,,,"[""tomato.png""]","[""sausage.png""]",,,,6,,,false,,1,,,,,,,673406.5999999875,673406.324,672631.364,672910.0050000125,672915.565,673696.969,,,,
choice,canvas.Screen,2_4_3_6_1_0_1_0_0_0_2,2021-05-24T16:13:31.721Z,,,blank.png,blank.png,blank.png,blank.png,blank.png,blank.png,blank.png,"[""sausage.png""]",blank.png,blank.png,blank.png,blank.png,blank.png,,,,,,,,,,,,,,,,,,,,,,,,,,,,,"[""sausage.png""]","[""tomato.png""]",PB18.png,,,,,,,,,,,0,6,"[""tomato.png""]","[""tomato.png""]","[""tomato.png""]","[""tomato.png""]","[""tomato.png""]","[""tomato.png""]",blank.png,PB18.png,PB16.png,"[""tomato.png""]","[""tomato.png""]","[""tomato.png""]","[""tomato.png""]","[""tomato.png""]","[""tomato.png""]","[""tomato.png""]","[""tomato.png""]","[""tomato.png""]","[""tomato.png""]","[""tomato.png""]",blank.png,1,"[""sausage.png""]",blank.png,blank.png,blank.png,5,"[""tomato.png""]","[""tomato.png""]","[""tomato.png""]","[""tomato.png""]","[""tomato.png""]",blank.png,PB16.png,,,,,,,,,,,1,,,,,,,,,,,,,1052.371000009356,,response,,,,,,,,,,,,,4,,,,,,,,,,,,,,,,,,,,,,,,,,,,,,,,,,,,,,,,,,,,,,,,,,,,,,,,,"[""tomato.png""]","[""sausage.png""]",,,,6,right,keydown(ArrowRight),false,,1,,,,,,,674750.1249999914,674749.3400000094,673406.324,673690.9400000004,673696.969,675042.656,,8,,
square,canvas.Screen,2_4_3_6_1_0_1_0_0_0_3,2021-05-24T16:13:33.006Z,,,blank.png,blank.png,blank.png,blank.png,blank.png,blank.png,blank.png,"[""sausage.png""]",blank.png,blank.png,blank.png,blank.png,blank.png,,,,,,,,,,,,,,,,,,,,,,,,,,,,,"[""sausage.png""]","[""tomato.png""]",PB18.png,,,,,,,,,,,0,6,"[""tomato.png""]","[""tomato.png""]","[""tomato.png""]","[""tomato.png""]","[""tomato.png""]","[""tomato.png""]",blank.png,PB18.png,PB16.png,"[""tomato.png""]","[""tomato.png""]","[""tomato.png""]","[""tomato.png""]","[""tomato.png""]","[""tomato.png""]","[""tomato.png""]","[""tomato.png""]","[""tomato.png""]","[""tomato.png""]","[""tomato.png""]",blank.png,1,"[""sausage.png""]",blank.png,blank.png,blank.png,5,"[""tomato.png""]","[""tomato.png""]","[""tomato.png""]","[""tomato.png""]","[""tomato.png""]",blank.png,PB16.png,,,,,,,,,,,1,,,#808080,#33ff3f,,,,,,,,,998.5270000000019,,timeout,,,,,,,,,,,,,4,,,,,,,,,,,,,,,,,,,,,,,,,,,,,,,,,,,,,,,,,,,,,,,,,,,,,,,,,"[""tomato.png""]","[""sausage.png""]",,,,6,,,false,,1,,,,,white,black,676035.2649999841,676034.727,675020.829,675026.8900000083,675042.656,676041.183,,,,
ITI_late,canvas.Screen,2_4_3_6_1_0_1_0_0_0_4,2021-05-24T16:13:33.503Z,,,blank.png,blank.png,blank.png,blank.png,blank.png,blank.png,blank.png,"[""sausage.png""]",blank.png,blank.png,blank.png,blank.png,blank.png,,,,,,,,,,,,,,,,,,,,,,,,,,,,,"[""sausage.png""]","[""tomato.png""]",PB18.png,,,,,,,,,,,0,6,"[""tomato.png""]","[""tomato.png""]","[""tomato.png""]","[""tomato.png""]","[""tomato.png""]","[""tomato.png""]",blank.png,PB18.png,PB16.png,"[""tomato.png""]","[""tomato.png""]","[""tomato.png""]","[""tomato.png""]","[""tomato.png""]","[""tomato.png""]","[""tomato.png""]","[""tomato.png""]","[""tomato.png""]","[""tomato.png""]","[""tomato.png""]",blank.png,1,"[""sausage.png""]",blank.png,blank.png,blank.png,5,"[""tomato.png""]","[""tomato.png""]","[""tomato.png""]","[""tomato.png""]","[""tomato.png""]",blank.png,PB16.png,,,,,,,,,,,1,,,,,,,,,,,,,497.29100000008475,,timeout,,,,,,,,,,,,white,4,,,,,,,,,,,,,,,,,,,,,,,,,,,,,,,,,,,,,,,,,,,,,,,,,,,,,,,,,"[""tomato.png""]","[""sausage.png""]",,,,6,,,false,,1,,,,,,,676532.2649999871,676531.991,676034.727,676036.2650000025,676041.183,676538.474,,,,
choice_sequence,flow.Sequence,2_4_3_6_1_0_1_0_0_0,2021-05-24T16:13:33.503Z,,,blank.png,blank.png,blank.png,blank.png,blank.png,blank.png,blank.png,"[""sausage.png""]",blank.png,blank.png,blank.png,blank.png,blank.png,,,,,,,,,,,,,,,,,,,,,,,,,,,,,"[""sausage.png""]","[""tomato.png""]",PB18.png,,,,,,,,,,,0,6,"[""tomato.png""]","[""tomato.png""]","[""tomato.png""]","[""tomato.png""]","[""tomato.png""]","[""tomato.png""]",blank.png,PB18.png,PB16.png,"[""tomato.png""]","[""tomato.png""]","[""tomato.png""]","[""tomato.png""]","[""tomato.png""]","[""tomato.png""]","[""tomato.png""]","[""tomato.png""]","[""tomato.png""]","[""tomato.png""]","[""tomato.png""]",blank.png,1,"[""sausage.png""]",blank.png,blank.png,blank.png,5,"[""tomato.png""]","[""tomato.png""]","[""tomato.png""]","[""tomato.png""]","[""tomato.png""]",blank.png,PB16.png,,,,,,,,,,,1,,,,,,,,,,,,,4546.4070000000065,,completion,,,,,,,,,,,,,4,,,,,,,,,,,,,,,,,,,,,,,,,,,,,,,,,,,,,,,,,,,,,,,,,,,,,,,,,"[""tomato.png""]","[""sausage.png""]",,,,6,,,false,,1,,,,,,,676532.5550000125,676531.991,671979.105,671981.9100000022,671985.584,676538.474,,,,
fixCross,canvas.Screen,2_4_3_6_1_0_1_0_0_1_0,2021-05-24T16:13:33.903Z,,,blank.png,"[""sausage.png""]",blank.png,blank.png,blank.png,blank.png,blank.png,blank.png,blank.png,blank.png,blank.png,blank.png,blank.png,,,,,,,,,,,,,,,,,,,,,,,,,,,,,"[""sausage.png""]","[""tomato.png""]",PB07.png,,,,,,,,,,,0,6,"[""tomato.png""]","[""tomato.png""]","[""tomato.png""]","[""tomato.png""]","[""tomato.png""]","[""tomato.png""]",blank.png,PB18.png,PB18.png,"[""tomato.png""]",blank.png,blank.png,blank.png,blank.png,blank.png,"[""tomato.png""]","[""tomato.png""]","[""tomato.png""]","[""tomato.png""]","[""tomato.png""]","[""tomato.png""]",1,"[""sausage.png""]",blank.png,blank.png,blank.png,1,"[""tomato.png""]",blank.png,blank.png,blank.png,blank.png,blank.png,PB07.png,,,,,,,,,,,1,,,,,,,,,,,,,626.4379999999655,,timeout,,,,,,,,,,,,,3,,,,,,,,,,,,,,,,,,,,,,,,,,,,,,,,,,,,,,,,,,,,,,,,,,,,,,,,,"[""tomato.png""]","[""sausage.png""]",,,,6,,,false,,1,,,,,,,676932.6899999869,676932.388,676531.991,676534.8949999898,676538.474,677164.912,9,,,
timeout,canvas.Screen,2_4_3_6_1_0_1_0_0_1_1,2021-05-24T16:13:34.627Z,,,blank.png,"[""sausage.png""]",blank.png,blank.png,blank.png,blank.png,blank.png,blank.png,blank.png,blank.png,blank.png,blank.png,blank.png,,,,,,,,,,,,,,,,,,,,,,,,,,,,,"[""sausage.png""]","[""tomato.png""]",PB07.png,,,,,,,,,,,0,6,"[""tomato.png""]","[""tomato.png""]","[""tomato.png""]","[""tomato.png""]","[""tomato.png""]","[""tomato.png""]",blank.png,PB18.png,PB18.png,"[""tomato.png""]",blank.png,blank.png,blank.png,blank.png,blank.png,"[""tomato.png""]","[""tomato.png""]","[""tomato.png""]","[""tomato.png""]","[""tomato.png""]","[""tomato.png""]",1,"[""sausage.png""]",blank.png,blank.png,blank.png,1,"[""tomato.png""]",blank.png,blank.png,blank.png,blank.png,blank.png,PB07.png,,,,,,,,,,,1,,,,,,,,,,,,,723.2979999999516,,timeout,,,,,,,,,,,,,3,,,,,,,,,,,,,,,,,,,,,,,,,,,,,,,,,,,,,,,,,,,,,,,,,,,,,,,,,"[""tomato.png""]","[""sausage.png""]",,,,6,,,false,,1,,,,,,,677655.9999999881,677655.695,676932.388,677159.6300000092,677164.912,677888.21,,,,
choice,canvas.Screen,2_4_3_6_1_0_1_0_0_1_2,2021-05-24T16:13:36.918Z,,,blank.png,"[""sausage.png""]",blank.png,blank.png,blank.png,blank.png,blank.png,blank.png,blank.png,blank.png,blank.png,blank.png,blank.png,,,,,,,,,,,,,,,,,,,,,,,,,,,,,"[""sausage.png""]","[""tomato.png""]",PB07.png,,,,,,,,,,,0,6,"[""tomato.png""]","[""tomato.png""]","[""tomato.png""]","[""tomato.png""]","[""tomato.png""]","[""tomato.png""]",blank.png,PB18.png,PB18.png,"[""tomato.png""]",blank.png,blank.png,blank.png,blank.png,blank.png,"[""tomato.png""]","[""tomato.png""]","[""tomato.png""]","[""tomato.png""]","[""tomato.png""]","[""tomato.png""]",1,"[""sausage.png""]",blank.png,blank.png,blank.png,1,"[""tomato.png""]",blank.png,blank.png,blank.png,blank.png,blank.png,PB07.png,,,,,,,,,,,1,,,,,,,,,,,,,2057.1849999879487,,response,,,,,,,,,,,,,3,,,,,,,,,,,,,,,,,,,,,,,,,,,,,,,,,,,,,,,,,,,,,,,,,,,,,,,,,"[""tomato.png""]","[""sausage.png""]",,,,6,left,keydown(ArrowLeft),false,,1,,,,,,,679946.3049999904,679945.3949999879,677655.695,677886.8000000075,677888.21,680174.993,,9,,
square,canvas.Screen,2_4_3_6_1_0_1_0_0_1_3,2021-05-24T16:13:38.140Z,,,blank.png,"[""sausage.png""]",blank.png,blank.png,blank.png,blank.png,blank.png,blank.png,blank.png,blank.png,blank.png,blank.png,blank.png,,,,,,,,,,,,,,,,,,,,,,,,,,,,,"[""sausage.png""]","[""tomato.png""]",PB07.png,,,,,,,,,,,0,6,"[""tomato.png""]","[""tomato.png""]","[""tomato.png""]","[""tomato.png""]","[""tomato.png""]","[""tomato.png""]",blank.png,PB18.png,PB18.png,"[""tomato.png""]",blank.png,blank.png,blank.png,blank.png,blank.png,"[""tomato.png""]","[""tomato.png""]","[""tomato.png""]","[""tomato.png""]","[""tomato.png""]","[""tomato.png""]",1,"[""sausage.png""]",blank.png,blank.png,blank.png,1,"[""tomato.png""]",blank.png,blank.png,blank.png,blank.png,blank.png,PB07.png,,,,,,,,,,,1,,,#33ff3f,#808080,,,,,,,,,1000.2999999999302,,timeout,,,,,,,,,,,,,3,,,,,,,,,,,,,,,,,,,,,,,,,,,,,,,,,,,,,,,,,,,,,,,,,,,,,,,,,"[""tomato.png""]","[""sausage.png""]",,,,6,,,false,,1,,,,,black,white,681169.2449999973,681168.836,680167.854,680170.9749999864,680174.993,681175.293,,,,
ITI_late,canvas.Screen,2_4_3_6_1_0_1_0_0_1_4,2021-05-24T16:13:39.393Z,,,blank.png,"[""sausage.png""]",blank.png,blank.png,blank.png,blank.png,blank.png,blank.png,blank.png,blank.png,blank.png,blank.png,blank.png,,,,,,,,,,,,,,,,,,,,,,,,,,,,,"[""sausage.png""]","[""tomato.png""]",PB07.png,,,,,,,,,,,0,6,"[""tomato.png""]","[""tomato.png""]","[""tomato.png""]","[""tomato.png""]","[""tomato.png""]","[""tomato.png""]",blank.png,PB18.png,PB18.png,"[""tomato.png""]",blank.png,blank.png,blank.png,blank.png,blank.png,"[""tomato.png""]","[""tomato.png""]","[""tomato.png""]","[""tomato.png""]","[""tomato.png""]","[""tomato.png""]",1,"[""sausage.png""]",blank.png,blank.png,blank.png,1,"[""tomato.png""]",blank.png,blank.png,blank.png,blank.png,blank.png,PB07.png,,,,,,,,,,,1,,,,,,,,,,,,,1252.9290000000037,,timeout,,,,,,,,,,,,white,3,,,,,,,,,,,,,,,,,,,,,,,,,,,,,,,,,,,,,,,,,,,,,,,,,,,,,,,,,"[""tomato.png""]","[""sausage.png""]",,,,6,,,false,,1,,,,,,,682422.0550000027,682421.709,681168.836,681170.3400000115,681175.293,682428.222,,,,
choice_sequence,flow.Sequence,2_4_3_6_1_0_1_0_0_1,2021-05-24T16:13:39.394Z,,,blank.png,"[""sausage.png""]",blank.png,blank.png,blank.png,blank.png,blank.png,blank.png,blank.png,blank.png,blank.png,blank.png,blank.png,,,,,,,,,,,,,,,,,,,,,,,,,,,,,"[""sausage.png""]","[""tomato.png""]",PB07.png,,,,,,,,,,,0,6,"[""tomato.png""]","[""tomato.png""]","[""tomato.png""]","[""tomato.png""]","[""tomato.png""]","[""tomato.png""]",blank.png,PB18.png,PB18.png,"[""tomato.png""]",blank.png,blank.png,blank.png,blank.png,blank.png,"[""tomato.png""]","[""tomato.png""]","[""tomato.png""]","[""tomato.png""]","[""tomato.png""]","[""tomato.png""]",1,"[""sausage.png""]",blank.png,blank.png,blank.png,1,"[""tomato.png""]",blank.png,blank.png,blank.png,blank.png,blank.png,PB07.png,,,,,,,,,,,1,,,,,,,,,,,,,5883.234999999986,,completion,,,,,,,,,,,,,3,,,,,,,,,,,,,,,,,,,,,,,,,,,,,,,,,,,,,,,,,,,,,,,,,,,,,,,,,"[""tomato.png""]","[""sausage.png""]",,,,6,,,false,,1,,,,,,,682422.3849999835,682421.709,676531.991,676534.4749999931,676538.474,682428.222,,,,
fixCross,canvas.Screen,2_4_3_6_1_0_1_0_0_2_0,2021-05-24T16:13:40.144Z,,,blank.png,"[""sausage.png""]",blank.png,blank.png,blank.png,blank.png,blank.png,blank.png,blank.png,blank.png,blank.png,blank.png,blank.png,,,,,,,,,,,,,,,,,,,,,,,,,,,,,"[""sausage.png""]","[""tomato.png""]",PB01.png,,,,,,,,,,,0,6,"[""tomato.png""]","[""tomato.png""]","[""tomato.png""]","[""tomato.png""]","[""tomato.png""]","[""tomato.png""]",blank.png,PB18.png,PB18.png,blank.png,blank.png,blank.png,blank.png,blank.png,blank.png,"[""tomato.png""]","[""tomato.png""]","[""tomato.png""]","[""tomato.png""]","[""tomato.png""]","[""tomato.png""]",1,"[""sausage.png""]",blank.png,blank.png,blank.png,0,blank.png,blank.png,blank.png,blank.png,blank.png,blank.png,PB01.png,,,,,,,,,,,1,,,,,,,,,,,,,962.222000000067,,timeout,,,,,,,,,,,,,3,,,,,,,,,,,,,,,,,,,,,,,,,,,,,,,,,,,,,,,,,,,,,,,,,,,,,,,,,"[""tomato.png""]","[""sausage.png""]",,,,6,,,false,,1,,,,,,,683173.2250000059,683172.517,682421.709,682424.8399999924,682428.222,683390.444,10,,,
timeout,canvas.Screen,2_4_3_6_1_0_1_0_0_2_1,2021-05-24T16:13:40.853Z,,,blank.png,"[""sausage.png""]",blank.png,blank.png,blank.png,blank.png,blank.png,blank.png,blank.png,blank.png,blank.png,blank.png,blank.png,,,,,,,,,,,,,,,,,,,,,,,,,,,,,"[""sausage.png""]","[""tomato.png""]",PB01.png,,,,,,,,,,,0,6,"[""tomato.png""]","[""tomato.png""]","[""tomato.png""]","[""tomato.png""]","[""tomato.png""]","[""tomato.png""]",blank.png,PB18.png,PB18.png,blank.png,blank.png,blank.png,blank.png,blank.png,blank.png,"[""tomato.png""]","[""tomato.png""]","[""tomato.png""]","[""tomato.png""]","[""tomato.png""]","[""tomato.png""]",1,"[""sausage.png""]",blank.png,blank.png,blank.png,0,blank.png,blank.png,blank.png,blank.png,blank.png,blank.png,PB01.png,,,,,,,,,,,1,,,,,,,,,,,,,710.3780000000261,,timeout,,,,,,,,,,,,,3,,,,,,,,,,,,,,,,,,,,,,,,,,,,,,,,,,,,,,,,,,,,,,,,,,,,,,,,,"[""tomato.png""]","[""sausage.png""]",,,,6,,,false,,1,,,,,,,683881.4849999908,683881.199,683172.517,683386.2300000037,683390.444,684100.822,,,,
choice,canvas.Screen,2_4_3_6_1_0_1_0_0_2_2,2021-05-24T16:13:42.070Z,,,blank.png,"[""sausage.png""]",blank.png,blank.png,blank.png,blank.png,blank.png,blank.png,blank.png,blank.png,blank.png,blank.png,blank.png,,,,,,,,,,,,,,,,,,,,,,,,,,,,,"[""sausage.png""]","[""tomato.png""]",PB01.png,,,,,,,,,,,0,6,"[""tomato.png""]","[""tomato.png""]","[""tomato.png""]","[""tomato.png""]","[""tomato.png""]","[""tomato.png""]",blank.png,PB18.png,PB18.png,blank.png,blank.png,blank.png,blank.png,blank.png,blank.png,"[""tomato.png""]","[""tomato.png""]","[""tomato.png""]","[""tomato.png""]","[""tomato.png""]","[""tomato.png""]",1,"[""sausage.png""]",blank.png,blank.png,blank.png,0,blank.png,blank.png,blank.png,blank.png,blank.png,blank.png,PB01.png,,,,,,,,,,,1,,,,,,,,,,,,,997.5829999969574,,response,,,,,,,,,,,,,3,,,,,,,,,,,,,,,,,,,,,,,,,,,,,,,,,,,,,,,,,,,,,,,,,,,,,,,,,"[""tomato.png""]","[""sausage.png""]",,,,6,right,keydown(ArrowRight),false,,1,,,,,,,685099.0999999922,685098.404999997,683881.199,684097.0000000088,684100.822,685314.948,,10,,
square,canvas.Screen,2_4_3_6_1_0_1_0_0_2_3,2021-05-24T16:13:43.281Z,,,blank.png,"[""sausage.png""]",blank.png,blank.png,blank.png,blank.png,blank.png,blank.png,blank.png,blank.png,blank.png,blank.png,blank.png,,,,,,,,,,,,,,,,,,,,,,,,,,,,,"[""sausage.png""]","[""tomato.png""]",PB01.png,,,,,,,,,,,0,6,"[""tomato.png""]","[""tomato.png""]","[""tomato.png""]","[""tomato.png""]","[""tomato.png""]","[""tomato.png""]",blank.png,PB18.png,PB18.png,blank.png,blank.png,blank.png,blank.png,blank.png,blank.png,"[""tomato.png""]","[""tomato.png""]","[""tomato.png""]","[""tomato.png""]","[""tomato.png""]","[""tomato.png""]",1,"[""sausage.png""]",blank.png,blank.png,blank.png,0,blank.png,blank.png,blank.png,blank.png,blank.png,blank.png,PB01.png,,,,,,,,,,,1,,,#808080,#33ff3f,,,,,,,,,1000.9200000000419,,timeout,,,,,,,,,,,,,3,,,,,,,,,,,,,,,,,,,,,,,,,,,,,,,,,,,,,,,,,,,,,,,,,,,,,,,,,"[""tomato.png""]","[""sausage.png""]",,,,6,,,false,,1,,,,,white,black,686309.8100000061,686309.419,685308.424,685310.4199999943,685314.948,686315.868,,,,
