sender,sender_type,sender_id,timestamp,meta,,Blank,DownLeft1,DownLeft2,DownLeft3,DownLeft4,DownLeft5,DownLeft6,DownRight1,DownRight2,DownRight3,DownRight4,DownRight5,DownRight6,FoodHabits_Fru_item1,FoodHabits_Fru_item2,FoodHabits_Fru_item3,FoodHabits_Fru_item4,FoodHabits_Fru_item5,FoodHabits_Fru_item6,FoodHabits_Fru_item7,FoodHabits_Meat_item1,FoodHabits_Meat_item2,FoodHabits_Meat_item3,FoodHabits_Meat_item4,FoodHabits_Meat_item5,FoodHabits_Meat_item6,FoodHabits_Meat_item7,FoodHabits_Swe_item1,FoodHabits_Swe_item2,FoodHabits_Swe_item3,FoodHabits_Swe_item4,FoodHabits_Swe_item5,FoodHabits_Swe_item6,FoodHabits_Swe_item7,FoodHabits_Veg_item1,FoodHabits_Veg_item2,FoodHabits_Veg_item3,FoodHabits_Veg_item4,FoodHabits_Veg_item5,FoodHabits_Veg_item6,FoodHabits_Veg_item7,ImgA,ImgB,LeftBar,PSS_item01,PSS_item02,PSS_item03,PSS_item04,PSS_item05,PSS_item06,PSS_item07,PSS_item08,PSS_item09,PSS_item10,RefA,RefB,RefB1,RefB2,RefB3,RefB4,RefB5,RefB6,RefB7,Ref_PB,RightBar,UpLeft1,UpLeft2,UpLeft3,UpLeft4,UpLeft5,UpLeft6,UpRight1,UpRight2,UpRight3,UpRight4,UpRight5,UpRight6,VarA,VarA1,VarA2,VarA3,VarA4,VarB,VarB1,VarB2,VarB3,VarB4,VarB5,VarB6,Var_PB,attCheck_fileA,attCheck_fileB,attCheck_fileC,attCheck_fileD,attCheck_options,attCheck_valueA,attCheck_valueB,attCheck_valueC,attCheck_valueD,attention_check,block,break1,browser_name,choseL,choseR,consent_form1,consent_form2,consentconfirmation_form1,consentconfirmation_form2,correct,correctResponse,diet,disorder,duration,edu,ended_on,enjoy,full_version,gender,group,hunger,img,imgTask,input_age,input_meal,input_occ,input_remark,lateRespFeed,list,major_version,message,mixQ_item1,mixQ_item2,mixQ_item3,mixQ_item4,mixQ_item5,name,navigator_appName,navigator_userAgent,os,pracQ1_IDa,pracQ1_IDb,pracQ1_IDc,pracQ1_IDd,pracQ1_optionA,pracQ1_optionB,pracQ1_optionC,pracQ1_optionD,pracQ1_valueA,pracQ1_valueB,pracQ1_valueC,pracQ1_valueD,pracQ2_IDa,pracQ2_IDb,pracQ2_IDc,pracQ2_optionA,pracQ2_optionB,pracQ2_optionC,pracQ2_valueA,pracQ2_valueB,pracQ2_valueC,pracQ4_IDa,pracQ4_IDb,pracQ4_IDc,pracQ4_IDd,pracQ4_optionA,pracQ4_optionB,pracQ4_optionC,pracQ4_optionD,pracQ4_valueA,pracQ4_valueB,pracQ4_valueC,pracQ4_valueD,pracQ5_IDa,pracQ5_IDb,pracQ5_IDc,pracQ5_IDd,pracQ5_optionA,pracQ5_optionB,pracQ5_optionC,pracQ5_optionD,pracQ5_valueA,pracQ5_valueB,pracQ5_valueC,pracQ5_valueD,prefHealty,prefUnhealthy,prolific_ID,psessionID,pstudyID,rep,response,response_action,skip,snack,sublock,subtitle,task_difficulty,task_engagement,task_focus,textL,textR,time_commit,time_end,time_render,time_run,time_show,time_switch,trial_count,trial_countO,url,valence
Title,html.Page,0,2021-05-24T16:09:27.117Z,"{""labjs_version"":""20.2.2"",""labjs_build"":{""flavor"":""production"",""commit"":""a25486e0c714a0ae2ce03ff94b7bb6896854dcfa""},""location"":""https://run.pavlovia.org/E3lab/rebund/html/?PROLIFIC_PID=5f9c9aebcee6f616c84e40d7&STUDY_ID=60008f34cd719d13b0d706dd&SESSION_ID=60abcf9c323440606bd3977c"",""userAgent"":""Mozilla/5.0 (Windows NT 10.0; Win64; x64; rv:88.0) Gecko/20100101 Firefox/88.0"",""platform"":""Win32"",""language"":""es-MX"",""locale"":""es-MX"",""timeZone"":""America/Mexico_City"",""timezoneOffset"":300,""screen_width"":1536,""screen_height"":864,""scroll_width"":1536,""scroll_height"":702,""window_innerWidth"":1536,""window_innerHeight"":750,""devicePixelRatio"":1.25}",,,,,,,,,,,,,,,,,,,,,,,,,,,,,,,,,,,,,,,,,,,,,,,,,,,,,,,,,,,,,,,,,,,,,,,,,,,,,,,,,,,,,,,,,,,,,,,,,,,,,,,,,,,,,,,,,,,3679.7800000000007,,form submission,,,,,,,,,,,,,,,,,,,,,,,,,,,,,,,,,,,,,,,,,,,,,,,,,,,,,,,,,,,,,,,,,,,,,,,,,,,,,,,,,,,,,,,16244,16242,12545.56,12537,12562.22,16259.06,,,"{""PROLIFIC_PID"":""5f9c9aebcee6f616c84e40d7"",""STUDY_ID"":""60008f34cd719d13b0d706dd"",""SESSION_ID"":""60abcf9c323440606bd3977c""}",
get_systemInfo,canvas.Screen,1,2021-05-24T16:09:27.134Z,,,,,,,,,,,,,,,,,,,,,,,,,,,,,,,,,,,,,,,,,,,,,,,,,,,,,,,,,,,,,,,,,,,,,,,,,,,,,,,,,,,,,,,,,,,,,,,,,,,,,,,,,Firefox,,,,,,,,,,,2075.7800000000007,,timeout,,88.0,,,,,,,,,,,,88,,,,,,,,Netscape,Mozilla/5.0 (Windows NT 10.0; Win64; x64; rv:88.0) Gecko/20100101 Firefox/88.0,Windows,,,,,,,,,,,,,,,,,,,,,,,,,,,,,,,,,,,,,,,,,,,,,,,,5f9c9aebcee6f616c84e40d7,,60008f34cd719d13b0d706dd,,,,,,,,,,,,,16262,16260,16242.4,16248,16259.06,18334.84,,,,
ConsentForm,html.Form,2_0,2021-05-24T16:10:19.922Z,,,,,,,,,,,,,,,,,,,,,,,,,,,,,,,,,,,,,,,,,,,,,,,,,,,,,,,,,,,,,,,,,,,,,,,,,,,,,,,,,,,,,,,,,,,,,,,,,,,,,,,,,,,,true,true,,,,,,,50713.16,,form submission,,,,,,,,,,,,,,,,,,,,,,,,,,,,,,,,,,,,,,,,,,,,,,,,,,,,,,,,,,,,,,,,,,,,,,,,,,,,,,,,,,,,,,,69049,69048,16260,18333,18334.84,69079.32,,,,
PepTalk,html.Page,2_1,2021-05-24T16:10:25.884Z,,,,,,,,,,,,,,,,,,,,,,,,,,,,,,,,,,,,,,,,,,,,,,,,,,,,,,,,,,,,,,,,,,,,,,,,,,,,,,,,,,,,,,,,,,,,,,,,,,,,,,,,,,,,,,,,,,,,5929.679999999993,,form submission,,,,,,,,,,,,,,,,,,,,,,,,,,,,,,,,,,,,,,,,,,,,,,,,,,,,,,,,,,,,,,,,,,,,,,,,,,,,,,,,,,,,,,,75010,75009,69062.66,69049,69079.32,75035.06,,,,
Demographics,html.Form,2_2,2021-05-24T16:10:58.602Z,,,,,,,,,,,,,,,,,,,,,,,,,,,,,,,,,,,,,,,,,,,,,,,,,,,,,,,,,,,,,,,,,,,,,,,,,,,,,,,,,,,,,,,,,,,,,,,,,,,,,,,,,,,,,,,,,,,,32693.940000000002,2,form submission,,,2,,,,,20,,Student,,,,,,,,,,,,,,,,,,,,,,,,,,,,,,,,,,,,,,,,,,,,,,,,,,,,,,,,,,,,,,,,,,,,,,,,,,,,,107729,107729,75018.38,75011,75035.06,107750.82,,,,
InclusionCrit,html.Form,2_3,2021-05-24T16:11:10.541Z,,,,,,,,,,,,,,,,,,,,,,,,,,,,,,,,,,,,,,,,,,,,,,,,,,,,,,,,,,,,,,,,,,,,,,,,,,,,,,,,,,,,,,,,,,,,,,,,,,,,,,,,,,,,,,,,,,1,1,11916.179999999993,,form submission,1,,,,,,,,,,,,,,,,,,,,,,,,,,,,,,,,,,,,,,,,,,,,,,,,,,,,,,,,,,,,,,,,,,,,,,,,,,,,,,,,,,,,,,119668,119667,107734.16,107730,107750.82,119692.78,,,,
Selection,html.Page,2_4_0,2021-05-24T16:11:19.132Z,,,,,,,,,,,,,,,,,,,,,,,,,,,,,,,,,,,,,,,,,,,,,,,,,,,,,,,,,,,,,,,,,,,,,,,,,,,,,,,,,,,,,,,,,,,,,,,,,,,,,,,,,,,,,,,,,,,,8565.220000000001,,form submission,,,,,,,,,,,,,,,,,,,,,,,,,,,,,,,,,,,,,,,,,,,,,,,,,,,,,,,,,,,,,,,,,,,,,,,,,,,,,,,0,,,,,,,,128259,128258,119676.1,119668,119692.78,128274.04,,,,
Load,html.Page,2_4_1,2021-05-24T16:11:19.148Z,,,,,,,,,,,,,,,,,,,,,,,,,,,,,,,,,,,,,,,,,,,,,,,,,,,,,,,,,,,,,,,,,,,,,,,,,,,,,,,,,,,,,,,,,,,,,,,,,,,,,,,,,,,,,,,,,,,,41880.86,,timeout,,,,,,,,,,,,,,,,,,,,,,,,,,,,,,,,,,,,,,,,,,,,,,,,,,,,,,,,,,,,,,,,,,,,,,,,,,,,,,,,,,,,,,,128276,128275,128257.38,128259,128274.04,170154.9,,,,
ratings_instructions,html.Screen,2_4_2_0,2021-05-24T16:12:32.761Z,,,,,,,,,,,,,,,,,,,,,,,,,,,,,,,,,,,,,,,,,,,,,,,,,,,,,,,,,,,,,,,,,,,,,,,,,,,,,,,,,,,,,,,,,,,,,,,,,,,,,,,,,,,,,,,,,,,,31727.100000000006,,response,,,,,,,,,,,,,,,,,,,,,,,,,,,,,,,,,,,,,,,,,,,,,,,,,,,,,,,,,,,,,,,,,,,,,,,,,,,,continue,keypress(Space),false,,,,,,,,,201888,201882,128275,170157,170154.9,201902.7,0,0,,
fixCross,canvas.Screen,2_4_2_1_0_0,2021-05-24T16:12:33.263Z,,,,,,,,,,,,,,,,,,,,,,,,,,,,,,,,,,,,,,,,,,,,,,,,,,,,,,,,,,,,,,,,,,,,,,,,,,,,,,,,,,,,,,,,,,,,,,,,,,,,,,,,,,,,,,,,,,,,501.2399999999907,,timeout,,,,unhealthy,,candy.png,,,,,,,,,,,,,,,candy,,,,,,,,,,,,,,,,,,,,,,,,,,,,,,,,,,,,,,,,,,,,,,,,,,,,,,,,,false,,,,,,,,,202390,202387.28,201890.14,201890,201902.7,202403.94,,,,
Rating,html.Form,2_4_2_1_0_1,2021-05-24T16:12:41.132Z,,,,,,,,,,,,,,,,,,,,,,,,,,,,,,,,,,,,,,,,,,,,,,,,,,,,,,,,,,,,,,,,,,,,,,,,,,,,,,,,,,,,,,,,,,,,,,,,,,,,,,,,,,,,,,,,,,,,7856.059999999998,,form submission,,,,unhealthy,,candy.png,,,,,,,,,,,,,,,candy,,,,,,,,,,,,,,,,,,,,,,,,,,,,,,,,,,,,,,,,,,,,,,,,,,,,,,,,,false,,,,,,,,,210260,210260,202387.28,202391,202403.94,210282.04,,,,50
rating_sequence,flow.Sequence,2_4_2_1_0,2021-05-24T16:12:41.134Z,,,,,,,,,,,,,,,,,,,,,,,,,,,,,,,,,,,,,,,,,,,,,,,,,,,,,,,,,,,,,,,,,,,,,,,,,,,,,,,,,,,,,,,,,,,,,,,,,,,,,,,,,,,,,,,,,,,,8357.299999999988,,completion,,,,unhealthy,,candy.png,,,,,,,,,,,,,,,candy,,,,,,,,,,,,,,,,,,,,,,,,,,,,,,,,,,,,,,,,,,,,,,,,,,,,,,,,,false,,,,,,,,,210260,210260,201890.14,201890,201902.7,210282.04,,,,
fixCross,canvas.Screen,2_4_2_1_1_0,2021-05-24T16:12:41.642Z,,,,,,,,,,,,,,,,,,,,,,,,,,,,,,,,,,,,,,,,,,,,,,,,,,,,,,,,,,,,,,,,,,,,,,,,,,,,,,,,,,,,,,,,,,,,,,,,,,,,,,,,,,,,,,,,,,,,502,,timeout,,,,unhealthy,,marshmallow.png,,,,,,,,,,,,,,,marshmallow,,,,,,,,,,,,,,,,,,,,,,,,,,,,,,,,,,,,,,,,,,,,,,,,,,,,,,,,,false,,,,,,,,,210769,210767.36,210265.38,210261,210282.04,210784.04,,,,
Rating,html.Form,2_4_2_1_1_1,2021-05-24T16:12:45.219Z,,,,,,,,,,,,,,,,,,,,,,,,,,,,,,,,,,,,,,,,,,,,,,,,,,,,,,,,,,,,,,,,,,,,,,,,,,,,,,,,,,,,,,,,,,,,,,,,,,,,,,,,,,,,,,,,,,,,3561.959999999992,,form submission,,,,unhealthy,,marshmallow.png,,,,,,,,,,,,,,,marshmallow,,,,,,,,,,,,,,,,,,,,,,,,,,,,,,,,,,,,,,,,,,,,,,,,,,,,,,,,,false,,,,,,,,,214347,214346,210767.36,210770,210784.04,214363.28,,,,84
rating_sequence,flow.Sequence,2_4_2_1_1,2021-05-24T16:12:45.219Z,,,,,,,,,,,,,,,,,,,,,,,,,,,,,,,,,,,,,,,,,,,,,,,,,,,,,,,,,,,,,,,,,,,,,,,,,,,,,,,,,,,,,,,,,,,,,,,,,,,,,,,,,,,,,,,,,,,,4063.959999999992,,completion,,,,unhealthy,,marshmallow.png,,,,,,,,,,,,,,,marshmallow,,,,,,,,,,,,,,,,,,,,,,,,,,,,,,,,,,,,,,,,,,,,,,,,,,,,,,,,,false,,,,,,,,,214347,214346,210265.38,210261,210282.04,214363.28,,,,
fixCross,canvas.Screen,2_4_2_1_2_0,2021-05-24T16:12:45.724Z,,,,,,,,,,,,,,,,,,,,,,,,,,,,,,,,,,,,,,,,,,,,,,,,,,,,,,,,,,,,,,,,,,,,,,,,,,,,,,,,,,,,,,,,,,,,,,,,,,,,,,,,,,,,,,,,,,,,501.5,,timeout,,,,unhealthy,,chocolate.png,,,,,,,,,,,,,,,chocolate,,,,,,,,,,,,,,,,,,,,,,,,,,,,,,,,,,,,,,,,,,,,,,,,,,,,,,,,,false,,,,,,,,,214852,214848.12,214346.6,214347,214363.28,214864.78,,,,
Rating,html.Form,2_4_2_1_2_1,2021-05-24T16:12:54.550Z,,,,,,,,,,,,,,,,,,,,,,,,,,,,,,,,,,,,,,,,,,,,,,,,,,,,,,,,,,,,,,,,,,,,,,,,,,,,,,,,,,,,,,,,,,,,,,,,,,,,,,,,,,,,,,,,,,,,8813.220000000001,,form submission,,,,unhealthy,,chocolate.png,,,,,,,,,,,,,,,chocolate,,,,,,,,,,,,,,,,,,,,,,,,,,,,,,,,,,,,,,,,,,,,,,,,,,,,,,,,,false,,,,,,,,,223678,223678,214848.12,214853,214864.78,223696.44,,,,93
rating_sequence,flow.Sequence,2_4_2_1_2,2021-05-24T16:12:54.551Z,,,,,,,,,,,,,,,,,,,,,,,,,,,,,,,,,,,,,,,,,,,,,,,,,,,,,,,,,,,,,,,,,,,,,,,,,,,,,,,,,,,,,,,,,,,,,,,,,,,,,,,,,,,,,,,,,,,,9314.720000000001,,completion,,,,unhealthy,,chocolate.png,,,,,,,,,,,,,,,chocolate,,,,,,,,,,,,,,,,,,,,,,,,,,,,,,,,,,,,,,,,,,,,,,,,,,,,,,,,,false,,,,,,,,,223678,223678,214346.6,214347,214363.28,223696.44,,,,
fixCross,canvas.Screen,2_4_2_1_3_0,2021-05-24T16:12:55.056Z,,,,,,,,,,,,,,,,,,,,,,,,,,,,,,,,,,,,,,,,,,,,,,,,,,,,,,,,,,,,,,,,,,,,,,,,,,,,,,,,,,,,,,,,,,,,,,,,,,,,,,,,,,,,,,,,,,,,501.820000000007,,timeout,,,,healthy,,orange.png,,,,,,,,,,,,,,,orange,,,,,,,,,,,,,,,,,,,,,,,,,,,,,,,,,,,,,,,,,,,,,,,,,,,,,,,,,false,,,,,,,,,224182,224181.6,223679.76,223678,223696.44,224198.26,,,,
Rating,html.Form,2_4_2_1_3_1,2021-05-24T16:13:03.582Z,,,,,,,,,,,,,,,,,,,,,,,,,,,,,,,,,,,,,,,,,,,,,,,,,,,,,,,,,,,,,,,,,,,,,,,,,,,,,,,,,,,,,,,,,,,,,,,,,,,,,,,,,,,,,,,,,,,,8510.73999999999,,form submission,,,,healthy,,orange.png,,,,,,,,,,,,,,,orange,,,,,,,,,,,,,,,,,,,,,,,,,,,,,,,,,,,,,,,,,,,,,,,,,,,,,,,,,false,,,,,,,,,232709,232709,224181.6,224182,224198.26,232728.82,,,,86
rating_sequence,flow.Sequence,2_4_2_1_3,2021-05-24T16:13:03.582Z,,,,,,,,,,,,,,,,,,,,,,,,,,,,,,,,,,,,,,,,,,,,,,,,,,,,,,,,,,,,,,,,,,,,,,,,,,,,,,,,,,,,,,,,,,,,,,,,,,,,,,,,,,,,,,,,,,,,9012.559999999998,,completion,,,,healthy,,orange.png,,,,,,,,,,,,,,,orange,,,,,,,,,,,,,,,,,,,,,,,,,,,,,,,,,,,,,,,,,,,,,,,,,,,,,,,,,false,,,,,,,,,232709,232709,223679.76,223678,223696.44,232728.82,,,,
fixCross,canvas.Screen,2_4_2_1_4_0,2021-05-24T16:13:04.088Z,,,,,,,,,,,,,,,,,,,,,,,,,,,,,,,,,,,,,,,,,,,,,,,,,,,,,,,,,,,,,,,,,,,,,,,,,,,,,,,,,,,,,,,,,,,,,,,,,,,,,,,,,,,,,,,,,,,,501.79999999998836,,timeout,,,,unhealthy,,praline.png,,,,,,,,,,,,,,,praline,,,,,,,,,,,,,,,,,,,,,,,,,,,,,,,,,,,,,,,,,,,,,,,,,,,,,,,,,false,,,,,,,,,233215,233213.94,232712.16,232709,232728.82,233230.62,,,,
Rating,html.Form,2_4_2_1_4_1,2021-05-24T16:13:07.288Z,,,,,,,,,,,,,,,,,,,,,,,,,,,,,,,,,,,,,,,,,,,,,,,,,,,,,,,,,,,,,,,,,,,,,,,,,,,,,,,,,,,,,,,,,,,,,,,,,,,,,,,,,,,,,,,,,,,,3184.3800000000047,,form submission,,,,unhealthy,,praline.png,,,,,,,,,,,,,,,praline,,,,,,,,,,,,,,,,,,,,,,,,,,,,,,,,,,,,,,,,,,,,,,,,,,,,,,,,,false,,,,,,,,,236415,236415,233213.94,233216,233230.62,236441.72,,,,79
rating_sequence,flow.Sequence,2_4_2_1_4,2021-05-24T16:13:07.288Z,,,,,,,,,,,,,,,,,,,,,,,,,,,,,,,,,,,,,,,,,,,,,,,,,,,,,,,,,,,,,,,,,,,,,,,,,,,,,,,,,,,,,,,,,,,,,,,,,,,,,,,,,,,,,,,,,,,,3686.179999999993,,completion,,,,unhealthy,,praline.png,,,,,,,,,,,,,,,praline,,,,,,,,,,,,,,,,,,,,,,,,,,,,,,,,,,,,,,,,,,,,,,,,,,,,,,,,,false,,,,,,,,,236416,236415,232712.16,232709,232728.82,236441.72,,,,
fixCross,canvas.Screen,2_4_2_1_5_0,2021-05-24T16:13:07.801Z,,,,,,,,,,,,,,,,,,,,,,,,,,,,,,,,,,,,,,,,,,,,,,,,,,,,,,,,,,,,,,,,,,,,,,,,,,,,,,,,,,,,,,,,,,,,,,,,,,,,,,,,,,,,,,,,,,,,501.8399999999965,,timeout,,,,unhealthy,,m&m.png,,,,,,,,,,,,,,,m&m,,,,,,,,,,,,,,,,,,,,,,,,,,,,,,,,,,,,,,,,,,,,,,,,,,,,,,,,,false,,,,,,,,,236928,236926.88,236425.04,236416,236441.72,236943.56,,,,
Rating,html.Form,2_4_2_1_5_1,2021-05-24T16:13:10.578Z,,,,,,,,,,,,,,,,,,,,,,,,,,,,,,,,,,,,,,,,,,,,,,,,,,,,,,,,,,,,,,,,,,,,,,,,,,,,,,,,,,,,,,,,,,,,,,,,,,,,,,,,,,,,,,,,,,,,2761.4400000000023,,form submission,,,,unhealthy,,m&m.png,,,,,,,,,,,,,,,m&m,,,,,,,,,,,,,,,,,,,,,,,,,,,,,,,,,,,,,,,,,,,,,,,,,,,,,,,,,false,,,,,,,,,239705,239705,236926.88,236928,236943.56,239720.16,,,,84
rating_sequence,flow.Sequence,2_4_2_1_5,2021-05-24T16:13:10.578Z,,,,,,,,,,,,,,,,,,,,,,,,,,,,,,,,,,,,,,,,,,,,,,,,,,,,,,,,,,,,,,,,,,,,,,,,,,,,,,,,,,,,,,,,,,,,,,,,,,,,,,,,,,,,,,,,,,,,3263.279999999999,,completion,,,,unhealthy,,m&m.png,,,,,,,,,,,,,,,m&m,,,,,,,,,,,,,,,,,,,,,,,,,,,,,,,,,,,,,,,,,,,,,,,,,,,,,,,,,false,,,,,,,,,239705,239705,236425.04,236416,236441.72,239720.16,,,,
fixCross,canvas.Screen,2_4_2_1_6_0,2021-05-24T16:13:11.080Z,,,,,,,,,,,,,,,,,,,,,,,,,,,,,,,,,,,,,,,,,,,,,,,,,,,,,,,,,,,,,,,,,,,,,,,,,,,,,,,,,,,,,,,,,,,,,,,,,,,,,,,,,,,,,,,,,,,,500.7399999999907,,timeout,,,,healthy,,coconut.png,,,,,,,,,,,,,,,coconut,,,,,,,,,,,,,,,,,,,,,,,,,,,,,,,,,,,,,,,,,,,,,,,,,,,,,,,,,false,,,,,,,,,240207,240204.24,239703.5,239706,239720.16,240220.9,,,,
Rating,html.Form,2_4_2_1_6_1,2021-05-24T16:13:13.935Z,,,,,,,,,,,,,,,,,,,,,,,,,,,,,,,,,,,,,,,,,,,,,,,,,,,,,,,,,,,,,,,,,,,,,,,,,,,,,,,,,,,,,,,,,,,,,,,,,,,,,,,,,,,,,,,,,,,,2841.100000000006,,form submission,,,,healthy,,coconut.png,,,,,,,,,,,,,,,coconut,,,,,,,,,,,,,,,,,,,,,,,,,,,,,,,,,,,,,,,,,,,,,,,,,,,,,,,,,false,,,,,,,,,243062,243062,240204.24,240207,240220.9,243082.04,,,,93
rating_sequence,flow.Sequence,2_4_2_1_6,2021-05-24T16:13:13.935Z,,,,,,,,,,,,,,,,,,,,,,,,,,,,,,,,,,,,,,,,,,,,,,,,,,,,,,,,,,,,,,,,,,,,,,,,,,,,,,,,,,,,,,,,,,,,,,,,,,,,,,,,,,,,,,,,,,,,3341.8399999999965,,completion,,,,healthy,,coconut.png,,,,,,,,,,,,,,,coconut,,,,,,,,,,,,,,,,,,,,,,,,,,,,,,,,,,,,,,,,,,,,,,,,,,,,,,,,,false,,,,,,,,,243062,243062,239703.5,239706,239720.16,243082.04,,,,
fixCross,canvas.Screen,2_4_2_1_7_0,2021-05-24T16:13:14.441Z,,,,,,,,,,,,,,,,,,,,,,,,,,,,,,,,,,,,,,,,,,,,,,,,,,,,,,,,,,,,,,,,,,,,,,,,,,,,,,,,,,,,,,,,,,,,,,,,,,,,,,,,,,,,,,,,,,,,502.0599999999977,,timeout,,,,unhealthy,,gummybear.png,,,,,,,,,,,,,,,gummybear,,,,,,,,,,,,,,,,,,,,,,,,,,,,,,,,,,,,,,,,,,,,,,,,,,,,,,,,,false,,,,,,,,,243568,243567.44,243065.38,243062,243082.04,243584.1,,,,
Rating,html.Form,2_4_2_1_7_1,2021-05-24T16:13:16.982Z,,,,,,,,,,,,,,,,,,,,,,,,,,,,,,,,,,,,,,,,,,,,,,,,,,,,,,,,,,,,,,,,,,,,,,,,,,,,,,,,,,,,,,,,,,,,,,,,,,,,,,,,,,,,,,,,,,,,2524.899999999994,,form submission,,,,unhealthy,,gummybear.png,,,,,,,,,,,,,,,gummybear,,,,,,,,,,,,,,,,,,,,,,,,,,,,,,,,,,,,,,,,,,,,,,,,,,,,,,,,,false,,,,,,,,,246109,246109,243567.44,243568,243584.1,246124.64,,,,77
rating_sequence,flow.Sequence,2_4_2_1_7,2021-05-24T16:13:16.983Z,,,,,,,,,,,,,,,,,,,,,,,,,,,,,,,,,,,,,,,,,,,,,,,,,,,,,,,,,,,,,,,,,,,,,,,,,,,,,,,,,,,,,,,,,,,,,,,,,,,,,,,,,,,,,,,,,,,,3026.959999999992,,completion,,,,unhealthy,,gummybear.png,,,,,,,,,,,,,,,gummybear,,,,,,,,,,,,,,,,,,,,,,,,,,,,,,,,,,,,,,,,,,,,,,,,,,,,,,,,,false,,,,,,,,,246109,246109,243065.38,243062,243082.04,246124.64,,,,
fixCross,canvas.Screen,2_4_2_1_8_0,2021-05-24T16:13:17.485Z,,,,,,,,,,,,,,,,,,,,,,,,,,,,,,,,,,,,,,,,,,,,,,,,,,,,,,,,,,,,,,,,,,,,,,,,,,,,,,,,,,,,,,,,,,,,,,,,,,,,,,,,,,,,,,,,,,,,503.179999999993,,timeout,,,,unhealthy,,chocolate_truffle.png,,,,,,,,,,,,,,,chocolate truffle,,,,,,,,,,,,,,,,,,,,,,,,,,,,,,,,,,,,,,,,,,,,,,,,,,,,,,,,,false,,,,,,,,,246613,246611.16,246107.98,246109,246124.64,246627.82,,,,
Rating,html.Form,2_4_2_1_8_1,2021-05-24T16:13:19.413Z,,,,,,,,,,,,,,,,,,,,,,,,,,,,,,,,,,,,,,,,,,,,,,,,,,,,,,,,,,,,,,,,,,,,,,,,,,,,,,,,,,,,,,,,,,,,,,,,,,,,,,,,,,,,,,,,,,,,1912.179999999993,,form submission,,,,unhealthy,,chocolate_truffle.png,,,,,,,,,,,,,,,chocolate truffle,,,,,,,,,,,,,,,,,,,,,,,,,,,,,,,,,,,,,,,,,,,,,,,,,,,,,,,,,false,,,,,,,,,248540,248540,246611.16,246613,246627.82,248567.16,,,,100
rating_sequence,flow.Sequence,2_4_2_1_8,2021-05-24T16:13:19.413Z,,,,,,,,,,,,,,,,,,,,,,,,,,,,,,,,,,,,,,,,,,,,,,,,,,,,,,,,,,,,,,,,,,,,,,,,,,,,,,,,,,,,,,,,,,,,,,,,,,,,,,,,,,,,,,,,,,,,2415.359999999986,,completion,,,,unhealthy,,chocolate_truffle.png,,,,,,,,,,,,,,,chocolate truffle,,,,,,,,,,,,,,,,,,,,,,,,,,,,,,,,,,,,,,,,,,,,,,,,,,,,,,,,,false,,,,,,,,,248540,248540,246107.98,246109,246124.64,248567.16,,,,
fixCross,canvas.Screen,2_4_2_1_9_0,2021-05-24T16:13:19.928Z,,,,,,,,,,,,,,,,,,,,,,,,,,,,,,,,,,,,,,,,,,,,,,,,,,,,,,,,,,,,,,,,,,,,,,,,,,,,,,,,,,,,,,,,,,,,,,,,,,,,,,,,,,,,,,,,,,,,502.5599999999977,,timeout,,,,healthy,,strawberry.png,,,,,,,,,,,,,,,strawberry,,,,,,,,,,,,,,,,,,,,,,,,,,,,,,,,,,,,,,,,,,,,,,,,,,,,,,,,,false,,,,,,,,,249056,249053.06,248550.5,248541,248567.16,249069.72,,,,
Rating,html.Form,2_4_2_1_9_1,2021-05-24T16:13:21.981Z,,,,,,,,,,,,,,,,,,,,,,,,,,,,,,,,,,,,,,,,,,,,,,,,,,,,,,,,,,,,,,,,,,,,,,,,,,,,,,,,,,,,,,,,,,,,,,,,,,,,,,,,,,,,,,,,,,,,2037.2799999999988,,form submission,,,,healthy,,strawberry.png,,,,,,,,,,,,,,,strawberry,,,,,,,,,,,,,,,,,,,,,,,,,,,,,,,,,,,,,,,,,,,,,,,,,,,,,,,,,false,,,,,,,,,251108,251107,249053.06,249056,249069.72,251127.4,,,,83
rating_sequence,flow.Sequence,2_4_2_1_9,2021-05-24T16:13:21.981Z,,,,,,,,,,,,,,,,,,,,,,,,,,,,,,,,,,,,,,,,,,,,,,,,,,,,,,,,,,,,,,,,,,,,,,,,,,,,,,,,,,,,,,,,,,,,,,,,,,,,,,,,,,,,,,,,,,,,2539.8399999999965,,completion,,,,healthy,,strawberry.png,,,,,,,,,,,,,,,strawberry,,,,,,,,,,,,,,,,,,,,,,,,,,,,,,,,,,,,,,,,,,,,,,,,,,,,,,,,,false,,,,,,,,,251108,251107,248550.5,248541,248567.16,251127.4,,,,
fixCross,canvas.Screen,2_4_2_1_10_0,2021-05-24T16:13:22.487Z,,,,,,,,,,,,,,,,,,,,,,,,,,,,,,,,,,,,,,,,,,,,,,,,,,,,,,,,,,,,,,,,,,,,,,,,,,,,,,,,,,,,,,,,,,,,,,,,,,,,,,,,,,,,,,,,,,,,501.45999999999185,,timeout,,,,unhealthy,,maltesers.png,,,,,,,,,,,,,,,malteser,,,,,,,,,,,,,,,,,,,,,,,,,,,,,,,,,,,,,,,,,,,,,,,,,,,,,,,,,false,,,,,,,,,251614,251612.2,251110.72,251108,251127.4,251628.86,,,,
Rating,html.Form,2_4_2_1_10_1,2021-05-24T16:13:25.322Z,,,,,,,,,,,,,,,,,,,,,,,,,,,,,,,,,,,,,,,,,,,,,,,,,,,,,,,,,,,,,,,,,,,,,,,,,,,,,,,,,,,,,,,,,,,,,,,,,,,,,,,,,,,,,,,,,,,,2819.140000000014,,form submission,,,,unhealthy,,maltesers.png,,,,,,,,,,,,,,,malteser,,,,,,,,,,,,,,,,,,,,,,,,,,,,,,,,,,,,,,,,,,,,,,,,,,,,,,,,,false,,,,,,,,,254448,254448,251612.2,251615,251628.86,254471.68,,,,93
rating_sequence,flow.Sequence,2_4_2_1_10,2021-05-24T16:13:25.322Z,,,,,,,,,,,,,,,,,,,,,,,,,,,,,,,,,,,,,,,,,,,,,,,,,,,,,,,,,,,,,,,,,,,,,,,,,,,,,,,,,,,,,,,,,,,,,,,,,,,,,,,,,,,,,,,,,,,,3320.600000000006,,completion,,,,unhealthy,,maltesers.png,,,,,,,,,,,,,,,malteser,,,,,,,,,,,,,,,,,,,,,,,,,,,,,,,,,,,,,,,,,,,,,,,,,,,,,,,,,false,,,,,,,,,254449,254448,251110.72,251108,251127.4,254471.68,,,,
fixCross,canvas.Screen,2_4_2_1_11_0,2021-05-24T16:13:25.831Z,,,,,,,,,,,,,,,,,,,,,,,,,,,,,,,,,,,,,,,,,,,,,,,,,,,,,,,,,,,,,,,,,,,,,,,,,,,,,,,,,,,,,,,,,,,,,,,,,,,,,,,,,,,,,,,,,,,,502.38000000000466,,timeout,,,,unhealthy,,liqorice.png,,,,,,,,,,,,,,,liquorice,,,,,,,,,,,,,,,,,,,,,,,,,,,,,,,,,,,,,,,,,,,,,,,,,,,,,,,,,false,,,,,,,,,254958,254957.4,254455,254449,254471.68,254974.06,,,,
Rating,html.Form,2_4_2_1_11_1,2021-05-24T16:13:29.632Z,,,,,,,,,,,,,,,,,,,,,,,,,,,,,,,,,,,,,,,,,,,,,,,,,,,,,,,,,,,,,,,,,,,,,,,,,,,,,,,,,,,,,,,,,,,,,,,,,,,,,,,,,,,,,,,,,,,,3784.9400000000023,,form submission,,,,unhealthy,,liqorice.png,,,,,,,,,,,,,,,liquorice,,,,,,,,,,,,,,,,,,,,,,,,,,,,,,,,,,,,,,,,,,,,,,,,,,,,,,,,,false,,,,,,,,,258760,258759,254957.4,254959,254974.06,258786.94,,,,29
rating_sequence,flow.Sequence,2_4_2_1_11,2021-05-24T16:13:29.632Z,,,,,,,,,,,,,,,,,,,,,,,,,,,,,,,,,,,,,,,,,,,,,,,,,,,,,,,,,,,,,,,,,,,,,,,,,,,,,,,,,,,,,,,,,,,,,,,,,,,,,,,,,,,,,,,,,,,,4287.320000000007,,completion,,,,unhealthy,,liqorice.png,,,,,,,,,,,,,,,liquorice,,,,,,,,,,,,,,,,,,,,,,,,,,,,,,,,,,,,,,,,,,,,,,,,,,,,,,,,,false,,,,,,,,,258760,258759,254455,254449,254471.68,258786.94,,,,
fixCross,canvas.Screen,2_4_2_1_12_0,2021-05-24T16:13:30.146Z,,,,,,,,,,,,,,,,,,,,,,,,,,,,,,,,,,,,,,,,,,,,,,,,,,,,,,,,,,,,,,,,,,,,,,,,,,,,,,,,,,,,,,,,,,,,,,,,,,,,,,,,,,,,,,,,,,,,502.4800000000105,,timeout,,,,healthy,,apple.png,,,,,,,,,,,,,,,apple,,,,,,,,,,,,,,,,,,,,,,,,,,,,,,,,,,,,,,,,,,,,,,,,,,,,,,,,,false,,,,,,,,,259274,259272.74,258770.28,258760,258786.94,259289.42,,,,
Rating,html.Form,2_4_2_1_12_1,2021-05-24T16:13:33.866Z,,,,,,,,,,,,,,,,,,,,,,,,,,,,,,,,,,,,,,,,,,,,,,,,,,,,,,,,,,,,,,,,,,,,,,,,,,,,,,,,,,,,,,,,,,,,,,,,,,,,,,,,,,,,,,,,,,,,3702.579999999987,,form submission,,,,healthy,,apple.png,,,,,,,,,,,,,,,apple,,,,,,,,,,,,,,,,,,,,,,,,,,,,,,,,,,,,,,,,,,,,,,,,,,,,,,,,,false,,,,,,,,,262992,262992,259272.74,259274,259289.42,263019.4,,,,60
rating_sequence,flow.Sequence,2_4_2_1_12,2021-05-24T16:13:33.866Z,,,,,,,,,,,,,,,,,,,,,,,,,,,,,,,,,,,,,,,,,,,,,,,,,,,,,,,,,,,,,,,,,,,,,,,,,,,,,,,,,,,,,,,,,,,,,,,,,,,,,,,,,,,,,,,,,,,,4205.059999999998,,completion,,,,healthy,,apple.png,,,,,,,,,,,,,,,apple,,,,,,,,,,,,,,,,,,,,,,,,,,,,,,,,,,,,,,,,,,,,,,,,,,,,,,,,,false,,,,,,,,,262993,262992,258770.28,258760,258786.94,263019.4,,,,
fixCross,canvas.Screen,2_4_2_1_13_0,2021-05-24T16:13:34.379Z,,,,,,,,,,,,,,,,,,,,,,,,,,,,,,,,,,,,,,,,,,,,,,,,,,,,,,,,,,,,,,,,,,,,,,,,,,,,,,,,,,,,,,,,,,,,,,,,,,,,,,,,,,,,,,,,,,,,501.9199999999837,,timeout,,,,healthy,,raspberry.png,,,,,,,,,,,,,,,raspberry,,,,,,,,,,,,,,,,,,,,,,,,,,,,,,,,,,,,,,,,,,,,,,,,,,,,,,,,,false,,,,,,,,,263507,263504.66,263002.72,262993,263019.4,263521.32,,,,
Rating,html.Form,2_4_2_1_13_1,2021-05-24T16:13:38.020Z,,,,,,,,,,,,,,,,,,,,,,,,,,,,,,,,,,,,,,,,,,,,,,,,,,,,,,,,,,,,,,,,,,,,,,,,,,,,,,,,,,,,,,,,,,,,,,,,,,,,,,,,,,,,,,,,,,,,3625.679999999993,,form submission,,,,healthy,,raspberry.png,,,,,,,,,,,,,,,raspberry,,,,,,,,,,,,,,,,,,,,,,,,,,,,,,,,,,,,,,,,,,,,,,,,,,,,,,,,,false,,,,,,,,,267147,267147,263504.66,263507,263521.32,267166.42,,,,91
rating_sequence,flow.Sequence,2_4_2_1_13,2021-05-24T16:13:38.020Z,,,,,,,,,,,,,,,,,,,,,,,,,,,,,,,,,,,,,,,,,,,,,,,,,,,,,,,,,,,,,,,,,,,,,,,,,,,,,,,,,,,,,,,,,,,,,,,,,,,,,,,,,,,,,,,,,,,,4127.599999999977,,completion,,,,healthy,,raspberry.png,,,,,,,,,,,,,,,raspberry,,,,,,,,,,,,,,,,,,,,,,,,,,,,,,,,,,,,,,,,,,,,,,,,,,,,,,,,,false,,,,,,,,,267147,267147,263002.72,262993,263019.4,267166.42,,,,
fixCross,canvas.Screen,2_4_2_1_14_0,2021-05-24T16:13:38.527Z,,,,,,,,,,,,,,,,,,,,,,,,,,,,,,,,,,,,,,,,,,,,,,,,,,,,,,,,,,,,,,,,,,,,,,,,,,,,,,,,,,,,,,,,,,,,,,,,,,,,,,,,,,,,,,,,,,,,502.7600000000093,,timeout,,,,healthy,,cherry.png,,,,,,,,,,,,,,,cherry,,,,,,,,,,,,,,,,,,,,,,,,,,,,,,,,,,,,,,,,,,,,,,,,,,,,,,,,,false,,,,,,,,,267654,267652.52,267149.76,267148,267166.42,267669.18,,,,
Rating,html.Form,2_4_2_1_14_1,2021-05-24T16:13:41.244Z,,,,,,,,,,,,,,,,,,,,,,,,,,,,,,,,,,,,,,,,,,,,,,,,,,,,,,,,,,,,,,,,,,,,,,,,,,,,,,,,,,,,,,,,,,,,,,,,,,,,,,,,,,,,,,,,,,,,2701.820000000007,,form submission,,,,healthy,,cherry.png,,,,,,,,,,,,,,,cherry,,,,,,,,,,,,,,,,,,,,,,,,,,,,,,,,,,,,,,,,,,,,,,,,,,,,,,,,,false,,,,,,,,,270371,270371,267652.52,267655,267669.18,270395.58,,,,87
rating_sequence,flow.Sequence,2_4_2_1_14,2021-05-24T16:13:41.244Z,,,,,,,,,,,,,,,,,,,,,,,,,,,,,,,,,,,,,,,,,,,,,,,,,,,,,,,,,,,,,,,,,,,,,,,,,,,,,,,,,,,,,,,,,,,,,,,,,,,,,,,,,,,,,,,,,,,,3204.5800000000163,,completion,,,,healthy,,cherry.png,,,,,,,,,,,,,,,cherry,,,,,,,,,,,,,,,,,,,,,,,,,,,,,,,,,,,,,,,,,,,,,,,,,,,,,,,,,false,,,,,,,,,270371,270371,267149.76,267147,267166.42,270395.58,,,,
fixCross,canvas.Screen,2_4_2_1_15_0,2021-05-24T16:13:41.755Z,,,,,,,,,,,,,,,,,,,,,,,,,,,,,,,,,,,,,,,,,,,,,,,,,,,,,,,,,,,,,,,,,,,,,,,,,,,,,,,,,,,,,,,,,,,,,,,,,,,,,,,,,,,,,,,,,,,,501.85999999998603,,timeout,,,,healthy,,blueberry.png,,,,,,,,,,,,,,,blueberry,,,,,,,,,,,,,,,,,,,,,,,,,,,,,,,,,,,,,,,,,,,,,,,,,,,,,,,,,false,,,,,,,,,270882,270880.78,270378.92,270373,270395.58,270897.44,,,,
Rating,html.Form,2_4_2_1_15_1,2021-05-24T16:13:44.290Z,,,,,,,,,,,,,,,,,,,,,,,,,,,,,,,,,,,,,,,,,,,,,,,,,,,,,,,,,,,,,,,,,,,,,,,,,,,,,,,,,,,,,,,,,,,,,,,,,,,,,,,,,,,,,,,,,,,,2518.5599999999977,,form submission,,,,healthy,,blueberry.png,,,,,,,,,,,,,,,blueberry,,,,,,,,,,,,,,,,,,,,,,,,,,,,,,,,,,,,,,,,,,,,,,,,,,,,,,,,,false,,,,,,,,,273417,273416,270880.78,270883,270897.44,273439.76,,,,92
rating_sequence,flow.Sequence,2_4_2_1_15,2021-05-24T16:13:44.290Z,,,,,,,,,,,,,,,,,,,,,,,,,,,,,,,,,,,,,,,,,,,,,,,,,,,,,,,,,,,,,,,,,,,,,,,,,,,,,,,,,,,,,,,,,,,,,,,,,,,,,,,,,,,,,,,,,,,,3020.4199999999837,,completion,,,,healthy,,blueberry.png,,,,,,,,,,,,,,,blueberry,,,,,,,,,,,,,,,,,,,,,,,,,,,,,,,,,,,,,,,,,,,,,,,,,,,,,,,,,false,,,,,,,,,273417,273416,270378.92,270372,270395.58,273439.76,,,,
fixCross,canvas.Screen,2_4_2_1_16_0,2021-05-24T16:13:44.798Z,,,,,,,,,,,,,,,,,,,,,,,,,,,,,,,,,,,,,,,,,,,,,,,,,,,,,,,,,,,,,,,,,,,,,,,,,,,,,,,,,,,,,,,,,,,,,,,,,,,,,,,,,,,,,,,,,,,,501.85999999998603,,timeout,,,,healthy,,grape.png,,,,,,,,,,,,,,,grape,,,,,,,,,,,,,,,,,,,,,,,,,,,,,,,,,,,,,,,,,,,,,,,,,,,,,,,,,false,,,,,,,,,273926,273924.96,273423.1,273418,273439.76,273941.62,,,,
Rating,html.Form,2_4_2_1_16_1,2021-05-24T16:13:47.133Z,,,,,,,,,,,,,,,,,,,,,,,,,,,,,,,,,,,,,,,,,,,,,,,,,,,,,,,,,,,,,,,,,,,,,,,,,,,,,,,,,,,,,,,,,,,,,,,,,,,,,,,,,,,,,,,,,,,,2318.3800000000047,,form submission,,,,healthy,,grape.png,,,,,,,,,,,,,,,grape,,,,,,,,,,,,,,,,,,,,,,,,,,,,,,,,,,,,,,,,,,,,,,,,,,,,,,,,,false,,,,,,,,,276260,276260,273924.96,273926,273941.62,276283.12,,,,94
rating_sequence,flow.Sequence,2_4_2_1_16,2021-05-24T16:13:47.133Z,,,,,,,,,,,,,,,,,,,,,,,,,,,,,,,,,,,,,,,,,,,,,,,,,,,,,,,,,,,,,,,,,,,,,,,,,,,,,,,,,,,,,,,,,,,,,,,,,,,,,,,,,,,,,,,,,,,,2820.2399999999907,,completion,,,,healthy,,grape.png,,,,,,,,,,,,,,,grape,,,,,,,,,,,,,,,,,,,,,,,,,,,,,,,,,,,,,,,,,,,,,,,,,,,,,,,,,false,,,,,,,,,276260,276260,273423.1,273418,273439.76,276283.12,,,,
fixCross,canvas.Screen,2_4_2_1_17_0,2021-05-24T16:13:47.643Z,,,,,,,,,,,,,,,,,,,,,,,,,,,,,,,,,,,,,,,,,,,,,,,,,,,,,,,,,,,,,,,,,,,,,,,,,,,,,,,,,,,,,,,,,,,,,,,,,,,,,,,,,,,,,,,,,,,,501.9799999999814,,timeout,,,,healthy,,pear.png,,,,,,,,,,,,,,,pear,,,,,,,,,,,,,,,,,,,,,,,,,,,,,,,,,,,,,,,,,,,,,,,,,,,,,,,,,false,,,,,,,,,276770,276768.44,276266.44,276261,276283.12,276785.1,,,,
Rating,html.Form,2_4_2_1_17_1,2021-05-24T16:13:51.217Z,,,,,,,,,,,,,,,,,,,,,,,,,,,,,,,,,,,,,,,,,,,,,,,,,,,,,,,,,,,,,,,,,,,,,,,,,,,,,,,,,,,,,,,,,,,,,,,,,,,,,,,,,,,,,,,,,,,,3558.9000000000233,,form submission,,,,healthy,,pear.png,,,,,,,,,,,,,,,pear,,,,,,,,,,,,,,,,,,,,,,,,,,,,,,,,,,,,,,,,,,,,,,,,,,,,,,,,,false,,,,,,,,,280344,280344,276768.44,276770,276785.1,280363.6,,,,69
rating_sequence,flow.Sequence,2_4_2_1_17,2021-05-24T16:13:51.217Z,,,,,,,,,,,,,,,,,,,,,,,,,,,,,,,,,,,,,,,,,,,,,,,,,,,,,,,,,,,,,,,,,,,,,,,,,,,,,,,,,,,,,,,,,,,,,,,,,,,,,,,,,,,,,,,,,,,,4060.8800000000047,,completion,,,,healthy,,pear.png,,,,,,,,,,,,,,,pear,,,,,,,,,,,,,,,,,,,,,,,,,,,,,,,,,,,,,,,,,,,,,,,,,,,,,,,,,false,,,,,,,,,280344,280344,276266.44,276260,276283.12,280363.6,,,,
rating_loop,flow.Loop,2_4_2_1,2021-05-24T16:13:51.217Z,,,,,,,,,,,,,,,,,,,,,,,,,,,,,,,,,,,,,,,,,,,,,,,,,,,,,,,,,,,,,,,,,,,,,,,,,,,,,,,,,,,,,,,,,,,,,,,,,,,,,,,,,,,,,,,,,,,,78441.29999999999,,completion,,,,,,,,,,,,,,,,,,,,,,,,,,,,,,,,,,,,,,,,,,,,,,,,,,,,,,,,,,,,,,,,,,,,,,,,,,,,,,false,,,,,,,,,280344,280344,201890.14,201889,201902.7,280363.6,,,,
data_transmission,html.Screen,2_4_2_2,2021-05-24T16:13:51.219Z,,,,,,,,,,,,,,,,,,,,,,,,,,,,,,,,,,,,,,,,,,,,,,,,,,,,,,,,,,,,,,,,,,,,,,,,,,,,,,,,,,,,,,,,,,,,,,,,,,,,,,,,,,,,,,,,,,,,NaN,,no compatible backend,,,,,,,,,,,,,,,Transferring data,,,,,,,,,,,,,,,,,,,,,,,,,,,,,,,,,,,,,,,,,,,,,,,,,,,,,,,,,,,,,,,false,,,Please wait a second…,,,,,,280346,280346,,280344,,280363.6,,,,
instructions,html.Screen,2_4_2_3,2021-05-24T16:15:59.090Z,,,,,,,,,,,,,,,,,,,,,,,,,,,,,,,,,,,,,,,,,,,,,,,,,,,,,,,,,,,,,,,,,,,,,,,,,,,,,,,,,,,,,,,,,,,,,,,,,,,,,,,,,,,,,,,,,,,,127852.40000000002,,done,,,,,,,,,,,,,,,,,,,,,,,,,,,,,,,,,,,,,,,,,,,,,,,,,,,,,,,,,,,,,,,,,,,,,,,,,,,,,,false,,,,,,,,,408217,408216,280346.94,280346,280363.6,408251.2,,,,
Q1,html.Screen,2_4_2_4_0,2021-05-24T16:16:03.416Z,,,,,,,,,,,,,,,,,,,,,,,,,,,,,,,,,,,,,,,,,,,,,,,,,,,,,,,,,,,,,,,,,,,,,,,,,,,,,,,,,,,,,,,,,,,,,,,,,,,,,,,,,,,,,,,,false,input_Q1==3,,,4271.799999999988,,response,,,,,,,,,,,,,,,,,,,,,,,,,Q1_i3,Q1_i2,Q1_i4,Q1_i1,3,2,4,1,correct,false,false,false,,,,,,,,,,,,,,,,,,,,,,,,,,,,,,,,,,,,,,,,,click #Q1_i3,false,,,,,,,,,412543,412523,408234.54,408219,408251.2,412566.54,,,,
Q1_correct,html.Screen,2_4_2_4_1,2021-05-24T16:16:04.426Z,,,,,,,,,,,,,,,,,,,,,,,,,,,,,,,,,,,,,,,,,,,,,,,,,,,,,,,,,,,,,,,,,,,,,,,,,,,,,,,,,,,,,,,,,,,,,,,,,,,,,,,,,,,,,,,,,,,,973.460000000021,,response,,,,,,,,,,,,,,,,,,,,,,,,,,,,,,,,,,,,,,,,,,,,,,,,,,,,,,,,,,,,,,,,,,,,,,,,,,,,,keypress,false,,,,,,,,,413554,413540,412549.88,412544,412566.54,413587.16,,,,
Q2,html.Screen,2_4_2_4_2,2021-05-24T16:16:09.132Z,,,,,,,,,,,,,,,,,,,,,,,,,,,,,,,,,,,,,,,,,,,,,,,,,,,,,,,,,,,,,,,,,,,,,,,,,,,,,,,,,,,,,,,,,,,,,,,,,,,,,,,,,,,,,,,,,,,,4655.840000000026,,response,,,,,,,,,,,,,,,,,,,,,,,,,,,,,,,,,,,,,Q2_i3,Q2_i2,Q2_i1,Same amount,Option 2,Option 1,same,opt2,correct,,,,,,,,,,,,,,,,,,,,,,,,,,,,,,,,click #Q2_i1,false,,,,,,,,,418259,418243,413570.48,413555,413587.16,418287.84,,,,
Q2_correct,html.Screen,2_4_2_4_3,2021-05-24T16:16:10.031Z,,,,,,,,,,,,,,,,,,,,,,,,,,,,,,,,,,,,,,,,,,,,,,,,,,,,,,,,,,,,,,,,,,,,,,,,,,,,,,,,,,,,,,,,,,,,,,,,,,,,,,,,,,,,,,,,,,,,860.1599999999744,,response,,,,,,,,,,,,,,,,,,,,,,,,,,,,,,,,,,,,,,,,,,,,,,,,,,,,,,,,,,,,,,,,,,,,,,,,,,,,,keypress,false,,,,,,,,,419157,419148,418271.16,418261,418287.84,419191.6,,,,
Q4,html.Screen,2_4_2_4_4,2021-05-24T16:16:17.193Z,,,,,,,,,,,,,,,,,,,,,,,,,,,,,,,,,,,,,,,,,,,,,,,,,,,,,,,,,,,,,,,,,,,,,,,,,,,,,,,,,,,,,,,,,,,,,,,,,,,,,,,,,,,,,,,,,,,,7112.400000000023,,response,,,,,,,,,,,,,,,,,,,,,,,,,,,,,,,,,,,,,,,,,,,,,,Q4_i4,Q4_i1,Q4_i2,Q4_i3,Press the space key,Press the arrow key that corresponds with the snack option I prefer,Indicate the number of food items in each snack option,Press the arrow key that corresponds with the snack option with more food items,pressspace,correct,indicate,morefood,,,,,,,,,,,,,,,,,,,,click #Q4_i1,false,,,,,,,,,426320,426304,419174.92,419158,419191.6,426349.92,,,,
Q4_correct,html.Screen,2_4_2_4_5,2021-05-24T16:16:26.036Z,,,,,,,,,,,,,,,,,,,,,,,,,,,,,,,,,,,,,,,,,,,,,,,,,,,,,,,,,,,,,,,,,,,,,,,,,,,,,,,,,,,,,,,,,,,,,,,,,,,,,,,,,,,,,,,,,,,,8799.080000000016,,response,,,,,,,,,,,,,,,,,,,,,,,,,,,,,,,,,,,,,,,,,,,,,,,,,,,,,,,,,,,,,,,,,,,,,,,,,,,,,keypress,false,,,,,,,,,435163,435149,426333.26,426321,426349.92,435197.66,,,,
Q5,html.Screen,2_4_2_4_6,2021-05-24T16:16:43.831Z,,,,,,,,,,,,,,,,,,,,,,,,,,,,,,,,,,,,,,,,,,,,,,,,,,,,,,,,,,,,,,,,,,,,,,,,,,,,,,,,,,,,,,,,,,,,,,,,,,,,,,,,,,,,,,,,,,,,17748.340000000026,,response,,,,,,,,,,,,,,,,,,,,,,,,,,,,,,,,,,,,,,,,,,,,,,,,,,,,,,,,,,Q5_i3,Q5_i1,Q5_i4,Q5_i2,There are more slices of kiwi in snack Option 1,Snack Option 2 has been chosen,Snack Option 1 has been chosen,There are more pieces of chocolate in snack Option 2,morekiwi1,correct,chose1,morechoc2,,,,,,,,click #Q5_i1,false,,,,,,,,,452958,452946,435181,435166,435197.66,452977.52,,,,
Q5_correct,html.Screen,2_4_2_4_7,2021-05-24T16:16:46.210Z,,,,,,,,,,,,,,,,,,,,,,,,,,,,,,,,,,,,,,,,,,,,,,,,,,,,,,,,,,,,,,,,,,,,,,,,,,,,,,,,,,,,,,,,,,,,,,,,,,,,,,,,,,,,,,,,,,,,2342.4799999999814,,response,,,,,,,,,,,,,,,,,,,,,,,,,,,,,,,,,,,,,,,,,,,,,,,,,,,,,,,,,,,,,,,,,,,,,,,,,,,,,keypress,false,,,,,,,,,455337,455320,452960.86,452958,452977.52,455368.66,,,,
practice_sequence,flow.Sequence,2_4_2_4,2021-05-24T16:16:46.212Z,,,,,,,,,,,,,,,,,,,,,,,,,,,,,,,,,,,,,,,,,,,,,,,,,,,,,,,,,,,,,,,,,,,,,,,,,,,,,,,,,,,,,,,,,,,,,,,,,,,,,,,,,,,,,,,,,,,,47068.79999999999,,completion,,,,,,,,,,,,,,,,,,,,,,,,,,,,,,,,,,,,,,,,,,,,,,,,,,,,,,,,,,,,,,,,,,,,,,,,,,,,,,false,,,,,,,,,455339,455320,408234.54,408218,408251.2,455368.66,,,,
final_instru,html.Screen,2_4_2_5,2021-05-24T16:17:01.267Z,,,,,,,,,,,,,,,,,,,,,,,,,,,,,,,,,,,,,,,,,,,,,,,,,,,,,,,,,,,,,,,,,,,,,,,,,,,,,,,,,,,,,,,,,,,,,,,,,,,,,,,,,,,,,,,,,,,,15023.340000000026,,done,,,,,,,,,,,,,,,,,,,,,,,,,,,,,,,,,,,,,,,,,,,,,,,,,,,,,,,,,,,,,,,,,,,,,,,,,,,,,,false,,,,,,,,,470393,470392,455352,455340,455368.66,470422.16,,,,
blank_screen,canvas.Screen,2_4_2_6_0,2021-05-24T16:17:03.288Z,,,,,,,,,,,,,,,,,,,,,,,,,,,,,,,,,,,,,,,,,,,,,,,,,,,,,,,,,,,,,,,,,,,,,,,,,,,,,,,,,,,,,,,,,,,,,,,,,,,,,,,,,,,,,,,,,,,,2040.780000000028,,timeout,,,,,,,,,,,,,,,,,,,,,,,,,,,,,,,,,,,,,,,,,,,,,,,,,,,,,,,,,,,,,,,,,,,,,,,,,,,,,,false,,,,,,,,,472415,472412.94,470405.5,470395,470422.16,472462.94,,,,
fixCross,canvas.Screen,2_4_2_6_1_0_0_0_0_0_0,2021-05-24T16:17:03.573Z,,,blank.png,"[""chocolate_truffle.png""]",blank.png,blank.png,blank.png,blank.png,blank.png,blank.png,blank.png,blank.png,blank.png,blank.png,blank.png,,,,,,,,,,,,,,,,,,,,,,,,,,,,,"[""chocolate_truffle.png""]","[""grape.png""]",PB15.png,,,,,,,,,,,0,6,"[""grape.png""]","[""grape.png""]","[""grape.png""]","[""grape.png""]","[""grape.png""]","[""grape.png""]",blank.png,PB18.png,PB18.png,"[""grape.png""]","[""grape.png""]","[""grape.png""]","[""grape.png""]",blank.png,blank.png,"[""grape.png""]","[""grape.png""]","[""grape.png""]","[""grape.png""]","[""grape.png""]","[""grape.png""]",1,"[""chocolate_truffle.png""]",blank.png,blank.png,blank.png,4,"[""grape.png""]","[""grape.png""]","[""grape.png""]","[""grape.png""]",blank.png,blank.png,PB15.png,,,,,,,,,,,1,,,,,,,,,,,,,1120.7399999999907,,timeout,,,,,,,,,,,,,3,,,,,,,,,,,,,,,,,,,,,,,,,,,,,,,,,,,,,,,,,,,,,,,,,,,,,,,,,"[""grape.png""]","[""chocolate_truffle.png""]",,,,1,,,false,,1,,,,,,,472701,472698.32,472412.94,472472,472462.94,473583.68,1,,,
timeout,canvas.Screen,2_4_2_6_1_0_0_0_0_0_1,2021-05-24T16:17:04.944Z,,,blank.png,"[""chocolate_truffle.png""]",blank.png,blank.png,blank.png,blank.png,blank.png,blank.png,blank.png,blank.png,blank.png,blank.png,blank.png,,,,,,,,,,,,,,,,,,,,,,,,,,,,,"[""chocolate_truffle.png""]","[""grape.png""]",PB15.png,,,,,,,,,,,0,6,"[""grape.png""]","[""grape.png""]","[""grape.png""]","[""grape.png""]","[""grape.png""]","[""grape.png""]",blank.png,PB18.png,PB18.png,"[""grape.png""]","[""grape.png""]","[""grape.png""]","[""grape.png""]",blank.png,blank.png,"[""grape.png""]","[""grape.png""]","[""grape.png""]","[""grape.png""]","[""grape.png""]","[""grape.png""]",1,"[""chocolate_truffle.png""]",blank.png,blank.png,blank.png,4,"[""grape.png""]","[""grape.png""]","[""grape.png""]","[""grape.png""]",blank.png,blank.png,PB15.png,,,,,,,,,,,1,,,,,,,,,,,,,1087.280000000028,,timeout,,,,,,,,,,,,,3,,,,,,,,,,,,,,,,,,,,,,,,,,,,,,,,,,,,,,,,,,,,,,,,,,,,,,,,,"[""grape.png""]","[""chocolate_truffle.png""]",,,,1,,,false,,1,,,,,,,474071,474069,472698.32,473560,473583.68,474670.96,,,,
choice,canvas.Screen,2_4_2_6_1_0_0_0_0_0_2,2021-05-24T16:17:06.067Z,,,blank.png,"[""chocolate_truffle.png""]",blank.png,blank.png,blank.png,blank.png,blank.png,blank.png,blank.png,blank.png,blank.png,blank.png,blank.png,,,,,,,,,,,,,,,,,,,,,,,,,,,,,"[""chocolate_truffle.png""]","[""grape.png""]",PB15.png,,,,,,,,,,,0,6,"[""grape.png""]","[""grape.png""]","[""grape.png""]","[""grape.png""]","[""grape.png""]","[""grape.png""]",blank.png,PB18.png,PB18.png,"[""grape.png""]","[""grape.png""]","[""grape.png""]","[""grape.png""]",blank.png,blank.png,"[""grape.png""]","[""grape.png""]","[""grape.png""]","[""grape.png""]","[""grape.png""]","[""grape.png""]",1,"[""chocolate_truffle.png""]",blank.png,blank.png,blank.png,4,"[""grape.png""]","[""grape.png""]","[""grape.png""]","[""grape.png""]",blank.png,blank.png,PB15.png,,,,,,,,,,,1,,,,,,,,,,,,,508.03999999997905,,response,,,,,,,,,,,,,3,,,,,,,,,,,,,,,,,,,,,,,,,,,,,,,,,,,,,,,,,,,,,,,,,,,,,,,,,"[""grape.png""]","[""chocolate_truffle.png""]",,,,1,left,keydown(ArrowLeft),false,,1,,,,,,,475194,475179,474069,474651,474670.96,475239.76,,1,,
square,canvas.Screen,2_4_2_6_1_0_0_0_0_0_3,2021-05-24T16:17:07.102Z,,,blank.png,"[""chocolate_truffle.png""]",blank.png,blank.png,blank.png,blank.png,blank.png,blank.png,blank.png,blank.png,blank.png,blank.png,blank.png,,,,,,,,,,,,,,,,,,,,,,,,,,,,,"[""chocolate_truffle.png""]","[""grape.png""]",PB15.png,,,,,,,,,,,0,6,"[""grape.png""]","[""grape.png""]","[""grape.png""]","[""grape.png""]","[""grape.png""]","[""grape.png""]",blank.png,PB18.png,PB18.png,"[""grape.png""]","[""grape.png""]","[""grape.png""]","[""grape.png""]",blank.png,blank.png,"[""grape.png""]","[""grape.png""]","[""grape.png""]","[""grape.png""]","[""grape.png""]","[""grape.png""]",1,"[""chocolate_truffle.png""]",blank.png,blank.png,blank.png,4,"[""grape.png""]","[""grape.png""]","[""grape.png""]","[""grape.png""]",blank.png,blank.png,PB15.png,,,,,,,,,,,1,,,#33ff3f,#808080,,,,,,,,,1003.6199999999953,,timeout,,,,,,,,,,,,,3,,,,,,,,,,,,,,,,,,,,,,,,,,,,,,,,,,,,,,,,,,,,,,,,,,,,,,,,,"[""grape.png""]","[""chocolate_truffle.png""]",,,,1,,,false,,1,,,,,black,white,476229,476226.72,475223.1,475213,475239.76,476243.38,,,,
ITI_late,canvas.Screen,2_4_2_6_1_0_0_0_0_0_4,2021-05-24T16:17:07.604Z,,,blank.png,"[""chocolate_truffle.png""]",blank.png,blank.png,blank.png,blank.png,blank.png,blank.png,blank.png,blank.png,blank.png,blank.png,blank.png,,,,,,,,,,,,,,,,,,,,,,,,,,,,,"[""chocolate_truffle.png""]","[""grape.png""]",PB15.png,,,,,,,,,,,0,6,"[""grape.png""]","[""grape.png""]","[""grape.png""]","[""grape.png""]","[""grape.png""]","[""grape.png""]",blank.png,PB18.png,PB18.png,"[""grape.png""]","[""grape.png""]","[""grape.png""]","[""grape.png""]",blank.png,blank.png,"[""grape.png""]","[""grape.png""]","[""grape.png""]","[""grape.png""]","[""grape.png""]","[""grape.png""]",1,"[""chocolate_truffle.png""]",blank.png,blank.png,blank.png,4,"[""grape.png""]","[""grape.png""]","[""grape.png""]","[""grape.png""]",blank.png,blank.png,PB15.png,,,,,,,,,,,1,,,,,,,,,,,,,501.9199999999837,,timeout,,,,,,,,,,,,white,3,,,,,,,,,,,,,,,,,,,,,,,,,,,,,,,,,,,,,,,,,,,,,,,,,,,,,,,,,"[""grape.png""]","[""chocolate_truffle.png""]",,,,1,,,false,,1,,,,,,,476731,476728.62,476226.72,476234,476243.38,476745.3,,,,
choice_sequence,flow.Sequence,2_4_2_6_1_0_0_0_0_0,2021-05-24T16:17:07.606Z,,,blank.png,"[""chocolate_truffle.png""]",blank.png,blank.png,blank.png,blank.png,blank.png,blank.png,blank.png,blank.png,blank.png,blank.png,blank.png,,,,,,,,,,,,,,,,,,,,,,,,,,,,,"[""chocolate_truffle.png""]","[""grape.png""]",PB15.png,,,,,,,,,,,0,6,"[""grape.png""]","[""grape.png""]","[""grape.png""]","[""grape.png""]","[""grape.png""]","[""grape.png""]",blank.png,PB18.png,PB18.png,"[""grape.png""]","[""grape.png""]","[""grape.png""]","[""grape.png""]",blank.png,blank.png,"[""grape.png""]","[""grape.png""]","[""grape.png""]","[""grape.png""]","[""grape.png""]","[""grape.png""]",1,"[""chocolate_truffle.png""]",blank.png,blank.png,blank.png,4,"[""grape.png""]","[""grape.png""]","[""grape.png""]","[""grape.png""]",blank.png,blank.png,PB15.png,,,,,,,,,,,1,,,,,,,,,,,,,4265.679999999993,,completion,,,,,,,,,,,,,3,,,,,,,,,,,,,,,,,,,,,,,,,,,,,,,,,,,,,,,,,,,,,,,,,,,,,,,,,"[""grape.png""]","[""chocolate_truffle.png""]",,,,1,,,false,,1,,,,,,,476734,476728.62,472412.94,472469,472462.94,476745.3,,,,
fixCross,canvas.Screen,2_4_2_6_1_0_0_0_0_1_0,2021-05-24T16:17:07.905Z,,,blank.png,blank.png,blank.png,blank.png,blank.png,blank.png,blank.png,"[""chocolate_truffle.png""]",blank.png,blank.png,blank.png,blank.png,blank.png,,,,,,,,,,,,,,,,,,,,,,,,,,,,,"[""chocolate_truffle.png""]","[""grape.png""]",PB18.png,,,,,,,,,,,0,6,"[""grape.png""]","[""grape.png""]","[""grape.png""]","[""grape.png""]","[""grape.png""]","[""grape.png""]",blank.png,PB18.png,PB14.png,"[""grape.png""]","[""grape.png""]","[""grape.png""]","[""grape.png""]","[""grape.png""]","[""grape.png""]","[""grape.png""]","[""grape.png""]","[""grape.png""]",blank.png,blank.png,blank.png,1,"[""chocolate_truffle.png""]",blank.png,blank.png,blank.png,3,"[""grape.png""]","[""grape.png""]","[""grape.png""]",blank.png,blank.png,blank.png,PB14.png,,,,,,,,,,,1,,,,,,,,,,,,,568.460000000021,,timeout,,,,,,,,,,,,,4,,,,,,,,,,,,,,,,,,,,,,,,,,,,,,,,,,,,,,,,,,,,,,,,,,,,,,,,,"[""grape.png""]","[""chocolate_truffle.png""]",,,,1,,,false,,1,,,,,,,477032,477030.42,476728.62,476753,476745.3,477313.76,2,,,
timeout,canvas.Screen,2_4_2_6_1_0_0_0_0_1_1,2021-05-24T16:17:08.674Z,,,blank.png,blank.png,blank.png,blank.png,blank.png,blank.png,blank.png,"[""chocolate_truffle.png""]",blank.png,blank.png,blank.png,blank.png,blank.png,,,,,,,,,,,,,,,,,,,,,,,,,,,,,"[""chocolate_truffle.png""]","[""grape.png""]",PB18.png,,,,,,,,,,,0,6,"[""grape.png""]","[""grape.png""]","[""grape.png""]","[""grape.png""]","[""grape.png""]","[""grape.png""]",blank.png,PB18.png,PB14.png,"[""grape.png""]","[""grape.png""]","[""grape.png""]","[""grape.png""]","[""grape.png""]","[""grape.png""]","[""grape.png""]","[""grape.png""]","[""grape.png""]",blank.png,blank.png,blank.png,1,"[""chocolate_truffle.png""]",blank.png,blank.png,blank.png,3,"[""grape.png""]","[""grape.png""]","[""grape.png""]",blank.png,blank.png,blank.png,PB14.png,,,,,,,,,,,1,,,,,,,,,,,,,501.9799999999814,,timeout,,,,,,,,,,,,,4,,,,,,,,,,,,,,,,,,,,,,,,,,,,,,,,,,,,,,,,,,,,,,,,,,,,,,,,,"[""grape.png""]","[""chocolate_truffle.png""]",,,,1,,,false,,1,,,,,,,477802,477799.08,477030.42,477307,477313.76,477815.74,,,,
choice,canvas.Screen,2_4_2_6_1_0_0_0_0_1_2,2021-05-24T16:17:09.731Z,,,blank.png,blank.png,blank.png,blank.png,blank.png,blank.png,blank.png,"[""chocolate_truffle.png""]",blank.png,blank.png,blank.png,blank.png,blank.png,,,,,,,,,,,,,,,,,,,,,,,,,,,,,"[""chocolate_truffle.png""]","[""grape.png""]",PB18.png,,,,,,,,,,,0,6,"[""grape.png""]","[""grape.png""]","[""grape.png""]","[""grape.png""]","[""grape.png""]","[""grape.png""]",blank.png,PB18.png,PB14.png,"[""grape.png""]","[""grape.png""]","[""grape.png""]","[""grape.png""]","[""grape.png""]","[""grape.png""]","[""grape.png""]","[""grape.png""]","[""grape.png""]",blank.png,blank.png,blank.png,1,"[""chocolate_truffle.png""]",blank.png,blank.png,blank.png,3,"[""grape.png""]","[""grape.png""]","[""grape.png""]",blank.png,blank.png,blank.png,PB14.png,,,,,,,,,,,1,,,,,,,,,,,,,1036.2600000000093,,response,,,,,,,,,,,,,4,,,,,,,,,,,,,,,,,,,,,,,,,,,,,,,,,,,,,,,,,,,,,,,,,,,,,,,,,"[""grape.png""]","[""chocolate_truffle.png""]",,,,1,right,keydown(ArrowRight),false,,1,,,,,,,478859,478852,477799.08,477829,477815.74,478902.84,,2,,
square,canvas.Screen,2_4_2_6_1_0_0_0_0_1_3,2021-05-24T16:17:10.766Z,,,blank.png,blank.png,blank.png,blank.png,blank.png,blank.png,blank.png,"[""chocolate_truffle.png""]",blank.png,blank.png,blank.png,blank.png,blank.png,,,,,,,,,,,,,,,,,,,,,,,,,,,,,"[""chocolate_truffle.png""]","[""grape.png""]",PB18.png,,,,,,,,,,,0,6,"[""grape.png""]","[""grape.png""]","[""grape.png""]","[""grape.png""]","[""grape.png""]","[""grape.png""]",blank.png,PB18.png,PB14.png,"[""grape.png""]","[""grape.png""]","[""grape.png""]","[""grape.png""]","[""grape.png""]","[""grape.png""]","[""grape.png""]","[""grape.png""]","[""grape.png""]",blank.png,blank.png,blank.png,1,"[""chocolate_truffle.png""]",blank.png,blank.png,blank.png,3,"[""grape.png""]","[""grape.png""]","[""grape.png""]",blank.png,blank.png,blank.png,PB14.png,,,,,,,,,,,1,,,#808080,#33ff3f,,,,,,,,,1003.8799999999464,,timeout,,,,,,,,,,,,,4,,,,,,,,,,,,,,,,,,,,,,,,,,,,,,,,,,,,,,,,,,,,,,,,,,,,,,,,,"[""grape.png""]","[""chocolate_truffle.png""]",,,,1,,,false,,1,,,,,white,black,479893,479890.04,478886.18,478884,478902.84,479906.72,,,,
ITI_late,canvas.Screen,2_4_2_6_1_0_0_0_0_1_4,2021-05-24T16:17:11.267Z,,,blank.png,blank.png,blank.png,blank.png,blank.png,blank.png,blank.png,"[""chocolate_truffle.png""]",blank.png,blank.png,blank.png,blank.png,blank.png,,,,,,,,,,,,,,,,,,,,,,,,,,,,,"[""chocolate_truffle.png""]","[""grape.png""]",PB18.png,,,,,,,,,,,0,6,"[""grape.png""]","[""grape.png""]","[""grape.png""]","[""grape.png""]","[""grape.png""]","[""grape.png""]",blank.png,PB18.png,PB14.png,"[""grape.png""]","[""grape.png""]","[""grape.png""]","[""grape.png""]","[""grape.png""]","[""grape.png""]","[""grape.png""]","[""grape.png""]","[""grape.png""]",blank.png,blank.png,blank.png,1,"[""chocolate_truffle.png""]",blank.png,blank.png,blank.png,3,"[""grape.png""]","[""grape.png""]","[""grape.png""]",blank.png,blank.png,blank.png,PB14.png,,,,,,,,,,,1,,,,,,,,,,,,,501.9000000000233,,timeout,,,,,,,,,,,,white,4,,,,,,,,,,,,,,,,,,,,,,,,,,,,,,,,,,,,,,,,,,,,,,,,,,,,,,,,,"[""grape.png""]","[""chocolate_truffle.png""]",,,,1,,,false,,1,,,,,,,480394,480391.96,479890.04,479898,479906.72,480408.62,,,,
choice_sequence,flow.Sequence,2_4_2_6_1_0_0_0_0_1,2021-05-24T16:17:11.267Z,,,blank.png,blank.png,blank.png,blank.png,blank.png,blank.png,blank.png,"[""chocolate_truffle.png""]",blank.png,blank.png,blank.png,blank.png,blank.png,,,,,,,,,,,,,,,,,,,,,,,,,,,,,"[""chocolate_truffle.png""]","[""grape.png""]",PB18.png,,,,,,,,,,,0,6,"[""grape.png""]","[""grape.png""]","[""grape.png""]","[""grape.png""]","[""grape.png""]","[""grape.png""]",blank.png,PB18.png,PB14.png,"[""grape.png""]","[""grape.png""]","[""grape.png""]","[""grape.png""]","[""grape.png""]","[""grape.png""]","[""grape.png""]","[""grape.png""]","[""grape.png""]",blank.png,blank.png,blank.png,1,"[""chocolate_truffle.png""]",blank.png,blank.png,blank.png,3,"[""grape.png""]","[""grape.png""]","[""grape.png""]",blank.png,blank.png,blank.png,PB14.png,,,,,,,,,,,1,,,,,,,,,,,,,3646.6600000000326,,completion,,,,,,,,,,,,,4,,,,,,,,,,,,,,,,,,,,,,,,,,,,,,,,,,,,,,,,,,,,,,,,,,,,,,,,,"[""grape.png""]","[""chocolate_truffle.png""]",,,,1,,,false,,1,,,,,,,480395,480391.96,476728.62,476750,476745.3,480408.62,,,,
fixCross,canvas.Screen,2_4_2_6_1_0_0_0_0_2_0,2021-05-24T16:17:11.668Z,,,blank.png,"[""chocolate_truffle.png""]",blank.png,blank.png,blank.png,blank.png,blank.png,blank.png,blank.png,blank.png,blank.png,blank.png,blank.png,,,,,,,,,,,,,,,,,,,,,,,,,,,,,"[""chocolate_truffle.png""]","[""grape.png""]",PB17.png,,,,,,,,,,,0,6,"[""grape.png""]","[""grape.png""]","[""grape.png""]","[""grape.png""]","[""grape.png""]","[""grape.png""]",blank.png,PB18.png,PB18.png,"[""grape.png""]","[""grape.png""]","[""grape.png""]","[""grape.png""]","[""grape.png""]","[""grape.png""]","[""grape.png""]","[""grape.png""]","[""grape.png""]","[""grape.png""]","[""grape.png""]","[""grape.png""]",1,"[""chocolate_truffle.png""]",blank.png,blank.png,blank.png,6,"[""grape.png""]","[""grape.png""]","[""grape.png""]","[""grape.png""]","[""grape.png""]","[""grape.png""]",PB17.png,,,,,,,,,,,1,,,,,,,,,,,,,701.820000000007,,timeout,,,,,,,,,,,,,3,,,,,,,,,,,,,,,,,,,,,,,,,,,,,,,,,,,,,,,,,,,,,,,,,,,,,,,,,"[""grape.png""]","[""chocolate_truffle.png""]",,,,1,,,false,,1,,,,,,,480795,480793.78,480391.96,480402,480408.62,481110.44,3,,,
timeout,canvas.Screen,2_4_2_6_1_0_0_0_0_2_1,2021-05-24T16:17:12.471Z,,,blank.png,"[""chocolate_truffle.png""]",blank.png,blank.png,blank.png,blank.png,blank.png,blank.png,blank.png,blank.png,blank.png,blank.png,blank.png,,,,,,,,,,,,,,,,,,,,,,,,,,,,,"[""chocolate_truffle.png""]","[""grape.png""]",PB17.png,,,,,,,,,,,0,6,"[""grape.png""]","[""grape.png""]","[""grape.png""]","[""grape.png""]","[""grape.png""]","[""grape.png""]",blank.png,PB18.png,PB18.png,"[""grape.png""]","[""grape.png""]","[""grape.png""]","[""grape.png""]","[""grape.png""]","[""grape.png""]","[""grape.png""]","[""grape.png""]","[""grape.png""]","[""grape.png""]","[""grape.png""]","[""grape.png""]",1,"[""chocolate_truffle.png""]",blank.png,blank.png,blank.png,6,"[""grape.png""]","[""grape.png""]","[""grape.png""]","[""grape.png""]","[""grape.png""]","[""grape.png""]",PB17.png,,,,,,,,,,,1,,,,,,,,,,,,,502.0599999999977,,timeout,,,,,,,,,,,,,3,,,,,,,,,,,,,,,,,,,,,,,,,,,,,,,,,,,,,,,,,,,,,,,,,,,,,,,,,"[""grape.png""]","[""chocolate_truffle.png""]",,,,1,,,false,,1,,,,,,,481598,481595.84,480793.78,481101,481110.44,481612.5,,,,
choice,canvas.Screen,2_4_2_6_1_0_0_0_0_2_2,2021-05-24T16:17:12.848Z,,,blank.png,"[""chocolate_truffle.png""]",blank.png,blank.png,blank.png,blank.png,blank.png,blank.png,blank.png,blank.png,blank.png,blank.png,blank.png,,,,,,,,,,,,,,,,,,,,,,,,,,,,,"[""chocolate_truffle.png""]","[""grape.png""]",PB17.png,,,,,,,,,,,0,6,"[""grape.png""]","[""grape.png""]","[""grape.png""]","[""grape.png""]","[""grape.png""]","[""grape.png""]",blank.png,PB18.png,PB18.png,"[""grape.png""]","[""grape.png""]","[""grape.png""]","[""grape.png""]","[""grape.png""]","[""grape.png""]","[""grape.png""]","[""grape.png""]","[""grape.png""]","[""grape.png""]","[""grape.png""]","[""grape.png""]",1,"[""chocolate_truffle.png""]",blank.png,blank.png,blank.png,6,"[""grape.png""]","[""grape.png""]","[""grape.png""]","[""grape.png""]","[""grape.png""]","[""grape.png""]",PB17.png,,,,,,,,,,,1,,,,,,,,,,,,,347.5,,response,,,,,,,,,,,,,3,,,,,,,,,,,,,,,,,,,,,,,,,,,,,,,,,,,,,,,,,,,,,,,,,,,,,,,,,"[""grape.png""]","[""chocolate_truffle.png""]",,,,1,left,keydown(ArrowLeft),false,,1,,,,,,,481975,481960,481595.84,481626,481612.5,482031.1,,3,,
square,canvas.Screen,2_4_2_6_1_0_0_0_0_2_3,2021-05-24T16:17:13.893Z,,,blank.png,"[""chocolate_truffle.png""]",blank.png,blank.png,blank.png,blank.png,blank.png,blank.png,blank.png,blank.png,blank.png,blank.png,blank.png,,,,,,,,,,,,,,,,,,,,,,,,,,,,,"[""chocolate_truffle.png""]","[""grape.png""]",PB17.png,,,,,,,,,,,0,6,"[""grape.png""]","[""grape.png""]","[""grape.png""]","[""grape.png""]","[""grape.png""]","[""grape.png""]",blank.png,PB18.png,PB18.png,"[""grape.png""]","[""grape.png""]","[""grape.png""]","[""grape.png""]","[""grape.png""]","[""grape.png""]","[""grape.png""]","[""grape.png""]","[""grape.png""]","[""grape.png""]","[""grape.png""]","[""grape.png""]",1,"[""chocolate_truffle.png""]",blank.png,blank.png,blank.png,6,"[""grape.png""]","[""grape.png""]","[""grape.png""]","[""grape.png""]","[""grape.png""]","[""grape.png""]",PB17.png,,,,,,,,,,,1,,,#33ff3f,#808080,,,,,,,,,1003.7400000000489,,timeout,,,,,,,,,,,,,3,,,,,,,,,,,,,,,,,,,,,,,,,,,,,,,,,,,,,,,,,,,,,,,,,,,,,,,,,"[""grape.png""]","[""chocolate_truffle.png""]",,,,1,,,false,,1,,,,,black,white,483021,483018.18,482014.44,482000,482031.1,483034.84,,,,
ITI_late,canvas.Screen,2_4_2_6_1_0_0_0_0_2_4,2021-05-24T16:17:14.897Z,,,blank.png,"[""chocolate_truffle.png""]",blank.png,blank.png,blank.png,blank.png,blank.png,blank.png,blank.png,blank.png,blank.png,blank.png,blank.png,,,,,,,,,,,,,,,,,,,,,,,,,,,,,"[""chocolate_truffle.png""]","[""grape.png""]",PB17.png,,,,,,,,,,,0,6,"[""grape.png""]","[""grape.png""]","[""grape.png""]","[""grape.png""]","[""grape.png""]","[""grape.png""]",blank.png,PB18.png,PB18.png,"[""grape.png""]","[""grape.png""]","[""grape.png""]","[""grape.png""]","[""grape.png""]","[""grape.png""]","[""grape.png""]","[""grape.png""]","[""grape.png""]","[""grape.png""]","[""grape.png""]","[""grape.png""]",1,"[""chocolate_truffle.png""]",blank.png,blank.png,blank.png,6,"[""grape.png""]","[""grape.png""]","[""grape.png""]","[""grape.png""]","[""grape.png""]","[""grape.png""]",PB17.png,,,,,,,,,,,1,,,,,,,,,,,,,1003.8199999999488,,timeout,,,,,,,,,,,,white,3,,,,,,,,,,,,,,,,,,,,,,,,,,,,,,,,,,,,,,,,,,,,,,,,,,,,,,,,,"[""grape.png""]","[""chocolate_truffle.png""]",,,,1,,,false,,1,,,,,,,484024,484022,483018.18,483025,483034.84,484038.66,,,,
choice_sequence,flow.Sequence,2_4_2_6_1_0_0_0_0_2,2021-05-24T16:17:14.897Z,,,blank.png,"[""chocolate_truffle.png""]",blank.png,blank.png,blank.png,blank.png,blank.png,blank.png,blank.png,blank.png,blank.png,blank.png,blank.png,,,,,,,,,,,,,,,,,,,,,,,,,,,,,"[""chocolate_truffle.png""]","[""grape.png""]",PB17.png,,,,,,,,,,,0,6,"[""grape.png""]","[""grape.png""]","[""grape.png""]","[""grape.png""]","[""grape.png""]","[""grape.png""]",blank.png,PB18.png,PB18.png,"[""grape.png""]","[""grape.png""]","[""grape.png""]","[""grape.png""]","[""grape.png""]","[""grape.png""]","[""grape.png""]","[""grape.png""]","[""grape.png""]","[""grape.png""]","[""grape.png""]","[""grape.png""]",1,"[""chocolate_truffle.png""]",blank.png,blank.png,blank.png,6,"[""grape.png""]","[""grape.png""]","[""grape.png""]","[""grape.png""]","[""grape.png""]","[""grape.png""]",PB17.png,,,,,,,,,,,1,,,,,,,,,,,,,3613.3800000000047,,completion,,,,,,,,,,,,,3,,,,,,,,,,,,,,,,,,,,,,,,,,,,,,,,,,,,,,,,,,,,,,,,,,,,,,,,,"[""grape.png""]","[""chocolate_truffle.png""]",,,,1,,,false,,1,,,,,,,484025,484022,480391.96,480400,480408.62,484038.66,,,,
fixCross,canvas.Screen,2_4_2_6_1_0_0_0_0_3_0,2021-05-24T16:17:15.549Z,,,blank.png,"[""chocolate_truffle.png""]",blank.png,blank.png,blank.png,blank.png,blank.png,blank.png,blank.png,blank.png,blank.png,blank.png,blank.png,,,,,,,,,,,,,,,,,,,,,,,,,,,,,"[""chocolate_truffle.png""]","[""grape.png""]",PB12.png,,,,,,,,,,,0,6,"[""grape.png""]","[""grape.png""]","[""grape.png""]","[""grape.png""]","[""grape.png""]","[""grape.png""]",blank.png,PB18.png,PB18.png,"[""grape.png""]","[""grape.png""]",blank.png,blank.png,blank.png,blank.png,"[""grape.png""]","[""grape.png""]","[""grape.png""]","[""grape.png""]","[""grape.png""]","[""grape.png""]",1,"[""chocolate_truffle.png""]",blank.png,blank.png,blank.png,2,"[""grape.png""]","[""grape.png""]",blank.png,blank.png,blank.png,blank.png,PB12.png,,,,,,,,,,,1,,,,,,,,,,,,,2022.5400000000373,,timeout,,,,,,,,,,,,,3,,,,,,,,,,,,,,,,,,,,,,,,,,,,,,,,,,,,,,,,,,,,,,,,,,,,,,,,,"[""grape.png""]","[""chocolate_truffle.png""]",,,,1,,,false,,1,,,,,,,484676,484673.96,484022,484041,484038.66,486061.2,4,,,
timeout,canvas.Screen,2_4_2_6_1_0_0_0_0_3_1,2021-05-24T16:17:17.422Z,,,blank.png,"[""chocolate_truffle.png""]",blank.png,blank.png,blank.png,blank.png,blank.png,blank.png,blank.png,blank.png,blank.png,blank.png,blank.png,,,,,,,,,,,,,,,,,,,,,,,,,,,,,"[""chocolate_truffle.png""]","[""grape.png""]",PB12.png,,,,,,,,,,,0,6,"[""grape.png""]","[""grape.png""]","[""grape.png""]","[""grape.png""]","[""grape.png""]","[""grape.png""]",blank.png,PB18.png,PB18.png,"[""grape.png""]","[""grape.png""]",blank.png,blank.png,blank.png,blank.png,"[""grape.png""]","[""grape.png""]","[""grape.png""]","[""grape.png""]","[""grape.png""]","[""grape.png""]",1,"[""chocolate_truffle.png""]",blank.png,blank.png,blank.png,2,"[""grape.png""]","[""grape.png""]",blank.png,blank.png,blank.png,blank.png,PB12.png,,,,,,,,,,,1,,,,,,,,,,,,,501.85999999998603,,timeout,,,,,,,,,,,,,3,,,,,,,,,,,,,,,,,,,,,,,,,,,,,,,,,,,,,,,,,,,,,,,,,,,,,,,,,"[""grape.png""]","[""chocolate_truffle.png""]",,,,1,,,false,,1,,,,,,,486549,486546.38,484673.96,486046,486061.2,486563.06,,,,
choice,canvas.Screen,2_4_2_6_1_0_0_0_0_3_2,2021-05-24T16:17:18.616Z,,,blank.png,"[""chocolate_truffle.png""]",blank.png,blank.png,blank.png,blank.png,blank.png,blank.png,blank.png,blank.png,blank.png,blank.png,blank.png,,,,,,,,,,,,,,,,,,,,,,,,,,,,,"[""chocolate_truffle.png""]","[""grape.png""]",PB12.png,,,,,,,,,,,0,6,"[""grape.png""]","[""grape.png""]","[""grape.png""]","[""grape.png""]","[""grape.png""]","[""grape.png""]",blank.png,PB18.png,PB18.png,"[""grape.png""]","[""grape.png""]",blank.png,blank.png,blank.png,blank.png,"[""grape.png""]","[""grape.png""]","[""grape.png""]","[""grape.png""]","[""grape.png""]","[""grape.png""]",1,"[""chocolate_truffle.png""]",blank.png,blank.png,blank.png,2,"[""grape.png""]","[""grape.png""]",blank.png,blank.png,blank.png,blank.png,PB12.png,,,,,,,,,,,1,,,,,,,,,,,,,1163.9400000000023,,response,,,,,,,,,,,,,3,,,,,,,,,,,,,,,,,,,,,,,,,,,,,,,,,,,,,,,,,,,,,,,,,,,,,,,,,"[""grape.png""]","[""chocolate_truffle.png""]",,,,1,right,keydown(ArrowRight),false,,1,,,,,,,487744,487727,486546.38,486569,486563.06,487785.56,,4,,
square,canvas.Screen,2_4_2_6_1_0_0_0_0_3_3,2021-05-24T16:17:19.647Z,,,blank.png,"[""chocolate_truffle.png""]",blank.png,blank.png,blank.png,blank.png,blank.png,blank.png,blank.png,blank.png,blank.png,blank.png,blank.png,,,,,,,,,,,,,,,,,,,,,,,,,,,,,"[""chocolate_truffle.png""]","[""grape.png""]",PB12.png,,,,,,,,,,,0,6,"[""grape.png""]","[""grape.png""]","[""grape.png""]","[""grape.png""]","[""grape.png""]","[""grape.png""]",blank.png,PB18.png,PB18.png,"[""grape.png""]","[""grape.png""]",blank.png,blank.png,blank.png,blank.png,"[""grape.png""]","[""grape.png""]","[""grape.png""]","[""grape.png""]","[""grape.png""]","[""grape.png""]",1,"[""chocolate_truffle.png""]",blank.png,blank.png,blank.png,2,"[""grape.png""]","[""grape.png""]",blank.png,blank.png,blank.png,blank.png,PB12.png,,,,,,,,,,,1,,,#808080,#33ff3f,,,,,,,,,1003.6199999999953,,timeout,,,,,,,,,,,,,3,,,,,,,,,,,,,,,,,,,,,,,,,,,,,,,,,,,,,,,,,,,,,,,,,,,,,,,,,"[""grape.png""]","[""chocolate_truffle.png""]",,,,1,,,false,,1,,,,,white,black,488774,488770.74,487768.9,487769,487785.56,488789.18,,,,
ITI_late,canvas.Screen,2_4_2_6_1_0_0_0_0_3_4,2021-05-24T16:17:19.897Z,,,blank.png,"[""chocolate_truffle.png""]",blank.png,blank.png,blank.png,blank.png,blank.png,blank.png,blank.png,blank.png,blank.png,blank.png,blank.png,,,,,,,,,,,,,,,,,,,,,,,,,,,,,"[""chocolate_truffle.png""]","[""grape.png""]",PB12.png,,,,,,,,,,,0,6,"[""grape.png""]","[""grape.png""]","[""grape.png""]","[""grape.png""]","[""grape.png""]","[""grape.png""]",blank.png,PB18.png,PB18.png,"[""grape.png""]","[""grape.png""]",blank.png,blank.png,blank.png,blank.png,"[""grape.png""]","[""grape.png""]","[""grape.png""]","[""grape.png""]","[""grape.png""]","[""grape.png""]",1,"[""chocolate_truffle.png""]",blank.png,blank.png,blank.png,2,"[""grape.png""]","[""grape.png""]",blank.png,blank.png,blank.png,blank.png,PB12.png,,,,,,,,,,,1,,,,,,,,,,,,,250,,timeout,,,,,,,,,,,,white,3,,,,,,,,,,,,,,,,,,,,,,,,,,,,,,,,,,,,,,,,,,,,,,,,,,,,,,,,,"[""grape.png""]","[""chocolate_truffle.png""]",,,,1,,,false,,1,,,,,,,489025,489022.52,488770.74,488779,488789.18,489039.18,,,,
choice_sequence,flow.Sequence,2_4_2_6_1_0_0_0_0_3,2021-05-24T16:17:19.898Z,,,blank.png,"[""chocolate_truffle.png""]",blank.png,blank.png,blank.png,blank.png,blank.png,blank.png,blank.png,blank.png,blank.png,blank.png,blank.png,,,,,,,,,,,,,,,,,,,,,,,,,,,,,"[""chocolate_truffle.png""]","[""grape.png""]",PB12.png,,,,,,,,,,,0,6,"[""grape.png""]","[""grape.png""]","[""grape.png""]","[""grape.png""]","[""grape.png""]","[""grape.png""]",blank.png,PB18.png,PB18.png,"[""grape.png""]","[""grape.png""]",blank.png,blank.png,blank.png,blank.png,"[""grape.png""]","[""grape.png""]","[""grape.png""]","[""grape.png""]","[""grape.png""]","[""grape.png""]",1,"[""chocolate_truffle.png""]",blank.png,blank.png,blank.png,2,"[""grape.png""]","[""grape.png""]",blank.png,blank.png,blank.png,blank.png,PB12.png,,,,,,,,,,,1,,,,,,,,,,,,,4983.860000000044,,completion,,,,,,,,,,,,,3,,,,,,,,,,,,,,,,,,,,,,,,,,,,,,,,,,,,,,,,,,,,,,,,,,,,,,,,,"[""grape.png""]","[""chocolate_truffle.png""]",,,,1,,,false,,1,,,,,,,489025,489022.52,484022,484038,484038.66,489039.18,,,,
fixCross,canvas.Screen,2_4_2_6_1_0_0_0_0_4_0,2021-05-24T16:17:20.399Z,,,blank.png,"[""chocolate_truffle.png""]",blank.png,blank.png,blank.png,blank.png,blank.png,blank.png,blank.png,blank.png,blank.png,blank.png,blank.png,,,,,,,,,,,,,,,,,,,,,,,,,,,,,"[""chocolate_truffle.png""]","[""grape.png""]",PB07.png,,,,,,,,,,,0,6,"[""grape.png""]","[""grape.png""]","[""grape.png""]","[""grape.png""]","[""grape.png""]","[""grape.png""]",blank.png,PB18.png,PB18.png,"[""grape.png""]",blank.png,blank.png,blank.png,blank.png,blank.png,"[""grape.png""]","[""grape.png""]","[""grape.png""]","[""grape.png""]","[""grape.png""]","[""grape.png""]",1,"[""chocolate_truffle.png""]",blank.png,blank.png,blank.png,1,"[""grape.png""]",blank.png,blank.png,blank.png,blank.png,blank.png,PB07.png,,,,,,,,,,,1,,,,,,,,,,,,,1338.960000000021,,timeout,,,,,,,,,,,,,3,,,,,,,,,,,,,,,,,,,,,,,,,,,,,,,,,,,,,,,,,,,,,,,,,,,,,,,,,"[""grape.png""]","[""chocolate_truffle.png""]",,,,1,,,false,,1,,,,,,,489526,489524.34,489022.52,489034,489039.18,490378.14,5,,,
timeout,canvas.Screen,2_4_2_6_1_0_0_0_0_4_1,2021-05-24T16:17:21.737Z,,,blank.png,"[""chocolate_truffle.png""]",blank.png,blank.png,blank.png,blank.png,blank.png,blank.png,blank.png,blank.png,blank.png,blank.png,blank.png,,,,,,,,,,,,,,,,,,,,,,,,,,,,,"[""chocolate_truffle.png""]","[""grape.png""]",PB07.png,,,,,,,,,,,0,6,"[""grape.png""]","[""grape.png""]","[""grape.png""]","[""grape.png""]","[""grape.png""]","[""grape.png""]",blank.png,PB18.png,PB18.png,"[""grape.png""]",blank.png,blank.png,blank.png,blank.png,blank.png,"[""grape.png""]","[""grape.png""]","[""grape.png""]","[""grape.png""]","[""grape.png""]","[""grape.png""]",1,"[""chocolate_truffle.png""]",blank.png,blank.png,blank.png,1,"[""grape.png""]",blank.png,blank.png,blank.png,blank.png,blank.png,PB07.png,,,,,,,,,,,1,,,,,,,,,,,,,500,,timeout,,,,,,,,,,,,,3,,,,,,,,,,,,,,,,,,,,,,,,,,,,,,,,,,,,,,,,,,,,,,,,,,,,,,,,,"[""grape.png""]","[""chocolate_truffle.png""]",,,,1,,,false,,1,,,,,,,490864,490861.46,489524.34,490366,490378.14,490878.14,,,,
choice,canvas.Screen,2_4_2_6_1_0_0_0_0_4_2,2021-05-24T16:17:22.131Z,,,blank.png,"[""chocolate_truffle.png""]",blank.png,blank.png,blank.png,blank.png,blank.png,blank.png,blank.png,blank.png,blank.png,blank.png,blank.png,,,,,,,,,,,,,,,,,,,,,,,,,,,,,"[""chocolate_truffle.png""]","[""grape.png""]",PB07.png,,,,,,,,,,,0,6,"[""grape.png""]","[""grape.png""]","[""grape.png""]","[""grape.png""]","[""grape.png""]","[""grape.png""]",blank.png,PB18.png,PB18.png,"[""grape.png""]",blank.png,blank.png,blank.png,blank.png,blank.png,"[""grape.png""]","[""grape.png""]","[""grape.png""]","[""grape.png""]","[""grape.png""]","[""grape.png""]",1,"[""chocolate_truffle.png""]",blank.png,blank.png,blank.png,1,"[""grape.png""]",blank.png,blank.png,blank.png,blank.png,blank.png,PB07.png,,,,,,,,,,,1,,,,,,,,,,,,,364.85999999998603,,response,,,,,,,,,,,,,3,,,,,,,,,,,,,,,,,,,,,,,,,,,,,,,,,,,,,,,,,,,,,,,,,,,,,,,,,"[""grape.png""]","[""chocolate_truffle.png""]",,,,1,right,keydown(ArrowRight),false,,1,,,,,,,491259,491243,490861.46,490892,490878.14,491313.4,,5,,
square,canvas.Screen,2_4_2_6_1_0_0_0_0_4_3,2021-05-24T16:17:23.179Z,,,blank.png,"[""chocolate_truffle.png""]",blank.png,blank.png,blank.png,blank.png,blank.png,blank.png,blank.png,blank.png,blank.png,blank.png,blank.png,,,,,,,,,,,,,,,,,,,,,,,,,,,,,"[""chocolate_truffle.png""]","[""grape.png""]",PB07.png,,,,,,,,,,,0,6,"[""grape.png""]","[""grape.png""]","[""grape.png""]","[""grape.png""]","[""grape.png""]","[""grape.png""]",blank.png,PB18.png,PB18.png,"[""grape.png""]",blank.png,blank.png,blank.png,blank.png,blank.png,"[""grape.png""]","[""grape.png""]","[""grape.png""]","[""grape.png""]","[""grape.png""]","[""grape.png""]",1,"[""chocolate_truffle.png""]",blank.png,blank.png,blank.png,1,"[""grape.png""]",blank.png,blank.png,blank.png,blank.png,blank.png,PB07.png,,,,,,,,,,,1,,,#808080,#33ff3f,,,,,,,,,1003.9799999999814,,timeout,,,,,,,,,,,,,3,,,,,,,,,,,,,,,,,,,,,,,,,,,,,,,,,,,,,,,,,,,,,,,,,,,,,,,,,"[""grape.png""]","[""chocolate_truffle.png""]",,,,1,,,false,,1,,,,,white,black,492306,492300.72,491296.72,491280,491313.4,492317.38,,,,
ITI_late,canvas.Screen,2_4_2_6_1_0_0_0_0_4_4,2021-05-24T16:17:23.677Z,,,blank.png,"[""chocolate_truffle.png""]",blank.png,blank.png,blank.png,blank.png,blank.png,blank.png,blank.png,blank.png,blank.png,blank.png,blank.png,,,,,,,,,,,,,,,,,,,,,,,,,,,,,"[""chocolate_truffle.png""]","[""grape.png""]",PB07.png,,,,,,,,,,,0,6,"[""grape.png""]","[""grape.png""]","[""grape.png""]","[""grape.png""]","[""grape.png""]","[""grape.png""]",blank.png,PB18.png,PB18.png,"[""grape.png""]",blank.png,blank.png,blank.png,blank.png,blank.png,"[""grape.png""]","[""grape.png""]","[""grape.png""]","[""grape.png""]","[""grape.png""]","[""grape.png""]",1,"[""chocolate_truffle.png""]",blank.png,blank.png,blank.png,1,"[""grape.png""]",blank.png,blank.png,blank.png,blank.png,blank.png,PB07.png,,,,,,,,,,,1,,,,,,,,,,,,,501.88000000000466,,timeout,,,,,,,,,,,,white,3,,,,,,,,,,,,,,,,,,,,,,,,,,,,,,,,,,,,,,,,,,,,,,,,,,,,,,,,,"[""grape.png""]","[""chocolate_truffle.png""]",,,,1,,,false,,1,,,,,,,492804,492802.6,492300.72,492311,492317.38,492819.26,,,,
choice_sequence,flow.Sequence,2_4_2_6_1_0_0_0_0_4,2021-05-24T16:17:23.678Z,,,blank.png,"[""chocolate_truffle.png""]",blank.png,blank.png,blank.png,blank.png,blank.png,blank.png,blank.png,blank.png,blank.png,blank.png,blank.png,,,,,,,,,,,,,,,,,,,,,,,,,,,,,"[""chocolate_truffle.png""]","[""grape.png""]",PB07.png,,,,,,,,,,,0,6,"[""grape.png""]","[""grape.png""]","[""grape.png""]","[""grape.png""]","[""grape.png""]","[""grape.png""]",blank.png,PB18.png,PB18.png,"[""grape.png""]",blank.png,blank.png,blank.png,blank.png,blank.png,"[""grape.png""]","[""grape.png""]","[""grape.png""]","[""grape.png""]","[""grape.png""]","[""grape.png""]",1,"[""chocolate_truffle.png""]",blank.png,blank.png,blank.png,1,"[""grape.png""]",blank.png,blank.png,blank.png,blank.png,blank.png,PB07.png,,,,,,,,,,,1,,,,,,,,,,,,,3763.4199999999837,,completion,,,,,,,,,,,,,3,,,,,,,,,,,,,,,,,,,,,,,,,,,,,,,,,,,,,,,,,,,,,,,,,,,,,,,,,"[""grape.png""]","[""chocolate_truffle.png""]",,,,1,,,false,,1,,,,,,,492805,492802.6,489022.52,489031,489039.18,492819.26,,,,
fixCross,canvas.Screen,2_4_2_6_1_0_0_0_0_5_0,2021-05-24T16:17:24.229Z,,,blank.png,"[""chocolate_truffle.png""]",blank.png,blank.png,blank.png,blank.png,blank.png,blank.png,blank.png,blank.png,blank.png,blank.png,blank.png,,,,,,,,,,,,,,,,,,,,,,,,,,,,,"[""chocolate_truffle.png""]","[""grape.png""]",PB16.png,,,,,,,,,,,0,6,"[""grape.png""]","[""grape.png""]","[""grape.png""]","[""grape.png""]","[""grape.png""]","[""grape.png""]",blank.png,PB18.png,PB18.png,"[""grape.png""]","[""grape.png""]","[""grape.png""]","[""grape.png""]","[""grape.png""]",blank.png,"[""grape.png""]","[""grape.png""]","[""grape.png""]","[""grape.png""]","[""grape.png""]","[""grape.png""]",1,"[""chocolate_truffle.png""]",blank.png,blank.png,blank.png,5,"[""grape.png""]","[""grape.png""]","[""grape.png""]","[""grape.png""]","[""grape.png""]",blank.png,PB16.png,,,,,,,,,,,1,,,,,,,,,,,,,818.7399999999907,,timeout,,,,,,,,,,,,,3,,,,,,,,,,,,,,,,,,,,,,,,,,,,,,,,,,,,,,,,,,,,,,,,,,,,,,,,,"[""grape.png""]","[""chocolate_truffle.png""]",,,,1,,,false,,1,,,,,,,493357,493354.66,492802.6,492820,492819.26,493638,6,,,
timeout,canvas.Screen,2_4_2_6_1_0_0_0_0_5_1,2021-05-24T16:17:24.998Z,,,blank.png,"[""chocolate_truffle.png""]",blank.png,blank.png,blank.png,blank.png,blank.png,blank.png,blank.png,blank.png,blank.png,blank.png,blank.png,,,,,,,,,,,,,,,,,,,,,,,,,,,,,"[""chocolate_truffle.png""]","[""grape.png""]",PB16.png,,,,,,,,,,,0,6,"[""grape.png""]","[""grape.png""]","[""grape.png""]","[""grape.png""]","[""grape.png""]","[""grape.png""]",blank.png,PB18.png,PB18.png,"[""grape.png""]","[""grape.png""]","[""grape.png""]","[""grape.png""]","[""grape.png""]",blank.png,"[""grape.png""]","[""grape.png""]","[""grape.png""]","[""grape.png""]","[""grape.png""]","[""grape.png""]",1,"[""chocolate_truffle.png""]",blank.png,blank.png,blank.png,5,"[""grape.png""]","[""grape.png""]","[""grape.png""]","[""grape.png""]","[""grape.png""]",blank.png,PB16.png,,,,,,,,,,,1,,,,,,,,,,,,,501.79999999998836,,timeout,,,,,,,,,,,,,3,,,,,,,,,,,,,,,,,,,,,,,,,,,,,,,,,,,,,,,,,,,,,,,,,,,,,,,,,"[""grape.png""]","[""chocolate_truffle.png""]",,,,1,,,false,,1,,,,,,,494126,494123.14,493354.66,493626,493638,494139.8,,,,
choice,canvas.Screen,2_4_2_6_1_0_0_0_0_5_2,2021-05-24T16:17:25.414Z,,,blank.png,"[""chocolate_truffle.png""]",blank.png,blank.png,blank.png,blank.png,blank.png,blank.png,blank.png,blank.png,blank.png,blank.png,blank.png,,,,,,,,,,,,,,,,,,,,,,,,,,,,,"[""chocolate_truffle.png""]","[""grape.png""]",PB16.png,,,,,,,,,,,0,6,"[""grape.png""]","[""grape.png""]","[""grape.png""]","[""grape.png""]","[""grape.png""]","[""grape.png""]",blank.png,PB18.png,PB18.png,"[""grape.png""]","[""grape.png""]","[""grape.png""]","[""grape.png""]","[""grape.png""]",blank.png,"[""grape.png""]","[""grape.png""]","[""grape.png""]","[""grape.png""]","[""grape.png""]","[""grape.png""]",1,"[""chocolate_truffle.png""]",blank.png,blank.png,blank.png,5,"[""grape.png""]","[""grape.png""]","[""grape.png""]","[""grape.png""]","[""grape.png""]",blank.png,PB16.png,,,,,,,,,,,1,,,,,,,,,,,,,384.20000000001164,,response,,,,,,,,,,,,,3,,,,,,,,,,,,,,,,,,,,,,,,,,,,,,,,,,,,,,,,,,,,,,,,,,,,,,,,,"[""grape.png""]","[""chocolate_truffle.png""]",,,,1,left,keydown(ArrowLeft),false,,1,,,,,,,494541,494524,494123.14,494154,494139.8,494575.06,,6,,
square,canvas.Screen,2_4_2_6_1_0_0_0_0_5_3,2021-05-24T16:17:26.437Z,,,blank.png,"[""chocolate_truffle.png""]",blank.png,blank.png,blank.png,blank.png,blank.png,blank.png,blank.png,blank.png,blank.png,blank.png,blank.png,,,,,,,,,,,,,,,,,,,,,,,,,,,,,"[""chocolate_truffle.png""]","[""grape.png""]",PB16.png,,,,,,,,,,,0,6,"[""grape.png""]","[""grape.png""]","[""grape.png""]","[""grape.png""]","[""grape.png""]","[""grape.png""]",blank.png,PB18.png,PB18.png,"[""grape.png""]","[""grape.png""]","[""grape.png""]","[""grape.png""]","[""grape.png""]",blank.png,"[""grape.png""]","[""grape.png""]","[""grape.png""]","[""grape.png""]","[""grape.png""]","[""grape.png""]",1,"[""chocolate_truffle.png""]",blank.png,blank.png,blank.png,5,"[""grape.png""]","[""grape.png""]","[""grape.png""]","[""grape.png""]","[""grape.png""]",blank.png,PB16.png,,,,,,,,,,,1,,,#33ff3f,#808080,,,,,,,,,1003.9199999999837,,timeout,,,,,,,,,,,,,3,,,,,,,,,,,,,,,,,,,,,,,,,,,,,,,,,,,,,,,,,,,,,,,,,,,,,,,,,"[""grape.png""]","[""chocolate_truffle.png""]",,,,1,,,false,,1,,,,,black,white,495565,495562.32,494558.4,494552,494575.06,495578.98,,,,
ITI_late,canvas.Screen,2_4_2_6_1_0_0_0_0_5_4,2021-05-24T16:17:26.939Z,,,blank.png,"[""chocolate_truffle.png""]",blank.png,blank.png,blank.png,blank.png,blank.png,blank.png,blank.png,blank.png,blank.png,blank.png,blank.png,,,,,,,,,,,,,,,,,,,,,,,,,,,,,"[""chocolate_truffle.png""]","[""grape.png""]",PB16.png,,,,,,,,,,,0,6,"[""grape.png""]","[""grape.png""]","[""grape.png""]","[""grape.png""]","[""grape.png""]","[""grape.png""]",blank.png,PB18.png,PB18.png,"[""grape.png""]","[""grape.png""]","[""grape.png""]","[""grape.png""]","[""grape.png""]",blank.png,"[""grape.png""]","[""grape.png""]","[""grape.png""]","[""grape.png""]","[""grape.png""]","[""grape.png""]",1,"[""chocolate_truffle.png""]",blank.png,blank.png,blank.png,5,"[""grape.png""]","[""grape.png""]","[""grape.png""]","[""grape.png""]","[""grape.png""]",blank.png,PB16.png,,,,,,,,,,,1,,,,,,,,,,,,,501.820000000007,,timeout,,,,,,,,,,,,white,3,,,,,,,,,,,,,,,,,,,,,,,,,,,,,,,,,,,,,,,,,,,,,,,,,,,,,,,,,"[""grape.png""]","[""chocolate_truffle.png""]",,,,1,,,false,,1,,,,,,,496066,496064.14,495562.32,495568,495578.98,496080.8,,,,
choice_sequence,flow.Sequence,2_4_2_6_1_0_0_0_0_5,2021-05-24T16:17:26.939Z,,,blank.png,"[""chocolate_truffle.png""]",blank.png,blank.png,blank.png,blank.png,blank.png,blank.png,blank.png,blank.png,blank.png,blank.png,blank.png,,,,,,,,,,,,,,,,,,,,,,,,,,,,,"[""chocolate_truffle.png""]","[""grape.png""]",PB16.png,,,,,,,,,,,0,6,"[""grape.png""]","[""grape.png""]","[""grape.png""]","[""grape.png""]","[""grape.png""]","[""grape.png""]",blank.png,PB18.png,PB18.png,"[""grape.png""]","[""grape.png""]","[""grape.png""]","[""grape.png""]","[""grape.png""]",blank.png,"[""grape.png""]","[""grape.png""]","[""grape.png""]","[""grape.png""]","[""grape.png""]","[""grape.png""]",1,"[""chocolate_truffle.png""]",blank.png,blank.png,blank.png,5,"[""grape.png""]","[""grape.png""]","[""grape.png""]","[""grape.png""]","[""grape.png""]",blank.png,PB16.png,,,,,,,,,,,1,,,,,,,,,,,,,3244.8800000000047,,completion,,,,,,,,,,,,,3,,,,,,,,,,,,,,,,,,,,,,,,,,,,,,,,,,,,,,,,,,,,,,,,,,,,,,,,,"[""grape.png""]","[""chocolate_truffle.png""]",,,,1,,,false,,1,,,,,,,496067,496064.14,492802.6,492817,492819.26,496080.8,,,,
fixCross,canvas.Screen,2_4_2_6_1_0_0_0_0_6_0,2021-05-24T16:17:27.591Z,,,blank.png,blank.png,blank.png,blank.png,blank.png,blank.png,blank.png,"[""chocolate_truffle.png""]",blank.png,blank.png,blank.png,blank.png,blank.png,,,,,,,,,,,,,,,,,,,,,,,,,,,,,"[""chocolate_truffle.png""]","[""grape.png""]",PB18.png,,,,,,,,,,,0,6,"[""grape.png""]","[""grape.png""]","[""grape.png""]","[""grape.png""]","[""grape.png""]","[""grape.png""]",blank.png,PB18.png,PB01.png,"[""grape.png""]","[""grape.png""]","[""grape.png""]","[""grape.png""]","[""grape.png""]","[""grape.png""]",blank.png,blank.png,blank.png,blank.png,blank.png,blank.png,1,"[""chocolate_truffle.png""]",blank.png,blank.png,blank.png,0,blank.png,blank.png,blank.png,blank.png,blank.png,blank.png,PB01.png,,,,,,,,,,,1,,,,,,,,,,,,,1170.5,,timeout,,,,,,,,,,,,,4,,,,,,,,,,,,,,,,,,,,,,,,,,,,,,,,,,,,,,,,,,,,,,,,,,,,,,,,,"[""grape.png""]","[""chocolate_truffle.png""]",,,,1,,,false,,1,,,,,,,496718,496716.08,496064.14,496078,496080.8,497251.3,7,,,
timeout,canvas.Screen,2_4_2_6_1_0_0_0_0_6_1,2021-05-24T16:17:28.611Z,,,blank.png,blank.png,blank.png,blank.png,blank.png,blank.png,blank.png,"[""chocolate_truffle.png""]",blank.png,blank.png,blank.png,blank.png,blank.png,,,,,,,,,,,,,,,,,,,,,,,,,,,,,"[""chocolate_truffle.png""]","[""grape.png""]",PB18.png,,,,,,,,,,,0,6,"[""grape.png""]","[""grape.png""]","[""grape.png""]","[""grape.png""]","[""grape.png""]","[""grape.png""]",blank.png,PB18.png,PB01.png,"[""grape.png""]","[""grape.png""]","[""grape.png""]","[""grape.png""]","[""grape.png""]","[""grape.png""]",blank.png,blank.png,blank.png,blank.png,blank.png,blank.png,1,"[""chocolate_truffle.png""]",blank.png,blank.png,blank.png,0,blank.png,blank.png,blank.png,blank.png,blank.png,blank.png,PB01.png,,,,,,,,,,,1,,,,,,,,,,,,,501.820000000007,,timeout,,,,,,,,,,,,,4,,,,,,,,,,,,,,,,,,,,,,,,,,,,,,,,,,,,,,,,,,,,,,,,,,,,,,,,,"[""grape.png""]","[""chocolate_truffle.png""]",,,,1,,,false,,1,,,,,,,497738,497736.44,496716.08,497247,497251.3,497753.12,,,,
choice,canvas.Screen,2_4_2_6_1_0_0_0_0_6_2,2021-05-24T16:17:31.118Z,,,blank.png,blank.png,blank.png,blank.png,blank.png,blank.png,blank.png,"[""chocolate_truffle.png""]",blank.png,blank.png,blank.png,blank.png,blank.png,,,,,,,,,,,,,,,,,,,,,,,,,,,,,"[""chocolate_truffle.png""]","[""grape.png""]",PB18.png,,,,,,,,,,,0,6,"[""grape.png""]","[""grape.png""]","[""grape.png""]","[""grape.png""]","[""grape.png""]","[""grape.png""]",blank.png,PB18.png,PB01.png,"[""grape.png""]","[""grape.png""]","[""grape.png""]","[""grape.png""]","[""grape.png""]","[""grape.png""]",blank.png,blank.png,blank.png,blank.png,blank.png,blank.png,1,"[""chocolate_truffle.png""]",blank.png,blank.png,blank.png,0,blank.png,blank.png,blank.png,blank.png,blank.png,blank.png,PB01.png,,,,,,,,,,,1,,,,,,,,,,,,,2472.8800000000047,,response,,,,,,,,,,,,,4,,,,,,,,,,,,,,,,,,,,,,,,,,,,,,,,,,,,,,,,,,,,,,,,,,,,,,,,,"[""grape.png""]","[""chocolate_truffle.png""]",,,,1,left,keydown(ArrowLeft),false,,1,,,,,,,500245,500226,497736.44,497750,497753.12,500296.08,,7,,
square,canvas.Screen,2_4_2_6_1_0_0_0_0_6_3,2021-05-24T16:17:32.158Z,,,blank.png,blank.png,blank.png,blank.png,blank.png,blank.png,blank.png,"[""chocolate_truffle.png""]",blank.png,blank.png,blank.png,blank.png,blank.png,,,,,,,,,,,,,,,,,,,,,,,,,,,,,"[""chocolate_truffle.png""]","[""grape.png""]",PB18.png,,,,,,,,,,,0,6,"[""grape.png""]","[""grape.png""]","[""grape.png""]","[""grape.png""]","[""grape.png""]","[""grape.png""]",blank.png,PB18.png,PB01.png,"[""grape.png""]","[""grape.png""]","[""grape.png""]","[""grape.png""]","[""grape.png""]","[""grape.png""]",blank.png,blank.png,blank.png,blank.png,blank.png,blank.png,1,"[""chocolate_truffle.png""]",blank.png,blank.png,blank.png,0,blank.png,blank.png,blank.png,blank.png,blank.png,blank.png,PB01.png,,,,,,,,,,,1,,,#33ff3f,#808080,,,,,,,,,1003.8800000000047,,timeout,,,,,,,,,,,,,4,,,,,,,,,,,,,,,,,,,,,,,,,,,,,,,,,,,,,,,,,,,,,,,,,,,,,,,,,"[""grape.png""]","[""chocolate_truffle.png""]",,,,1,,,false,,1,,,,,black,white,501285,501283.3,500279.42,500270,500296.08,501299.96,,,,
ITI_late,canvas.Screen,2_4_2_6_1_0_0_0_0_6_4,2021-05-24T16:17:33.161Z,,,blank.png,blank.png,blank.png,blank.png,blank.png,blank.png,blank.png,"[""chocolate_truffle.png""]",blank.png,blank.png,blank.png,blank.png,blank.png,,,,,,,,,,,,,,,,,,,,,,,,,,,,,"[""chocolate_truffle.png""]","[""grape.png""]",PB18.png,,,,,,,,,,,0,6,"[""grape.png""]","[""grape.png""]","[""grape.png""]","[""grape.png""]","[""grape.png""]","[""grape.png""]",blank.png,PB18.png,PB01.png,"[""grape.png""]","[""grape.png""]","[""grape.png""]","[""grape.png""]","[""grape.png""]","[""grape.png""]",blank.png,blank.png,blank.png,blank.png,blank.png,blank.png,1,"[""chocolate_truffle.png""]",blank.png,blank.png,blank.png,0,blank.png,blank.png,blank.png,blank.png,blank.png,blank.png,PB01.png,,,,,,,,,,,1,,,,,,,,,,,,,1037.1399999999558,,timeout,,,,,,,,,,,,white,4,,,,,,,,,,,,,,,,,,,,,,,,,,,,,,,,,,,,,,,,,,,,,,,,,,,,,,,,,"[""grape.png""]","[""chocolate_truffle.png""]",,,,1,,,false,,1,,,,,,,502289,502287.1,501283.3,501289,501299.96,502337.1,,,,
choice_sequence,flow.Sequence,2_4_2_6_1_0_0_0_0_6,2021-05-24T16:17:33.162Z,,,blank.png,blank.png,blank.png,blank.png,blank.png,blank.png,blank.png,"[""chocolate_truffle.png""]",blank.png,blank.png,blank.png,blank.png,blank.png,,,,,,,,,,,,,,,,,,,,,,,,,,,,,"[""chocolate_truffle.png""]","[""grape.png""]",PB18.png,,,,,,,,,,,0,6,"[""grape.png""]","[""grape.png""]","[""grape.png""]","[""grape.png""]","[""grape.png""]","[""grape.png""]",blank.png,PB18.png,PB01.png,"[""grape.png""]","[""grape.png""]","[""grape.png""]","[""grape.png""]","[""grape.png""]","[""grape.png""]",blank.png,blank.png,blank.png,blank.png,blank.png,blank.png,1,"[""chocolate_truffle.png""]",blank.png,blank.png,blank.png,0,blank.png,blank.png,blank.png,blank.png,blank.png,blank.png,PB01.png,,,,,,,,,,,1,,,,,,,,,,,,,6206.299999999988,,completion,,,,,,,,,,,,,4,,,,,,,,,,,,,,,,,,,,,,,,,,,,,,,,,,,,,,,,,,,,,,,,,,,,,,,,,"[""grape.png""]","[""chocolate_truffle.png""]",,,,1,,,false,,1,,,,,,,502289,502287.1,496064.14,496075,496080.8,502337.1,,,,
choice_loop,flow.Loop,2_4_2_6_1_0_0_0_0,2021-05-24T16:17:33.163Z,,,,,,,,,,,,,,,,,,,,,,,,,,,,,,,,,,,,,,,,,,,,"[""chocolate_truffle.png""]","[""grape.png""]",,,,,,,,,,,,,,,,,,,,,,,,,,,,,,,,,,,,,,,,,,,,,,,,,,,,,,,,,,,,,,,,,,,,,,,29824.159999999974,,completion,,,,,,,,,,,,,,,,,,,,,,,,,,,,,,,,,,,,,,,,,,,,,,,,,,,,,,,,,,,,,,,,,,,,,,"[""grape.png""]","[""chocolate_truffle.png""]",,,,1,,,false,,,,,,,,,502290,502287.1,472412.94,472462,472462.94,502337.1,,,,
choice_frame,html.Frame,2_4_2_6_1_0_0_0,2021-05-24T16:17:33.165Z,,,,,,,,,,,,,,,,,,,,,,,,,,,,,,,,,,,,,,,,,,,,,,,,,,,,,,,,,,,,,,,,,,,,,,,,,,,,,,,,,,,,,,,,,,,,,,,,,,,,,,,,,,,,,,,,,,,,29828.059999999998,,,,,,,,,,,,,,,,,,,,,,,,,,,,,,,,,,,,,,,,,,,,,,,,,,,,,,,,,,,,,,,,,,,,,,,,,,,,,1,,,false,,,,,,,,,502291,502291,472412.94,472416,472462.94,502353.76,,,,
sublock_1,flow.Sequence,2_4_2_6_1_0_0,2021-05-24T16:17:33.165Z,,,,,,,,,,,,,,,,,,,,,,,,,,,,,,,,,,,,,,,,,,,,,,,,,,,,,,,,,,,,,,,,,,,,,,,,,,,,,,,,,,,,,,,,,,,,,,,,,,,,,,,,,,,,,,,,,,,,29828.059999999998,,completion,,,,,,,,,,,,,,,,,,,,,,,,,,,,,,,,,,,,,,,,,,,,,,,,,,,,,,,,,,,,,,,,,,,,,,,,,,,1,,,false,,,,,,,,,502293,502291,472412.94,472416,472462.94,502353.76,,,,
fixCross,canvas.Screen,2_4_2_6_1_0_1_0_0_0_0,2021-05-24T16:17:33.462Z,,,blank.png,"[""chocolate_truffle.png""]",blank.png,blank.png,blank.png,blank.png,blank.png,blank.png,blank.png,blank.png,blank.png,blank.png,blank.png,,,,,,,,,,,,,,,,,,,,,,,,,,,,,"[""chocolate_truffle.png""]","[""grape.png""]",PB15.png,,,,,,,,,,,0,6,"[""grape.png""]","[""grape.png""]","[""grape.png""]","[""grape.png""]","[""grape.png""]","[""grape.png""]",blank.png,PB18.png,PB18.png,"[""grape.png""]","[""grape.png""]","[""grape.png""]","[""grape.png""]",blank.png,blank.png,"[""grape.png""]","[""grape.png""]","[""grape.png""]","[""grape.png""]","[""grape.png""]","[""grape.png""]",1,"[""chocolate_truffle.png""]",blank.png,blank.png,blank.png,4,"[""grape.png""]","[""grape.png""]","[""grape.png""]","[""grape.png""]",blank.png,blank.png,PB15.png,,,,,,,,,,,1,,,,,,,,,,,,,250,,timeout,,,,,,,,,,,,,3,,,,,,,,,,,,,,,,,,,,,,,,,,,,,,,,,,,,,,,,,,,,,,,,,,,,,,,,,"[""grape.png""]","[""chocolate_truffle.png""]",,,,3,,,false,,1,,,,,,,502589,502587.1,502337.1,502337,502353.76,502603.76,8,,,
timeout,canvas.Screen,2_4_2_6_1_0_1_0_0_0_1,2021-05-24T16:17:33.963Z,,,blank.png,"[""chocolate_truffle.png""]",blank.png,blank.png,blank.png,blank.png,blank.png,blank.png,blank.png,blank.png,blank.png,blank.png,blank.png,,,,,,,,,,,,,,,,,,,,,,,,,,,,,"[""chocolate_truffle.png""]","[""grape.png""]",PB15.png,,,,,,,,,,,0,6,"[""grape.png""]","[""grape.png""]","[""grape.png""]","[""grape.png""]","[""grape.png""]","[""grape.png""]",blank.png,PB18.png,PB18.png,"[""grape.png""]","[""grape.png""]","[""grape.png""]","[""grape.png""]",blank.png,blank.png,"[""grape.png""]","[""grape.png""]","[""grape.png""]","[""grape.png""]","[""grape.png""]","[""grape.png""]",1,"[""chocolate_truffle.png""]",blank.png,blank.png,blank.png,4,"[""grape.png""]","[""grape.png""]","[""grape.png""]","[""grape.png""]",blank.png,blank.png,PB15.png,,,,,,,,,,,1,,,,,,,,,,,,,502.03999999997905,,timeout,,,,,,,,,,,,,3,,,,,,,,,,,,,,,,,,,,,,,,,,,,,,,,,,,,,,,,,,,,,,,,,,,,,,,,,"[""grape.png""]","[""chocolate_truffle.png""]",,,,3,,,false,,1,,,,,,,503091,503089.14,502587.1,502611,502603.76,503105.8,,,,
choice,canvas.Screen,2_4_2_6_1_0_1_0_0_0_2,2021-05-24T16:17:34.563Z,,,blank.png,"[""chocolate_truffle.png""]",blank.png,blank.png,blank.png,blank.png,blank.png,blank.png,blank.png,blank.png,blank.png,blank.png,blank.png,,,,,,,,,,,,,,,,,,,,,,,,,,,,,"[""chocolate_truffle.png""]","[""grape.png""]",PB15.png,,,,,,,,,,,0,6,"[""grape.png""]","[""grape.png""]","[""grape.png""]","[""grape.png""]","[""grape.png""]","[""grape.png""]",blank.png,PB18.png,PB18.png,"[""grape.png""]","[""grape.png""]","[""grape.png""]","[""grape.png""]",blank.png,blank.png,"[""grape.png""]","[""grape.png""]","[""grape.png""]","[""grape.png""]","[""grape.png""]","[""grape.png""]",1,"[""chocolate_truffle.png""]",blank.png,blank.png,blank.png,4,"[""grape.png""]","[""grape.png""]","[""grape.png""]","[""grape.png""]",blank.png,blank.png,PB15.png,,,,,,,,,,,1,,,,,,,,,,,,,573.2000000000116,,response,,,,,,,,,,,,,3,,,,,,,,,,,,,,,,,,,,,,,,,,,,,,,,,,,,,,,,,,,,,,,,,,,,,,,,,"[""grape.png""]","[""chocolate_truffle.png""]",,,,3,right,keydown(ArrowRight),false,,1,,,,,,,503690,503679,503089.14,503103,503105.8,503740.96,,8,,
square,canvas.Screen,2_4_2_6_1_0_1_0_0_0_3,2021-05-24T16:17:35.604Z,,,blank.png,"[""chocolate_truffle.png""]",blank.png,blank.png,blank.png,blank.png,blank.png,blank.png,blank.png,blank.png,blank.png,blank.png,blank.png,,,,,,,,,,,,,,,,,,,,,,,,,,,,,"[""chocolate_truffle.png""]","[""grape.png""]",PB15.png,,,,,,,,,,,0,6,"[""grape.png""]","[""grape.png""]","[""grape.png""]","[""grape.png""]","[""grape.png""]","[""grape.png""]",blank.png,PB18.png,PB18.png,"[""grape.png""]","[""grape.png""]","[""grape.png""]","[""grape.png""]",blank.png,blank.png,"[""grape.png""]","[""grape.png""]","[""grape.png""]","[""grape.png""]","[""grape.png""]","[""grape.png""]",1,"[""chocolate_truffle.png""]",blank.png,blank.png,blank.png,4,"[""grape.png""]","[""grape.png""]","[""grape.png""]","[""grape.png""]",blank.png,blank.png,PB15.png,,,,,,,,,,,1,,,#808080,#33ff3f,,,,,,,,,1003.859999999986,,timeout,,,,,,,,,,,,,3,,,,,,,,,,,,,,,,,,,,,,,,,,,,,,,,,,,,,,,,,,,,,,,,,,,,,,,,,"[""grape.png""]","[""chocolate_truffle.png""]",,,,3,,,false,,1,,,,,white,black,504730,504728.16,503724.28,503715,503740.96,504744.82,,,,
ITI_late,canvas.Screen,2_4_2_6_1_0_1_0_0_0_4,2021-05-24T16:17:36.356Z,,,blank.png,"[""chocolate_truffle.png""]",blank.png,blank.png,blank.png,blank.png,blank.png,blank.png,blank.png,blank.png,blank.png,blank.png,blank.png,,,,,,,,,,,,,,,,,,,,,,,,,,,,,"[""chocolate_truffle.png""]","[""grape.png""]",PB15.png,,,,,,,,,,,0,6,"[""grape.png""]","[""grape.png""]","[""grape.png""]","[""grape.png""]","[""grape.png""]","[""grape.png""]",blank.png,PB18.png,PB18.png,"[""grape.png""]","[""grape.png""]","[""grape.png""]","[""grape.png""]",blank.png,blank.png,"[""grape.png""]","[""grape.png""]","[""grape.png""]","[""grape.png""]","[""grape.png""]","[""grape.png""]",1,"[""chocolate_truffle.png""]",blank.png,blank.png,blank.png,4,"[""grape.png""]","[""grape.png""]","[""grape.png""]","[""grape.png""]",blank.png,blank.png,PB15.png,,,,,,,,,,,1,,,,,,,,,,,,,751.9799999999814,,timeout,,,,,,,,,,,,white,3,,,,,,,,,,,,,,,,,,,,,,,,,,,,,,,,,,,,,,,,,,,,,,,,,,,,,,,,,"[""grape.png""]","[""chocolate_truffle.png""]",,,,3,,,false,,1,,,,,,,505483,505480.12,504728.16,504735,504744.82,505496.8,,,,
choice_sequence,flow.Sequence,2_4_2_6_1_0_1_0_0_0,2021-05-24T16:17:36.357Z,,,blank.png,"[""chocolate_truffle.png""]",blank.png,blank.png,blank.png,blank.png,blank.png,blank.png,blank.png,blank.png,blank.png,blank.png,blank.png,,,,,,,,,,,,,,,,,,,,,,,,,,,,,"[""chocolate_truffle.png""]","[""grape.png""]",PB15.png,,,,,,,,,,,0,6,"[""grape.png""]","[""grape.png""]","[""grape.png""]","[""grape.png""]","[""grape.png""]","[""grape.png""]",blank.png,PB18.png,PB18.png,"[""grape.png""]","[""grape.png""]","[""grape.png""]","[""grape.png""]",blank.png,blank.png,"[""grape.png""]","[""grape.png""]","[""grape.png""]","[""grape.png""]","[""grape.png""]","[""grape.png""]",1,"[""chocolate_truffle.png""]",blank.png,blank.png,blank.png,4,"[""grape.png""]","[""grape.png""]","[""grape.png""]","[""grape.png""]",blank.png,blank.png,PB15.png,,,,,,,,,,,1,,,,,,,,,,,,,3126.359999999986,,completion,,,,,,,,,,,,,3,,,,,,,,,,,,,,,,,,,,,,,,,,,,,,,,,,,,,,,,,,,,,,,,,,,,,,,,,"[""grape.png""]","[""chocolate_truffle.png""]",,,,3,,,false,,1,,,,,,,505485,505480.12,502337.1,502336,502353.76,505496.8,,,,
fixCross,canvas.Screen,2_4_2_6_1_0_1_0_0_1_0,2021-05-24T16:17:36.608Z,,,blank.png,blank.png,blank.png,blank.png,blank.png,blank.png,blank.png,"[""chocolate_truffle.png""]",blank.png,blank.png,blank.png,blank.png,blank.png,,,,,,,,,,,,,,,,,,,,,,,,,,,,,"[""chocolate_truffle.png""]","[""grape.png""]",PB18.png,,,,,,,,,,,0,6,"[""grape.png""]","[""grape.png""]","[""grape.png""]","[""grape.png""]","[""grape.png""]","[""grape.png""]",blank.png,PB18.png,PB01.png,"[""grape.png""]","[""grape.png""]","[""grape.png""]","[""grape.png""]","[""grape.png""]","[""grape.png""]",blank.png,blank.png,blank.png,blank.png,blank.png,blank.png,1,"[""chocolate_truffle.png""]",blank.png,blank.png,blank.png,0,blank.png,blank.png,blank.png,blank.png,blank.png,blank.png,PB01.png,,,,,,,,,,,1,,,,,,,,,,,,,251.90000000002328,,timeout,,,,,,,,,,,,,4,,,,,,,,,,,,,,,,,,,,,,,,,,,,,,,,,,,,,,,,,,,,,,,,,,,,,,,,,"[""grape.png""]","[""chocolate_truffle.png""]",,,,3,,,false,,1,,,,,,,505736,505732.04,505480.12,505502,505496.8,505748.7,9,,,
timeout,canvas.Screen,2_4_2_6_1_0_1_0_0_1_1,2021-05-24T16:17:37.108Z,,,blank.png,blank.png,blank.png,blank.png,blank.png,blank.png,blank.png,"[""chocolate_truffle.png""]",blank.png,blank.png,blank.png,blank.png,blank.png,,,,,,,,,,,,,,,,,,,,,,,,,,,,,"[""chocolate_truffle.png""]","[""grape.png""]",PB18.png,,,,,,,,,,,0,6,"[""grape.png""]","[""grape.png""]","[""grape.png""]","[""grape.png""]","[""grape.png""]","[""grape.png""]",blank.png,PB18.png,PB01.png,"[""grape.png""]","[""grape.png""]","[""grape.png""]","[""grape.png""]","[""grape.png""]","[""grape.png""]",blank.png,blank.png,blank.png,blank.png,blank.png,blank.png,1,"[""chocolate_truffle.png""]",blank.png,blank.png,blank.png,0,blank.png,blank.png,blank.png,blank.png,blank.png,blank.png,PB01.png,,,,,,,,,,,1,,,,,,,,,,,,,501.9400000000023,,timeout,,,,,,,,,,,,,4,,,,,,,,,,,,,,,,,,,,,,,,,,,,,,,,,,,,,,,,,,,,,,,,,,,,,,,,,"[""grape.png""]","[""chocolate_truffle.png""]",,,,3,,,false,,1,,,,,,,506236,506233.98,505732.04,505756,505748.7,506250.64,,,,
choice,canvas.Screen,2_4_2_6_1_0_1_0_0_1_2,2021-05-24T16:17:37.512Z,,,blank.png,blank.png,blank.png,blank.png,blank.png,blank.png,blank.png,"[""chocolate_truffle.png""]",blank.png,blank.png,blank.png,blank.png,blank.png,,,,,,,,,,,,,,,,,,,,,,,,,,,,,"[""chocolate_truffle.png""]","[""grape.png""]",PB18.png,,,,,,,,,,,0,6,"[""grape.png""]","[""grape.png""]","[""grape.png""]","[""grape.png""]","[""grape.png""]","[""grape.png""]",blank.png,PB18.png,PB01.png,"[""grape.png""]","[""grape.png""]","[""grape.png""]","[""grape.png""]","[""grape.png""]","[""grape.png""]",blank.png,blank.png,blank.png,blank.png,blank.png,blank.png,1,"[""chocolate_truffle.png""]",blank.png,blank.png,blank.png,0,blank.png,blank.png,blank.png,blank.png,blank.png,blank.png,PB01.png,,,,,,,,,,,1,,,,,,,,,,,,,382.35999999998603,,response,,,,,,,,,,,,,4,,,,,,,,,,,,,,,,,,,,,,,,,,,,,,,,,,,,,,,,,,,,,,,,,,,,,,,,,"[""grape.png""]","[""chocolate_truffle.png""]",,,,3,left,keydown(ArrowLeft),false,,1,,,,,,,506639,506633,506233.98,506249,506250.64,506685.92,,9,,
square,canvas.Screen,2_4_2_6_1_0_1_0_0_1_3,2021-05-24T16:17:38.548Z,,,blank.png,blank.png,blank.png,blank.png,blank.png,blank.png,blank.png,"[""chocolate_truffle.png""]",blank.png,blank.png,blank.png,blank.png,blank.png,,,,,,,,,,,,,,,,,,,,,,,,,,,,,"[""chocolate_truffle.png""]","[""grape.png""]",PB18.png,,,,,,,,,,,0,6,"[""grape.png""]","[""grape.png""]","[""grape.png""]","[""grape.png""]","[""grape.png""]","[""grape.png""]",blank.png,PB18.png,PB01.png,"[""grape.png""]","[""grape.png""]","[""grape.png""]","[""grape.png""]","[""grape.png""]","[""grape.png""]",blank.png,blank.png,blank.png,blank.png,blank.png,blank.png,1,"[""chocolate_truffle.png""]",blank.png,blank.png,blank.png,0,blank.png,blank.png,blank.png,blank.png,blank.png,blank.png,PB01.png,,,,,,,,,,,1,,,#33ff3f,#808080,,,,,,,,,1001.9800000000396,,timeout,,,,,,,,,,,,,4,,,,,,,,,,,,,,,,,,,,,,,,,,,,,,,,,,,,,,,,,,,,,,,,,,,,,,,,,"[""grape.png""]","[""chocolate_truffle.png""]",,,,3,,,false,,1,,,,,black,white,507675,507671.24,506669.24,506663,506685.92,507687.9,,,,
ITI_late,canvas.Screen,2_4_2_6_1_0_1_0_0_1_4,2021-05-24T16:17:39.550Z,,,blank.png,blank.png,blank.png,blank.png,blank.png,blank.png,blank.png,"[""chocolate_truffle.png""]",blank.png,blank.png,blank.png,blank.png,blank.png,,,,,,,,,,,,,,,,,,,,,,,,,,,,,"[""chocolate_truffle.png""]","[""grape.png""]",PB18.png,,,,,,,,,,,0,6,"[""grape.png""]","[""grape.png""]","[""grape.png""]","[""grape.png""]","[""grape.png""]","[""grape.png""]",blank.png,PB18.png,PB01.png,"[""grape.png""]","[""grape.png""]","[""grape.png""]","[""grape.png""]","[""grape.png""]","[""grape.png""]",blank.png,blank.png,blank.png,blank.png,blank.png,blank.png,1,"[""chocolate_truffle.png""]",blank.png,blank.png,blank.png,0,blank.png,blank.png,blank.png,blank.png,blank.png,blank.png,PB01.png,,,,,,,,,,,1,,,,,,,,,,,,,1003.859999999986,,timeout,,,,,,,,,,,,white,4,,,,,,,,,,,,,,,,,,,,,,,,,,,,,,,,,,,,,,,,,,,,,,,,,,,,,,,,,"[""grape.png""]","[""chocolate_truffle.png""]",,,,3,,,false,,1,,,,,,,508678,508675.08,507671.24,507679,507687.9,508691.76,,,,
choice_sequence,flow.Sequence,2_4_2_6_1_0_1_0_0_1,2021-05-24T16:17:39.551Z,,,blank.png,blank.png,blank.png,blank.png,blank.png,blank.png,blank.png,"[""chocolate_truffle.png""]",blank.png,blank.png,blank.png,blank.png,blank.png,,,,,,,,,,,,,,,,,,,,,,,,,,,,,"[""chocolate_truffle.png""]","[""grape.png""]",PB18.png,,,,,,,,,,,0,6,"[""grape.png""]","[""grape.png""]","[""grape.png""]","[""grape.png""]","[""grape.png""]","[""grape.png""]",blank.png,PB18.png,PB01.png,"[""grape.png""]","[""grape.png""]","[""grape.png""]","[""grape.png""]","[""grape.png""]","[""grape.png""]",blank.png,blank.png,blank.png,blank.png,blank.png,blank.png,1,"[""chocolate_truffle.png""]",blank.png,blank.png,blank.png,0,blank.png,blank.png,blank.png,blank.png,blank.png,blank.png,PB01.png,,,,,,,,,,,1,,,,,,,,,,,,,3178.280000000028,,completion,,,,,,,,,,,,,4,,,,,,,,,,,,,,,,,,,,,,,,,,,,,,,,,,,,,,,,,,,,,,,,,,,,,,,,,"[""grape.png""]","[""chocolate_truffle.png""]",,,,3,,,false,,1,,,,,,,508678,508675.08,505480.12,505499,505496.8,508691.76,,,,
fixCross,canvas.Screen,2_4_2_6_1_0_1_0_0_2_0,2021-05-24T16:17:40.002Z,,,blank.png,"[""chocolate_truffle.png""]",blank.png,blank.png,blank.png,blank.png,blank.png,blank.png,blank.png,blank.png,blank.png,blank.png,blank.png,,,,,,,,,,,,,,,,,,,,,,,,,,,,,"[""chocolate_truffle.png""]","[""grape.png""]",PB16.png,,,,,,,,,,,0,6,"[""grape.png""]","[""grape.png""]","[""grape.png""]","[""grape.png""]","[""grape.png""]","[""grape.png""]",blank.png,PB18.png,PB18.png,"[""grape.png""]","[""grape.png""]","[""grape.png""]","[""grape.png""]","[""grape.png""]",blank.png,"[""grape.png""]","[""grape.png""]","[""grape.png""]","[""grape.png""]","[""grape.png""]","[""grape.png""]",1,"[""chocolate_truffle.png""]",blank.png,blank.png,blank.png,5,"[""grape.png""]","[""grape.png""]","[""grape.png""]","[""grape.png""]","[""grape.png""]",blank.png,PB16.png,,,,,,,,,,,1,,,,,,,,,,,,,451.9400000000023,,timeout,,,,,,,,,,,,,3,,,,,,,,,,,,,,,,,,,,,,,,,,,,,,,,,,,,,,,,,,,,,,,,,,,,,,,,,"[""grape.png""]","[""chocolate_truffle.png""]",,,,3,,,false,,1,,,,,,,509130,509127.04,508675.08,508686,508691.76,509143.7,10,,,
timeout,canvas.Screen,2_4_2_6_1_0_1_0_0_2_1,2021-05-24T16:17:40.504Z,,,blank.png,"[""chocolate_truffle.png""]",blank.png,blank.png,blank.png,blank.png,blank.png,blank.png,blank.png,blank.png,blank.png,blank.png,blank.png,,,,,,,,,,,,,,,,,,,,,,,,,,,,,"[""chocolate_truffle.png""]","[""grape.png""]",PB16.png,,,,,,,,,,,0,6,"[""grape.png""]","[""grape.png""]","[""grape.png""]","[""grape.png""]","[""grape.png""]","[""grape.png""]",blank.png,PB18.png,PB18.png,"[""grape.png""]","[""grape.png""]","[""grape.png""]","[""grape.png""]","[""grape.png""]",blank.png,"[""grape.png""]","[""grape.png""]","[""grape.png""]","[""grape.png""]","[""grape.png""]","[""grape.png""]",1,"[""chocolate_truffle.png""]",blank.png,blank.png,blank.png,5,"[""grape.png""]","[""grape.png""]","[""grape.png""]","[""grape.png""]","[""grape.png""]",blank.png,PB16.png,,,,,,,,,,,1,,,,,,,,,,,,,501.8999999999651,,timeout,,,,,,,,,,,,,3,,,,,,,,,,,,,,,,,,,,,,,,,,,,,,,,,,,,,,,,,,,,,,,,,,,,,,,,,"[""grape.png""]","[""chocolate_truffle.png""]",,,,3,,,false,,1,,,,,,,509631,509628.94,509127.04,509152,509143.7,509645.6,,,,
choice,canvas.Screen,2_4_2_6_1_0_1_0_0_2_2,2021-05-24T16:17:41.625Z,,,blank.png,"[""chocolate_truffle.png""]",blank.png,blank.png,blank.png,blank.png,blank.png,blank.png,blank.png,blank.png,blank.png,blank.png,blank.png,,,,,,,,,,,,,,,,,,,,,,,,,,,,,"[""chocolate_truffle.png""]","[""grape.png""]",PB16.png,,,,,,,,,,,0,6,"[""grape.png""]","[""grape.png""]","[""grape.png""]","[""grape.png""]","[""grape.png""]","[""grape.png""]",blank.png,PB18.png,PB18.png,"[""grape.png""]","[""grape.png""]","[""grape.png""]","[""grape.png""]","[""grape.png""]",blank.png,"[""grape.png""]","[""grape.png""]","[""grape.png""]","[""grape.png""]","[""grape.png""]","[""grape.png""]",1,"[""chocolate_truffle.png""]",blank.png,blank.png,blank.png,5,"[""grape.png""]","[""grape.png""]","[""grape.png""]","[""grape.png""]","[""grape.png""]",blank.png,PB16.png,,,,,,,,,,,1,,,,,,,,,,,,,1097.4000000000233,,response,,,,,,,,,,,,,3,,,,,,,,,,,,,,,,,,,,,,,,,,,,,,,,,,,,,,,,,,,,,,,,,,,,,,,,,"[""grape.png""]","[""chocolate_truffle.png""]",,,,3,left,keydown(ArrowLeft),false,,1,,,,,,,510752,510743,509628.94,509642,509645.6,510782.72,,10,,
square,canvas.Screen,2_4_2_6_1_0_1_0_0_2_3,2021-05-24T16:17:42.645Z,,,blank.png,"[""chocolate_truffle.png""]",blank.png,blank.png,blank.png,blank.png,blank.png,blank.png,blank.png,blank.png,blank.png,blank.png,blank.png,,,,,,,,,,,,,,,,,,,,,,,,,,,,,"[""chocolate_truffle.png""]","[""grape.png""]",PB16.png,,,,,,,,,,,0,6,"[""grape.png""]","[""grape.png""]","[""grape.png""]","[""grape.png""]","[""grape.png""]","[""grape.png""]",blank.png,PB18.png,PB18.png,"[""grape.png""]","[""grape.png""]","[""grape.png""]","[""grape.png""]","[""grape.png""]",blank.png,"[""grape.png""]","[""grape.png""]","[""grape.png""]","[""grape.png""]","[""grape.png""]","[""grape.png""]",1,"[""chocolate_truffle.png""]",blank.png,blank.png,blank.png,5,"[""grape.png""]","[""grape.png""]","[""grape.png""]","[""grape.png""]","[""grape.png""]",blank.png,PB16.png,,,,,,,,,,,1,,,#33ff3f,#808080,,,,,,,,,1003.7600000000093,,timeout,,,,,,,,,,,,,3,,,,,,,,,,,,,,,,,,,,,,,,,,,,,,,,,,,,,,,,,,,,,,,,,,,,,,,,,"[""grape.png""]","[""chocolate_truffle.png""]",,,,3,,,false,,1,,,,,black,white,511772,511769.82,510766.06,510766,510782.72,511786.48,,,,
ITI_late,canvas.Screen,2_4_2_6_1_0_1_0_0_2_4,2021-05-24T16:17:43.147Z,,,blank.png,"[""chocolate_truffle.png""]",blank.png,blank.png,blank.png,blank.png,blank.png,blank.png,blank.png,blank.png,blank.png,blank.png,blank.png,,,,,,,,,,,,,,,,,,,,,,,,,,,,,"[""chocolate_truffle.png""]","[""grape.png""]",PB16.png,,,,,,,,,,,0,6,"[""grape.png""]","[""grape.png""]","[""grape.png""]","[""grape.png""]","[""grape.png""]","[""grape.png""]",blank.png,PB18.png,PB18.png,"[""grape.png""]","[""grape.png""]","[""grape.png""]","[""grape.png""]","[""grape.png""]",blank.png,"[""grape.png""]","[""grape.png""]","[""grape.png""]","[""grape.png""]","[""grape.png""]","[""grape.png""]",1,"[""chocolate_truffle.png""]",blank.png,blank.png,blank.png,5,"[""grape.png""]","[""grape.png""]","[""grape.png""]","[""grape.png""]","[""grape.png""]",blank.png,PB16.png,,,,,,,,,,,1,,,,,,,,,,,,,501.9400000000023,,timeout,,,,,,,,,,,,white,3,,,,,,,,,,,,,,,,,,,,,,,,,,,,,,,,,,,,,,,,,,,,,,,,,,,,,,,,,"[""grape.png""]","[""chocolate_truffle.png""]",,,,3,,,false,,1,,,,,,,512275,512271.76,511769.82,511777,511786.48,512288.42,,,,
choice_sequence,flow.Sequence,2_4_2_6_1_0_1_0_0_2,2021-05-24T16:17:43.148Z,,,blank.png,"[""chocolate_truffle.png""]",blank.png,blank.png,blank.png,blank.png,blank.png,blank.png,blank.png,blank.png,blank.png,blank.png,blank.png,,,,,,,,,,,,,,,,,,,,,,,,,,,,,"[""chocolate_truffle.png""]","[""grape.png""]",PB16.png,,,,,,,,,,,0,6,"[""grape.png""]","[""grape.png""]","[""grape.png""]","[""grape.png""]","[""grape.png""]","[""grape.png""]",blank.png,PB18.png,PB18.png,"[""grape.png""]","[""grape.png""]","[""grape.png""]","[""grape.png""]","[""grape.png""]",blank.png,"[""grape.png""]","[""grape.png""]","[""grape.png""]","[""grape.png""]","[""grape.png""]","[""grape.png""]",1,"[""chocolate_truffle.png""]",blank.png,blank.png,blank.png,5,"[""grape.png""]","[""grape.png""]","[""grape.png""]","[""grape.png""]","[""grape.png""]",blank.png,PB16.png,,,,,,,,,,,1,,,,,,,,,,,,,3580,,completion,,,,,,,,,,,,,3,,,,,,,,,,,,,,,,,,,,,,,,,,,,,,,,,,,,,,,,,,,,,,,,,,,,,,,,,"[""grape.png""]","[""chocolate_truffle.png""]",,,,3,,,false,,1,,,,,,,512276,512271.76,508675.08,508683,508691.76,512288.42,,,,
fixCross,canvas.Screen,2_4_2_6_1_0_1_0_0_3_0,2021-05-24T16:17:43.900Z,,,blank.png,"[""chocolate_truffle.png""]",blank.png,blank.png,blank.png,blank.png,blank.png,blank.png,blank.png,blank.png,blank.png,blank.png,blank.png,,,,,,,,,,,,,,,,,,,,,,,,,,,,,"[""chocolate_truffle.png""]","[""grape.png""]",PB17.png,,,,,,,,,,,0,6,"[""grape.png""]","[""grape.png""]","[""grape.png""]","[""grape.png""]","[""grape.png""]","[""grape.png""]",blank.png,PB18.png,PB18.png,"[""grape.png""]","[""grape.png""]","[""grape.png""]","[""grape.png""]","[""grape.png""]","[""grape.png""]","[""grape.png""]","[""grape.png""]","[""grape.png""]","[""grape.png""]","[""grape.png""]","[""grape.png""]",1,"[""chocolate_truffle.png""]",blank.png,blank.png,blank.png,6,"[""grape.png""]","[""grape.png""]","[""grape.png""]","[""grape.png""]","[""grape.png""]","[""grape.png""]",PB17.png,,,,,,,,,,,1,,,,,,,,,,,,,751.8600000000442,,timeout,,,,,,,,,,,,,3,,,,,,,,,,,,,,,,,,,,,,,,,,,,,,,,,,,,,,,,,,,,,,,,,,,,,,,,,"[""grape.png""]","[""chocolate_truffle.png""]",,,,3,,,false,,1,,,,,,,513026,513023.62,512271.76,512288,512288.42,513040.28,11,,,
timeout,canvas.Screen,2_4_2_6_1_0_1_0_0_3_1,2021-05-24T16:17:44.400Z,,,blank.png,"[""chocolate_truffle.png""]",blank.png,blank.png,blank.png,blank.png,blank.png,blank.png,blank.png,blank.png,blank.png,blank.png,blank.png,,,,,,,,,,,,,,,,,,,,,,,,,,,,,"[""chocolate_truffle.png""]","[""grape.png""]",PB17.png,,,,,,,,,,,0,6,"[""grape.png""]","[""grape.png""]","[""grape.png""]","[""grape.png""]","[""grape.png""]","[""grape.png""]",blank.png,PB18.png,PB18.png,"[""grape.png""]","[""grape.png""]","[""grape.png""]","[""grape.png""]","[""grape.png""]","[""grape.png""]","[""grape.png""]","[""grape.png""]","[""grape.png""]","[""grape.png""]","[""grape.png""]","[""grape.png""]",1,"[""chocolate_truffle.png""]",blank.png,blank.png,blank.png,6,"[""grape.png""]","[""grape.png""]","[""grape.png""]","[""grape.png""]","[""grape.png""]","[""grape.png""]",PB17.png,,,,,,,,,,,1,,,,,,,,,,,,,502.0799999999581,,timeout,,,,,,,,,,,,,3,,,,,,,,,,,,,,,,,,,,,,,,,,,,,,,,,,,,,,,,,,,,,,,,,,,,,,,,,"[""grape.png""]","[""chocolate_truffle.png""]",,,,3,,,false,,1,,,,,,,513528,513525.7,513023.62,513039,513040.28,513542.36,,,,
