sender,sender_type,sender_id,timestamp,meta,,Blank,DownLeft1,DownLeft2,DownLeft3,DownLeft4,DownLeft5,DownLeft6,DownRight1,DownRight2,DownRight3,DownRight4,DownRight5,DownRight6,FoodHabits_Fru_item1,FoodHabits_Fru_item2,FoodHabits_Fru_item3,FoodHabits_Fru_item4,FoodHabits_Fru_item5,FoodHabits_Fru_item6,FoodHabits_Fru_item7,FoodHabits_Meat_item1,FoodHabits_Meat_item2,FoodHabits_Meat_item3,FoodHabits_Meat_item4,FoodHabits_Meat_item5,FoodHabits_Meat_item6,FoodHabits_Meat_item7,FoodHabits_Swe_item1,FoodHabits_Swe_item2,FoodHabits_Swe_item3,FoodHabits_Swe_item4,FoodHabits_Swe_item5,FoodHabits_Swe_item6,FoodHabits_Swe_item7,FoodHabits_Veg_item1,FoodHabits_Veg_item2,FoodHabits_Veg_item3,FoodHabits_Veg_item4,FoodHabits_Veg_item5,FoodHabits_Veg_item6,FoodHabits_Veg_item7,ImgA,ImgB,LeftBar,PSS_item01,PSS_item02,PSS_item03,PSS_item04,PSS_item05,PSS_item06,PSS_item07,PSS_item08,PSS_item09,PSS_item10,RefA,RefB,RefB1,RefB2,RefB3,RefB4,RefB5,RefB6,RefB7,Ref_PB,RightBar,UpLeft1,UpLeft2,UpLeft3,UpLeft4,UpLeft5,UpLeft6,UpRight1,UpRight2,UpRight3,UpRight4,UpRight5,UpRight6,VarA,VarA1,VarA2,VarA3,VarA4,VarB,VarB1,VarB2,VarB3,VarB4,VarB5,VarB6,Var_PB,attCheck_fileA,attCheck_fileB,attCheck_fileC,attCheck_fileD,attCheck_options,attCheck_valueA,attCheck_valueB,attCheck_valueC,attCheck_valueD,attention_check,block,break1,browser_name,choseL,choseR,consent_form1,consent_form2,consentconfirmation_form1,consentconfirmation_form2,correct,correctResponse,diet,disorder,duration,edu,ended_on,enjoy,full_version,gender,group,hunger,img,imgTask,input_age,input_meal,input_occ,input_remark,lateRespFeed,list,major_version,message,mixQ_item1,mixQ_item2,mixQ_item3,mixQ_item4,mixQ_item5,name,navigator_appName,navigator_userAgent,os,pracQ1_IDa,pracQ1_IDb,pracQ1_IDc,pracQ1_IDd,pracQ1_optionA,pracQ1_optionB,pracQ1_optionC,pracQ1_optionD,pracQ1_valueA,pracQ1_valueB,pracQ1_valueC,pracQ1_valueD,pracQ2_IDa,pracQ2_IDb,pracQ2_IDc,pracQ2_optionA,pracQ2_optionB,pracQ2_optionC,pracQ2_valueA,pracQ2_valueB,pracQ2_valueC,pracQ4_IDa,pracQ4_IDb,pracQ4_IDc,pracQ4_IDd,pracQ4_optionA,pracQ4_optionB,pracQ4_optionC,pracQ4_optionD,pracQ4_valueA,pracQ4_valueB,pracQ4_valueC,pracQ4_valueD,pracQ5_IDa,pracQ5_IDb,pracQ5_IDc,pracQ5_IDd,pracQ5_optionA,pracQ5_optionB,pracQ5_optionC,pracQ5_optionD,pracQ5_valueA,pracQ5_valueB,pracQ5_valueC,pracQ5_valueD,prefHealty,prefUnhealthy,prolific_ID,psessionID,pstudyID,rep,response,response_action,skip,snack,sublock,subtitle,task_difficulty,task_engagement,task_focus,textL,textR,time_commit,time_end,time_render,time_run,time_show,time_switch,trial_count,trial_countO,url,valence
Title,html.Page,0,2021-05-24T16:11:03.424Z,"{""labjs_version"":""20.2.2"",""labjs_build"":{""flavor"":""production"",""commit"":""a25486e0c714a0ae2ce03ff94b7bb6896854dcfa""},""location"":""https://run.pavlovia.org/E3lab/rebund/html/?PROLIFIC_PID=5f85abb7fb2da303d2334d15&STUDY_ID=60008f34cd719d13b0d706dd&SESSION_ID=60abcff02af92e65e2511ed9"",""userAgent"":""Mozilla/5.0 (Windows NT 10.0; Win64; x64) AppleWebKit/537.36 (KHTML, like Gecko) Chrome/90.0.4430.212 Safari/537.36"",""platform"":""Win32"",""language"":""pl-PL"",""locale"":""pl"",""timeZone"":""Europe/Warsaw"",""timezoneOffset"":-120,""screen_width"":1920,""screen_height"":1080,""scroll_width"":1920,""scroll_height"":921,""window_innerWidth"":1920,""window_innerHeight"":969,""devicePixelRatio"":1}",,,,,,,,,,,,,,,,,,,,,,,,,,,,,,,,,,,,,,,,,,,,,,,,,,,,,,,,,,,,,,,,,,,,,,,,,,,,,,,,,,,,,,,,,,,,,,,,,,,,,,,,,,,,,,,,,,,16344.271999998458,,form submission,,,,,,,,,,,,,,,,,,,,,,,,,,,,,,,,,,,,,,,,,,,,,,,,,,,,,,,,,,,,,,,,,,,,,,,,,,,,,,,,,,,,,,,19047.254999997676,19046.71999999846,2685.869,2674.3249999999534,2702.448,19052.797,,,"{""PROLIFIC_PID"":""5f85abb7fb2da303d2334d15"",""STUDY_ID"":""60008f34cd719d13b0d706dd"",""SESSION_ID"":""60abcff02af92e65e2511ed9""}",
get_systemInfo,canvas.Screen,1,2021-05-24T16:11:03.442Z,,,,,,,,,,,,,,,,,,,,,,,,,,,,,,,,,,,,,,,,,,,,,,,,,,,,,,,,,,,,,,,,,,,,,,,,,,,,,,,,,,,,,,,,,,,,,,,,,,,,,,,,,Chrome,,,,,,,,,,,507578.478,,timeout,,90.0.4430.212,,,,,,,,,,,,90,,,,,,,,Netscape,"Mozilla/5.0 (Windows NT 10.0; Win64; x64) AppleWebKit/537.36 (KHTML, like Gecko) Chrome/90.0.4430.212 Safari/537.36",Windows,,,,,,,,,,,,,,,,,,,,,,,,,,,,,,,,,,,,,,,,,,,,,,,,5f85abb7fb2da303d2334d15,,60008f34cd719d13b0d706dd,,,,,,,,,,,,,19065.334999999322,19064.879999998084,19036.066,19048.244999998133,19052.797,526631.275,,,,
ConsentForm,html.Form,2_0,2021-05-24T16:20:10.089Z,,,,,,,,,,,,,,,,,,,,,,,,,,,,,,,,,,,,,,,,,,,,,,,,,,,,,,,,,,,,,,,,,,,,,,,,,,,,,,,,,,,,,,,,,,,,,,,,,,,,,,,,,,,,true,true,,,,,,,39079.95500000077,,form submission,,,,,,,,,,,,,,,,,,,,,,,,,,,,,,,,,,,,,,,,,,,,,,,,,,,,,,,,,,,,,,,,,,,,,,,,,,,,,,,,,,,,,,,565711.879999999,565711.2300000008,19064.879999998084,526647.2150000009,526631.275,565715.282,,,,
PepTalk,html.Page,2_1,2021-05-24T16:20:23.487Z,,,,,,,,,,,,,,,,,,,,,,,,,,,,,,,,,,,,,,,,,,,,,,,,,,,,,,,,,,,,,,,,,,,,,,,,,,,,,,,,,,,,,,,,,,,,,,,,,,,,,,,,,,,,,,,,,,,,13394.787999998778,,form submission,,,,,,,,,,,,,,,,,,,,,,,,,,,,,,,,,,,,,,,,,,,,,,,,,,,,,,,,,,,,,,,,,,,,,,,,,,,,,,,,,,,,,,,579110.3699999985,579110.0699999988,565698.693,565712.1899999983,565715.282,579115.61,,,,
Demographics,html.Form,2_2,2021-05-24T16:21:01.447Z,,,,,,,,,,,,,,,,,,,,,,,,,,,,,,,,,,,,,,,,,,,,,,,,,,,,,,,,,,,,,,,,,,,,,,,,,,,,,,,,,,,,,,,,,,,,,,,,,,,,,,,,,,,,,,,,,,,,37954.794999998645,2,form submission,,,2,,,,,21,,student,,,,,,,,,,,,,,,,,,,,,,,,,,,,,,,,,,,,,,,,,,,,,,,,,,,,,,,,,,,,,,,,,,,,,,,,,,,,,617070.7249999978,617070.4049999986,579099.249,579110.4549999982,579115.61,617083.157,,,,
InclusionCrit,html.Form,2_3,2021-05-24T16:21:36.135Z,,,,,,,,,,,,,,,,,,,,,,,,,,,,,,,,,,,,,,,,,,,,,,,,,,,,,,,,,,,,,,,,,,,,,,,,,,,,,,,,,,,,,,,,,,,,,,,,,,,,,,,,,,,,,,,,,,1,1,34675.16300000076,,form submission,1,,,,,,,,,,,,,,,,,,,,,,,,,,,,,,,,,,,,,,,,,,,,,,,,,,,,,,,,,,,,,,,,,,,,,,,,,,,,,,,,,,,,,,651758.679999999,651758.3200000008,617066.528,617070.8500000001,617083.157,651767.369,,,,
Selection,html.Page,2_4_0,2021-05-24T16:21:44.735Z,,,,,,,,,,,,,,,,,,,,,,,,,,,,,,,,,,,,,,,,,,,,,,,,,,,,,,,,,,,,,,,,,,,,,,,,,,,,,,,,,,,,,,,,,,,,,,,,,,,,,,,,,,,,,,,,,,,,8590.481000000378,,form submission,,,,,,,,,,,,,,,,,,,,,,,,,,,,,,,,,,,,,,,,,,,,,,,,,,,,,,,,,,,,,,,,,,,,,,,,,,,,,,,0,,,,,,,,660358.15,660357.8500000003,651750.706,651758.8499999983,651767.369,660367.54,,,,
Load,html.Page,2_4_1,2021-05-24T16:21:44.746Z,,,,,,,,,,,,,,,,,,,,,,,,,,,,,,,,,,,,,,,,,,,,,,,,,,,,,,,,,,,,,,,,,,,,,,,,,,,,,,,,,,,,,,,,,,,,,,,,,,,,,,,,,,,,,,,,,,,,7650.295999999973,,timeout,,,,,,,,,,,,,,,,,,,,,,,,,,,,,,,,,,,,,,,,,,,,,,,,,,,,,,,,,,,,,,,,,,,,,,,,,,,,,,,,,,,,,,,660369.7949999988,660369.5399999997,660350.828,660358.2700000006,660367.54,668017.836,,,,
ratings_instructions,html.Screen,2_4_2_0,2021-05-24T16:22:16.070Z,,,,,,,,,,,,,,,,,,,,,,,,,,,,,,,,,,,,,,,,,,,,,,,,,,,,,,,,,,,,,,,,,,,,,,,,,,,,,,,,,,,,,,,,,,,,,,,,,,,,,,,,,,,,,,,,,,,,23673.88900000055,,response,,,,,,,,,,,,,,,,,,,,,,,,,,,,,,,,,,,,,,,,,,,,,,,,,,,,,,,,,,,,,,,,,,,,,,,,,,,,continue,keypress(Space),false,,,,,,,,,691693.6900000001,691691.7250000006,660369.5399999997,668035.8149999992,668017.836,691718.284,0,0,,
fixCross,canvas.Screen,2_4_2_1_0_0,2021-05-24T16:22:16.579Z,,,,,,,,,,,,,,,,,,,,,,,,,,,,,,,,,,,,,,,,,,,,,,,,,,,,,,,,,,,,,,,,,,,,,,,,,,,,,,,,,,,,,,,,,,,,,,,,,,,,,,,,,,,,,,,,,,,,499.905999999959,,timeout,,,,healthy,,orange.png,,,,,,,,,,,,,,,orange,,,,,,,,,,,,,,,,,,,,,,,,,,,,,,,,,,,,,,,,,,,,,,,,,,,,,,,,,false,,,,,,,,,692202.4199999978,692201.662,691701.544,691694.015000001,691718.284,692218.19,,,,
Rating,html.Form,2_4_2_1_0_1,2021-05-24T16:22:23.032Z,,,,,,,,,,,,,,,,,,,,,,,,,,,,,,,,,,,,,,,,,,,,,,,,,,,,,,,,,,,,,,,,,,,,,,,,,,,,,,,,,,,,,,,,,,,,,,,,,,,,,,,,,,,,,,,,,,,,6436.754999998491,,form submission,,,,healthy,,orange.png,,,,,,,,,,,,,,,orange,,,,,,,,,,,,,,,,,,,,,,,,,,,,,,,,,,,,,,,,,,,,,,,,,,,,,,,,,false,,,,,,,,,698655.1699999982,698654.9449999984,692201.662,692202.5450000002,692218.19,698668.54,,,,86
rating_sequence,flow.Sequence,2_4_2_1_0,2021-05-24T16:22:23.032Z,,,,,,,,,,,,,,,,,,,,,,,,,,,,,,,,,,,,,,,,,,,,,,,,,,,,,,,,,,,,,,,,,,,,,,,,,,,,,,,,,,,,,,,,,,,,,,,,,,,,,,,,,,,,,,,,,,,,6936.66099999845,,completion,,,,healthy,,orange.png,,,,,,,,,,,,,,,orange,,,,,,,,,,,,,,,,,,,,,,,,,,,,,,,,,,,,,,,,,,,,,,,,,,,,,,,,,false,,,,,,,,,698655.3299999977,698654.9449999984,691701.544,691693.984999998,691718.284,698668.54,,,,
fixCross,canvas.Screen,2_4_2_1_1_0,2021-05-24T16:22:23.529Z,,,,,,,,,,,,,,,,,,,,,,,,,,,,,,,,,,,,,,,,,,,,,,,,,,,,,,,,,,,,,,,,,,,,,,,,,,,,,,,,,,,,,,,,,,,,,,,,,,,,,,,,,,,,,,,,,,,,499.8889999999665,,timeout,,,,healthy,,raspberry.png,,,,,,,,,,,,,,,raspberry,,,,,,,,,,,,,,,,,,,,,,,,,,,,,,,,,,,,,,,,,,,,,,,,,,,,,,,,,false,,,,,,,,,699152.4700000009,699151.73,698651.706,698655.4250000009,698668.54,699168.429,,,,
Rating,html.Form,2_4_2_1_1_1,2021-05-24T16:22:25.895Z,,,,,,,,,,,,,,,,,,,,,,,,,,,,,,,,,,,,,,,,,,,,,,,,,,,,,,,,,,,,,,,,,,,,,,,,,,,,,,,,,,,,,,,,,,,,,,,,,,,,,,,,,,,,,,,,,,,,2349.415999998455,,form submission,,,,healthy,,raspberry.png,,,,,,,,,,,,,,,raspberry,,,,,,,,,,,,,,,,,,,,,,,,,,,,,,,,,,,,,,,,,,,,,,,,,,,,,,,,,false,,,,,,,,,701518.1000000011,701517.8449999985,699151.73,699152.5750000001,699168.429,701535.534,,,,89
rating_sequence,flow.Sequence,2_4_2_1_1,2021-05-24T16:22:25.895Z,,,,,,,,,,,,,,,,,,,,,,,,,,,,,,,,,,,,,,,,,,,,,,,,,,,,,,,,,,,,,,,,,,,,,,,,,,,,,,,,,,,,,,,,,,,,,,,,,,,,,,,,,,,,,,,,,,,,2849.3049999984214,,completion,,,,healthy,,raspberry.png,,,,,,,,,,,,,,,raspberry,,,,,,,,,,,,,,,,,,,,,,,,,,,,,,,,,,,,,,,,,,,,,,,,,,,,,,,,,false,,,,,,,,,701518.2299999979,701517.8449999985,698651.706,698655.4049999977,698668.54,701535.534,,,,
fixCross,canvas.Screen,2_4_2_1_2_0,2021-05-24T16:22:26.397Z,,,,,,,,,,,,,,,,,,,,,,,,,,,,,,,,,,,,,,,,,,,,,,,,,,,,,,,,,,,,,,,,,,,,,,,,,,,,,,,,,,,,,,,,,,,,,,,,,,,,,,,,,,,,,,,,,,,,499.579000000027,,timeout,,,,healthy,,apple.png,,,,,,,,,,,,,,,apple,,,,,,,,,,,,,,,,,,,,,,,,,,,,,,,,,,,,,,,,,,,,,,,,,,,,,,,,,false,,,,,,,,,702020.4300000005,702018.47,701501.837,701518.3199999993,701535.534,702035.113,,,,
Rating,html.Form,2_4_2_1_2_1,2021-05-24T16:22:28.959Z,,,,,,,,,,,,,,,,,,,,,,,,,,,,,,,,,,,,,,,,,,,,,,,,,,,,,,,,,,,,,,,,,,,,,,,,,,,,,,,,,,,,,,,,,,,,,,,,,,,,,,,,,,,,,,,,,,,,2546.541999998153,,form submission,,,,healthy,,apple.png,,,,,,,,,,,,,,,apple,,,,,,,,,,,,,,,,,,,,,,,,,,,,,,,,,,,,,,,,,,,,,,,,,,,,,,,,,false,,,,,,,,,704581.9899999988,704581.6549999982,702018.47,702020.5249999999,702035.113,704585.117,,,,92
rating_sequence,flow.Sequence,2_4_2_1_2,2021-05-24T16:22:28.959Z,,,,,,,,,,,,,,,,,,,,,,,,,,,,,,,,,,,,,,,,,,,,,,,,,,,,,,,,,,,,,,,,,,,,,,,,,,,,,,,,,,,,,,,,,,,,,,,,,,,,,,,,,,,,,,,,,,,,3046.12099999818,,completion,,,,healthy,,apple.png,,,,,,,,,,,,,,,apple,,,,,,,,,,,,,,,,,,,,,,,,,,,,,,,,,,,,,,,,,,,,,,,,,,,,,,,,,false,,,,,,,,,704582.1399999986,704581.6549999982,701501.837,701518.29,701535.534,704585.117,,,,
fixCross,canvas.Screen,2_4_2_1_3_0,2021-05-24T16:22:29.446Z,,,,,,,,,,,,,,,,,,,,,,,,,,,,,,,,,,,,,,,,,,,,,,,,,,,,,,,,,,,,,,,,,,,,,,,,,,,,,,,,,,,,,,,,,,,,,,,,,,,,,,,,,,,,,,,,,,,,500.1260000000475,,timeout,,,,unhealthy,,m&m.png,,,,,,,,,,,,,,,m&m,,,,,,,,,,,,,,,,,,,,,,,,,,,,,,,,,,,,,,,,,,,,,,,,,,,,,,,,,false,,,,,,,,,705069.1550000011,705068.573,704568.566,704582.2249999982,704585.117,705085.243,,,,
Rating,html.Form,2_4_2_1_3_1,2021-05-24T16:22:33.639Z,,,,,,,,,,,,,,,,,,,,,,,,,,,,,,,,,,,,,,,,,,,,,,,,,,,,,,,,,,,,,,,,,,,,,,,,,,,,,,,,,,,,,,,,,,,,,,,,,,,,,,,,,,,,,,,,,,,,4176.531999998959,,form submission,,,,unhealthy,,m&m.png,,,,,,,,,,,,,,,m&m,,,,,,,,,,,,,,,,,,,,,,,,,,,,,,,,,,,,,,,,,,,,,,,,,,,,,,,,,false,,,,,,,,,709262.0150000002,709261.774999999,705068.573,705069.2400000007,705085.243,709268.61,,,,58
rating_sequence,flow.Sequence,2_4_2_1_3,2021-05-24T16:22:33.639Z,,,,,,,,,,,,,,,,,,,,,,,,,,,,,,,,,,,,,,,,,,,,,,,,,,,,,,,,,,,,,,,,,,,,,,,,,,,,,,,,,,,,,,,,,,,,,,,,,,,,,,,,,,,,,,,,,,,,4676.657999999006,,completion,,,,unhealthy,,m&m.png,,,,,,,,,,,,,,,m&m,,,,,,,,,,,,,,,,,,,,,,,,,,,,,,,,,,,,,,,,,,,,,,,,,,,,,,,,,false,,,,,,,,,709262.1350000008,709261.774999999,704568.566,704582.2000000008,704585.117,709268.61,,,,
fixCross,canvas.Screen,2_4_2_1_4_0,2021-05-24T16:22:34.129Z,,,,,,,,,,,,,,,,,,,,,,,,,,,,,,,,,,,,,,,,,,,,,,,,,,,,,,,,,,,,,,,,,,,,,,,,,,,,,,,,,,,,,,,,,,,,,,,,,,,,,,,,,,,,,,,,,,,,500.079000000027,,timeout,,,,healthy,,strawberry.png,,,,,,,,,,,,,,,strawberry,,,,,,,,,,,,,,,,,,,,,,,,,,,,,,,,,,,,,,,,,,,,,,,,,,,,,,,,,false,,,,,,,,,709752.4599999997,709751.982,709252.048,709262.2149999988,709268.61,709768.689,,,,
Rating,html.Form,2_4_2_1_4_1,2021-05-24T16:22:37.398Z,,,,,,,,,,,,,,,,,,,,,,,,,,,,,,,,,,,,,,,,,,,,,,,,,,,,,,,,,,,,,,,,,,,,,,,,,,,,,,,,,,,,,,,,,,,,,,,,,,,,,,,,,,,,,,,,,,,,3252.6760000004433,,form submission,,,,healthy,,strawberry.png,,,,,,,,,,,,,,,strawberry,,,,,,,,,,,,,,,,,,,,,,,,,,,,,,,,,,,,,,,,,,,,,,,,,,,,,,,,,false,,,,,,,,,713021.6450000007,713021.3650000005,709751.982,709752.6049999979,709768.689,713052.12,,,,95
rating_sequence,flow.Sequence,2_4_2_1_4,2021-05-24T16:22:37.399Z,,,,,,,,,,,,,,,,,,,,,,,,,,,,,,,,,,,,,,,,,,,,,,,,,,,,,,,,,,,,,,,,,,,,,,,,,,,,,,,,,,,,,,,,,,,,,,,,,,,,,,,,,,,,,,,,,,,,3752.7550000004703,,completion,,,,healthy,,strawberry.png,,,,,,,,,,,,,,,strawberry,,,,,,,,,,,,,,,,,,,,,,,,,,,,,,,,,,,,,,,,,,,,,,,,,,,,,,,,,false,,,,,,,,,713021.7950000006,713021.3650000005,709252.048,709262.1899999976,709268.61,713052.12,,,,
fixCross,canvas.Screen,2_4_2_1_5_0,2021-05-24T16:22:37.913Z,,,,,,,,,,,,,,,,,,,,,,,,,,,,,,,,,,,,,,,,,,,,,,,,,,,,,,,,,,,,,,,,,,,,,,,,,,,,,,,,,,,,,,,,,,,,,,,,,,,,,,,,,,,,,,,,,,,,500.0699999999488,,timeout,,,,healthy,,coconut.png,,,,,,,,,,,,,,,coconut,,,,,,,,,,,,,,,,,,,,,,,,,,,,,,,,,,,,,,,,,,,,,,,,,,,,,,,,,false,,,,,,,,,713536.1400000001,713535.544,713035.536,713021.8700000005,713052.12,713552.19,,,,
Rating,html.Form,2_4_2_1_5_1,2021-05-24T16:22:41.910Z,,,,,,,,,,,,,,,,,,,,,,,,,,,,,,,,,,,,,,,,,,,,,,,,,,,,,,,,,,,,,,,,,,,,,,,,,,,,,,,,,,,,,,,,,,,,,,,,,,,,,,,,,,,,,,,,,,,,3980.9699999990407,,form submission,,,,healthy,,coconut.png,,,,,,,,,,,,,,,coconut,,,,,,,,,,,,,,,,,,,,,,,,,,,,,,,,,,,,,,,,,,,,,,,,,,,,,,,,,false,,,,,,,,,717533.370000001,717533.159999999,713535.544,713536.2399999977,713552.19,717552.233,,,,64
rating_sequence,flow.Sequence,2_4_2_1_5,2021-05-24T16:22:41.910Z,,,,,,,,,,,,,,,,,,,,,,,,,,,,,,,,,,,,,,,,,,,,,,,,,,,,,,,,,,,,,,,,,,,,,,,,,,,,,,,,,,,,,,,,,,,,,,,,,,,,,,,,,,,,,,,,,,,,4481.0399999989895,,completion,,,,healthy,,coconut.png,,,,,,,,,,,,,,,coconut,,,,,,,,,,,,,,,,,,,,,,,,,,,,,,,,,,,,,,,,,,,,,,,,,,,,,,,,,false,,,,,,,,,717533.4949999996,717533.159999999,713035.536,713021.8449999993,713052.12,717552.233,,,,
fixCross,canvas.Screen,2_4_2_1_6_0,2021-05-24T16:22:42.413Z,,,,,,,,,,,,,,,,,,,,,,,,,,,,,,,,,,,,,,,,,,,,,,,,,,,,,,,,,,,,,,,,,,,,,,,,,,,,,,,,,,,,,,,,,,,,,,,,,,,,,,,,,,,,,,,,,,,,499.8649999999907,,timeout,,,,healthy,,grape.png,,,,,,,,,,,,,,,grape,,,,,,,,,,,,,,,,,,,,,,,,,,,,,,,,,,,,,,,,,,,,,,,,,,,,,,,,,false,,,,,,,,,718036.1750000011,718035.513,717535.467,717533.5699999996,717552.233,718052.098,,,,
Rating,html.Form,2_4_2_1_6_1,2021-05-24T16:22:45.735Z,,,,,,,,,,,,,,,,,,,,,,,,,,,,,,,,,,,,,,,,,,,,,,,,,,,,,,,,,,,,,,,,,,,,,,,,,,,,,,,,,,,,,,,,,,,,,,,,,,,,,,,,,,,,,,,,,,,,3305.706999999704,,form submission,,,,healthy,,grape.png,,,,,,,,,,,,,,,grape,,,,,,,,,,,,,,,,,,,,,,,,,,,,,,,,,,,,,,,,,,,,,,,,,,,,,,,,,false,,,,,,,,,721358.0399999991,721357.8049999997,718035.513,718036.2600000007,718052.098,721368.855,,,,71
rating_sequence,flow.Sequence,2_4_2_1_6,2021-05-24T16:22:45.735Z,,,,,,,,,,,,,,,,,,,,,,,,,,,,,,,,,,,,,,,,,,,,,,,,,,,,,,,,,,,,,,,,,,,,,,,,,,,,,,,,,,,,,,,,,,,,,,,,,,,,,,,,,,,,,,,,,,,,3805.5719999996945,,completion,,,,healthy,,grape.png,,,,,,,,,,,,,,,grape,,,,,,,,,,,,,,,,,,,,,,,,,,,,,,,,,,,,,,,,,,,,,,,,,,,,,,,,,false,,,,,,,,,721358.154999998,721357.8049999997,717535.467,717533.5449999984,717552.233,721368.855,,,,
fixCross,canvas.Screen,2_4_2_1_7_0,2021-05-24T16:22:46.229Z,,,,,,,,,,,,,,,,,,,,,,,,,,,,,,,,,,,,,,,,,,,,,,,,,,,,,,,,,,,,,,,,,,,,,,,,,,,,,,,,,,,,,,,,,,,,,,,,,,,,,,,,,,,,,,,,,,,,500.10700000007637,,timeout,,,,unhealthy,,maltesers.png,,,,,,,,,,,,,,,malteser,,,,,,,,,,,,,,,,,,,,,,,,,,,,,,,,,,,,,,,,,,,,,,,,,,,,,,,,,false,,,,,,,,,721852.7099999993,721852.274,721352.369,721358.229999998,721368.855,721868.962,,,,
Rating,html.Form,2_4_2_1_7_1,2021-05-24T16:22:57.910Z,,,,,,,,,,,,,,,,,,,,,,,,,,,,,,,,,,,,,,,,,,,,,,,,,,,,,,,,,,,,,,,,,,,,,,,,,,,,,,,,,,,,,,,,,,,,,,,,,,,,,,,,,,,,,,,,,,,,11664.418000000762,,form submission,,,,unhealthy,,maltesers.png,,,,,,,,,,,,,,,malteser,,,,,,,,,,,,,,,,,,,,,,,,,,,,,,,,,,,,,,,,,,,,,,,,,,,,,,,,,false,,,,,,,,,733533.6150000002,733533.3800000008,721852.274,721852.8000000005,721868.962,733552.508,,,,61
rating_sequence,flow.Sequence,2_4_2_1_7,2021-05-24T16:22:57.910Z,,,,,,,,,,,,,,,,,,,,,,,,,,,,,,,,,,,,,,,,,,,,,,,,,,,,,,,,,,,,,,,,,,,,,,,,,,,,,,,,,,,,,,,,,,,,,,,,,,,,,,,,,,,,,,,,,,,,12164.525000000838,,completion,,,,unhealthy,,maltesers.png,,,,,,,,,,,,,,,malteser,,,,,,,,,,,,,,,,,,,,,,,,,,,,,,,,,,,,,,,,,,,,,,,,,,,,,,,,,false,,,,,,,,,733533.739999999,733533.3800000008,721352.369,721358.2050000004,721368.855,733552.508,,,,
fixCross,canvas.Screen,2_4_2_1_8_0,2021-05-24T16:22:58.413Z,,,,,,,,,,,,,,,,,,,,,,,,,,,,,,,,,,,,,,,,,,,,,,,,,,,,,,,,,,,,,,,,,,,,,,,,,,,,,,,,,,,,,,,,,,,,,,,,,,,,,,,,,,,,,,,,,,,,500.00500000000466,,timeout,,,,unhealthy,,praline.png,,,,,,,,,,,,,,,praline,,,,,,,,,,,,,,,,,,,,,,,,,,,,,,,,,,,,,,,,,,,,,,,,,,,,,,,,,false,,,,,,,,,734036.505,734035.794,733535.848,733533.8100000008,733552.508,734052.513,,,,
Rating,html.Form,2_4_2_1_8_1,2021-05-24T16:23:02.439Z,,,,,,,,,,,,,,,,,,,,,,,,,,,,,,,,,,,,,,,,,,,,,,,,,,,,,,,,,,,,,,,,,,,,,,,,,,,,,,,,,,,,,,,,,,,,,,,,,,,,,,,,,,,,,,,,,,,,4009.381999998819,,form submission,,,,unhealthy,,praline.png,,,,,,,,,,,,,,,praline,,,,,,,,,,,,,,,,,,,,,,,,,,,,,,,,,,,,,,,,,,,,,,,,,,,,,,,,,false,,,,,,,,,738062.1499999979,738061.8949999989,734035.794,734036.6150000009,734052.513,738069.302,,,,63
rating_sequence,flow.Sequence,2_4_2_1_8,2021-05-24T16:23:02.439Z,,,,,,,,,,,,,,,,,,,,,,,,,,,,,,,,,,,,,,,,,,,,,,,,,,,,,,,,,,,,,,,,,,,,,,,,,,,,,,,,,,,,,,,,,,,,,,,,,,,,,,,,,,,,,,,,,,,,4509.386999998824,,completion,,,,unhealthy,,praline.png,,,,,,,,,,,,,,,praline,,,,,,,,,,,,,,,,,,,,,,,,,,,,,,,,,,,,,,,,,,,,,,,,,,,,,,,,,false,,,,,,,,,738062.2650000005,738061.8949999989,733535.848,733533.7849999997,733552.508,738069.302,,,,
fixCross,canvas.Screen,2_4_2_1_9_0,2021-05-24T16:23:02.930Z,,,,,,,,,,,,,,,,,,,,,,,,,,,,,,,,,,,,,,,,,,,,,,,,,,,,,,,,,,,,,,,,,,,,,,,,,,,,,,,,,,,,,,,,,,,,,,,,,,,,,,,,,,,,,,,,,,,,499.9619999999413,,timeout,,,,healthy,,cherry.png,,,,,,,,,,,,,,,cherry,,,,,,,,,,,,,,,,,,,,,,,,,,,,,,,,,,,,,,,,,,,,,,,,,,,,,,,,,false,,,,,,,,,738553.3250000008,738552.694,738052.659,738062.3400000004,738069.302,738569.264,,,,
Rating,html.Form,2_4_2_1_9_1,2021-05-24T16:23:14.447Z,,,,,,,,,,,,,,,,,,,,,,,,,,,,,,,,,,,,,,,,,,,,,,,,,,,,,,,,,,,,,,,,,,,,,,,,,,,,,,,,,,,,,,,,,,,,,,,,,,,,,,,,,,,,,,,,,,,,11500.73099999805,,form submission,,,,healthy,,cherry.png,,,,,,,,,,,,,,,cherry,,,,,,,,,,,,,,,,,,,,,,,,,,,,,,,,,,,,,,,,,,,,,,,,,,,,,,,,,false,,,,,,,,,750070.2500000007,750069.994999998,738552.694,738553.4550000011,738569.264,750086.369,,,,91
rating_sequence,flow.Sequence,2_4_2_1_9,2021-05-24T16:23:14.447Z,,,,,,,,,,,,,,,,,,,,,,,,,,,,,,,,,,,,,,,,,,,,,,,,,,,,,,,,,,,,,,,,,,,,,,,,,,,,,,,,,,,,,,,,,,,,,,,,,,,,,,,,,,,,,,,,,,,,12000.692999997991,,completion,,,,healthy,,cherry.png,,,,,,,,,,,,,,,cherry,,,,,,,,,,,,,,,,,,,,,,,,,,,,,,,,,,,,,,,,,,,,,,,,,,,,,,,,,false,,,,,,,,,750070.4249999981,750069.994999998,738052.659,738062.3200000009,738069.302,750086.369,,,,
fixCross,canvas.Screen,2_4_2_1_10_0,2021-05-24T16:23:14.947Z,,,,,,,,,,,,,,,,,,,,,,,,,,,,,,,,,,,,,,,,,,,,,,,,,,,,,,,,,,,,,,,,,,,,,,,,,,,,,,,,,,,,,,,,,,,,,,,,,,,,,,,,,,,,,,,,,,,,499.8610000000335,,timeout,,,,unhealthy,,chocolate.png,,,,,,,,,,,,,,,chocolate,,,,,,,,,,,,,,,,,,,,,,,,,,,,,,,,,,,,,,,,,,,,,,,,,,,,,,,,,false,,,,,,,,,750570.1300000001,750569.53,750069.554,750070.5049999997,750086.369,750586.23,,,,
Rating,html.Form,2_4_2_1_10_1,2021-05-24T16:23:18.551Z,,,,,,,,,,,,,,,,,,,,,,,,,,,,,,,,,,,,,,,,,,,,,,,,,,,,,,,,,,,,,,,,,,,,,,,,,,,,,,,,,,,,,,,,,,,,,,,,,,,,,,,,,,,,,,,,,,,,3587.534999999567,,form submission,,,,unhealthy,,chocolate.png,,,,,,,,,,,,,,,chocolate,,,,,,,,,,,,,,,,,,,,,,,,,,,,,,,,,,,,,,,,,,,,,,,,,,,,,,,,,false,,,,,,,,,754173.9849999977,754173.7649999995,750569.53,750570.2099999981,750586.23,754186.386,,,,60
rating_sequence,flow.Sequence,2_4_2_1_10,2021-05-24T16:23:18.551Z,,,,,,,,,,,,,,,,,,,,,,,,,,,,,,,,,,,,,,,,,,,,,,,,,,,,,,,,,,,,,,,,,,,,,,,,,,,,,,,,,,,,,,,,,,,,,,,,,,,,,,,,,,,,,,,,,,,,4087.3959999996005,,completion,,,,unhealthy,,chocolate.png,,,,,,,,,,,,,,,chocolate,,,,,,,,,,,,,,,,,,,,,,,,,,,,,,,,,,,,,,,,,,,,,,,,,,,,,,,,,false,,,,,,,,,754174.0900000004,754173.7649999995,750069.554,750070.4799999985,750086.369,754186.386,,,,
fixCross,canvas.Screen,2_4_2_1_11_0,2021-05-24T16:23:19.047Z,,,,,,,,,,,,,,,,,,,,,,,,,,,,,,,,,,,,,,,,,,,,,,,,,,,,,,,,,,,,,,,,,,,,,,,,,,,,,,,,,,,,,,,,,,,,,,,,,,,,,,,,,,,,,,,,,,,,499.9089999999851,,timeout,,,,healthy,,pear.png,,,,,,,,,,,,,,,pear,,,,,,,,,,,,,,,,,,,,,,,,,,,,,,,,,,,,,,,,,,,,,,,,,,,,,,,,,false,,,,,,,,,754670.299999998,754669.735,754169.706,754174.1599999986,754186.386,754686.295,,,,
Rating,html.Form,2_4_2_1_11_1,2021-05-24T16:23:22.215Z,,,,,,,,,,,,,,,,,,,,,,,,,,,,,,,,,,,,,,,,,,,,,,,,,,,,,,,,,,,,,,,,,,,,,,,,,,,,,,,,,,,,,,,,,,,,,,,,,,,,,,,,,,,,,,,,,,,,3151.484999998007,,form submission,,,,healthy,,pear.png,,,,,,,,,,,,,,,pear,,,,,,,,,,,,,,,,,,,,,,,,,,,,,,,,,,,,,,,,,,,,,,,,,,,,,,,,,false,,,,,,,,,757838.1850000005,757837.779999998,754669.735,754670.395000001,754686.295,757853.001,,,,59
rating_sequence,flow.Sequence,2_4_2_1_11,2021-05-24T16:23:22.215Z,,,,,,,,,,,,,,,,,,,,,,,,,,,,,,,,,,,,,,,,,,,,,,,,,,,,,,,,,,,,,,,,,,,,,,,,,,,,,,,,,,,,,,,,,,,,,,,,,,,,,,,,,,,,,,,,,,,,3651.393999997992,,completion,,,,healthy,,pear.png,,,,,,,,,,,,,,,pear,,,,,,,,,,,,,,,,,,,,,,,,,,,,,,,,,,,,,,,,,,,,,,,,,,,,,,,,,false,,,,,,,,,757838.3599999979,757837.779999998,754169.706,754174.1350000012,754186.386,757853.001,,,,
fixCross,canvas.Screen,2_4_2_1_12_0,2021-05-24T16:23:22.714Z,,,,,,,,,,,,,,,,,,,,,,,,,,,,,,,,,,,,,,,,,,,,,,,,,,,,,,,,,,,,,,,,,,,,,,,,,,,,,,,,,,,,,,,,,,,,,,,,,,,,,,,,,,,,,,,,,,,,500.05199999990873,,timeout,,,,unhealthy,,candy.png,,,,,,,,,,,,,,,candy,,,,,,,,,,,,,,,,,,,,,,,,,,,,,,,,,,,,,,,,,,,,,,,,,,,,,,,,,false,,,,,,,,,758337.0549999999,758336.487,757837.128,757838.4399999995,757853.001,758353.053,,,,
Rating,html.Form,2_4_2_1_12_1,2021-05-24T16:23:26.087Z,,,,,,,,,,,,,,,,,,,,,,,,,,,,,,,,,,,,,,,,,,,,,,,,,,,,,,,,,,,,,,,,,,,,,,,,,,,,,,,,,,,,,,,,,,,,,,,,,,,,,,,,,,,,,,,,,,,,3356.7119999997085,,form submission,,,,unhealthy,,candy.png,,,,,,,,,,,,,,,candy,,,,,,,,,,,,,,,,,,,,,,,,,,,,,,,,,,,,,,,,,,,,,,,,,,,,,,,,,false,,,,,,,,,761709.995000001,761709.7649999997,758336.487,758337.2199999976,758353.053,761719.869,,,,31
rating_sequence,flow.Sequence,2_4_2_1_12,2021-05-24T16:23:26.087Z,,,,,,,,,,,,,,,,,,,,,,,,,,,,,,,,,,,,,,,,,,,,,,,,,,,,,,,,,,,,,,,,,,,,,,,,,,,,,,,,,,,,,,,,,,,,,,,,,,,,,,,,,,,,,,,,,,,,3856.763999999617,,completion,,,,unhealthy,,candy.png,,,,,,,,,,,,,,,candy,,,,,,,,,,,,,,,,,,,,,,,,,,,,,,,,,,,,,,,,,,,,,,,,,,,,,,,,,false,,,,,,,,,761710.11,761709.7649999997,757837.128,757838.4100000003,757853.001,761719.869,,,,
fixCross,canvas.Screen,2_4_2_1_13_0,2021-05-24T16:23:26.580Z,,,,,,,,,,,,,,,,,,,,,,,,,,,,,,,,,,,,,,,,,,,,,,,,,,,,,,,,,,,,,,,,,,,,,,,,,,,,,,,,,,,,,,,,,,,,,,,,,,,,,,,,,,,,,,,,,,,,499.92800000007264,,timeout,,,,unhealthy,,gummybear.png,,,,,,,,,,,,,,,gummybear,,,,,,,,,,,,,,,,,,,,,,,,,,,,,,,,,,,,,,,,,,,,,,,,,,,,,,,,,false,,,,,,,,,762203.5849999993,762203.203,761703.127,761710.1849999999,761719.869,762219.797,,,,
Rating,html.Form,2_4_2_1_13_1,2021-05-24T16:23:29.063Z,,,,,,,,,,,,,,,,,,,,,,,,,,,,,,,,,,,,,,,,,,,,,,,,,,,,,,,,,,,,,,,,,,,,,,,,,,,,,,,,,,,,,,,,,,,,,,,,,,,,,,,,,,,,,,,,,,,,2465.9530000005616,,form submission,,,,unhealthy,,gummybear.png,,,,,,,,,,,,,,,gummybear,,,,,,,,,,,,,,,,,,,,,,,,,,,,,,,,,,,,,,,,,,,,,,,,,,,,,,,,,false,,,,,,,,,764685.9599999989,764685.7500000006,762203.203,762203.669999999,762219.797,764703.275,,,,63
rating_sequence,flow.Sequence,2_4_2_1_13,2021-05-24T16:23:29.063Z,,,,,,,,,,,,,,,,,,,,,,,,,,,,,,,,,,,,,,,,,,,,,,,,,,,,,,,,,,,,,,,,,,,,,,,,,,,,,,,,,,,,,,,,,,,,,,,,,,,,,,,,,,,,,,,,,,,,2965.8810000006342,,completion,,,,unhealthy,,gummybear.png,,,,,,,,,,,,,,,gummybear,,,,,,,,,,,,,,,,,,,,,,,,,,,,,,,,,,,,,,,,,,,,,,,,,,,,,,,,,false,,,,,,,,,764686.0749999979,764685.7500000006,761703.127,761710.1599999988,761719.869,764703.275,,,,
fixCross,canvas.Screen,2_4_2_1_14_0,2021-05-24T16:23:29.564Z,,,,,,,,,,,,,,,,,,,,,,,,,,,,,,,,,,,,,,,,,,,,,,,,,,,,,,,,,,,,,,,,,,,,,,,,,,,,,,,,,,,,,,,,,,,,,,,,,,,,,,,,,,,,,,,,,,,,500.0109999999404,,timeout,,,,healthy,,blueberry.png,,,,,,,,,,,,,,,blueberry,,,,,,,,,,,,,,,,,,,,,,,,,,,,,,,,,,,,,,,,,,,,,,,,,,,,,,,,,false,,,,,,,,,765187.1099999989,765186.64,764686.588,764686.1499999977,764703.275,765203.286,,,,
Rating,html.Form,2_4_2_1_14_1,2021-05-24T16:23:31.846Z,,,,,,,,,,,,,,,,,,,,,,,,,,,,,,,,,,,,,,,,,,,,,,,,,,,,,,,,,,,,,,,,,,,,,,,,,,,,,,,,,,,,,,,,,,,,,,,,,,,,,,,,,,,,,,,,,,,,2266.05899999768,,form submission,,,,healthy,,blueberry.png,,,,,,,,,,,,,,,blueberry,,,,,,,,,,,,,,,,,,,,,,,,,,,,,,,,,,,,,,,,,,,,,,,,,,,,,,,,,false,,,,,,,,,767469.5599999977,767469.3449999976,765186.64,765187.1900000005,765203.286,767486.581,,,,100
rating_sequence,flow.Sequence,2_4_2_1_14,2021-05-24T16:23:31.846Z,,,,,,,,,,,,,,,,,,,,,,,,,,,,,,,,,,,,,,,,,,,,,,,,,,,,,,,,,,,,,,,,,,,,,,,,,,,,,,,,,,,,,,,,,,,,,,,,,,,,,,,,,,,,,,,,,,,,2766.0699999976205,,completion,,,,healthy,,blueberry.png,,,,,,,,,,,,,,,blueberry,,,,,,,,,,,,,,,,,,,,,,,,,,,,,,,,,,,,,,,,,,,,,,,,,,,,,,,,,false,,,,,,,,,767469.6750000003,767469.3449999976,764686.588,764686.1299999983,764703.275,767486.581,,,,
fixCross,canvas.Screen,2_4_2_1_15_0,2021-05-24T16:23:32.347Z,,,,,,,,,,,,,,,,,,,,,,,,,,,,,,,,,,,,,,,,,,,,,,,,,,,,,,,,,,,,,,,,,,,,,,,,,,,,,,,,,,,,,,,,,,,,,,,,,,,,,,,,,,,,,,,,,,,,500.0709999999963,,timeout,,,,unhealthy,,liqorice.png,,,,,,,,,,,,,,,liquorice,,,,,,,,,,,,,,,,,,,,,,,,,,,,,,,,,,,,,,,,,,,,,,,,,,,,,,,,,false,,,,,,,,,767970.6699999988,767970.15,767470.056,767469.8299999982,767486.581,767986.652,,,,
Rating,html.Form,2_4_2_1_15_1,2021-05-24T16:23:35.086Z,,,,,,,,,,,,,,,,,,,,,,,,,,,,,,,,,,,,,,,,,,,,,,,,,,,,,,,,,,,,,,,,,,,,,,,,,,,,,,,,,,,,,,,,,,,,,,,,,,,,,,,,,,,,,,,,,,,,2722.832999999402,,form submission,,,,unhealthy,,liqorice.png,,,,,,,,,,,,,,,liquorice,,,,,,,,,,,,,,,,,,,,,,,,,,,,,,,,,,,,,,,,,,,,,,,,,,,,,,,,,false,,,,,,,,,770709.7150000009,770709.4849999994,767970.15,767970.7649999983,767986.652,770720.078,,,,61
rating_sequence,flow.Sequence,2_4_2_1_15,2021-05-24T16:23:35.086Z,,,,,,,,,,,,,,,,,,,,,,,,,,,,,,,,,,,,,,,,,,,,,,,,,,,,,,,,,,,,,,,,,,,,,,,,,,,,,,,,,,,,,,,,,,,,,,,,,,,,,,,,,,,,,,,,,,,,3222.9039999993984,,completion,,,,unhealthy,,liqorice.png,,,,,,,,,,,,,,,liquorice,,,,,,,,,,,,,,,,,,,,,,,,,,,,,,,,,,,,,,,,,,,,,,,,,,,,,,,,,false,,,,,,,,,770709.8299999998,770709.4849999994,767470.056,767469.7799999994,767486.581,770720.078,,,,
fixCross,canvas.Screen,2_4_2_1_16_0,2021-05-24T16:23:35.581Z,,,,,,,,,,,,,,,,,,,,,,,,,,,,,,,,,,,,,,,,,,,,,,,,,,,,,,,,,,,,,,,,,,,,,,,,,,,,,,,,,,,,,,,,,,,,,,,,,,,,,,,,,,,,,,,,,,,,499.9670000000624,,timeout,,,,unhealthy,,marshmallow.png,,,,,,,,,,,,,,,marshmallow,,,,,,,,,,,,,,,,,,,,,,,,,,,,,,,,,,,,,,,,,,,,,,,,,,,,,,,,,false,,,,,,,,,771203.9299999997,771203.347,770703.521,770709.9049999997,770720.078,771220.045,,,,
Rating,html.Form,2_4_2_1_16_1,2021-05-24T16:23:37.943Z,,,,,,,,,,,,,,,,,,,,,,,,,,,,,,,,,,,,,,,,,,,,,,,,,,,,,,,,,,,,,,,,,,,,,,,,,,,,,,,,,,,,,,,,,,,,,,,,,,,,,,,,,,,,,,,,,,,,2345.6249999998836,,form submission,,,,unhealthy,,marshmallow.png,,,,,,,,,,,,,,,marshmallow,,,,,,,,,,,,,,,,,,,,,,,,,,,,,,,,,,,,,,,,,,,,,,,,,,,,,,,,,false,,,,,,,,,773565.964999998,773565.6699999999,771203.347,771204.0149999993,771220.045,773586.78,,,,68
rating_sequence,flow.Sequence,2_4_2_1_16,2021-05-24T16:23:37.943Z,,,,,,,,,,,,,,,,,,,,,,,,,,,,,,,,,,,,,,,,,,,,,,,,,,,,,,,,,,,,,,,,,,,,,,,,,,,,,,,,,,,,,,,,,,,,,,,,,,,,,,,,,,,,,,,,,,,,2845.591999999946,,completion,,,,unhealthy,,marshmallow.png,,,,,,,,,,,,,,,marshmallow,,,,,,,,,,,,,,,,,,,,,,,,,,,,,,,,,,,,,,,,,,,,,,,,,,,,,,,,,false,,,,,,,,,773566.0800000005,773565.6699999999,770703.521,770709.8799999985,770720.078,773586.78,,,,
fixCross,canvas.Screen,2_4_2_1_17_0,2021-05-24T16:23:38.448Z,,,,,,,,,,,,,,,,,,,,,,,,,,,,,,,,,,,,,,,,,,,,,,,,,,,,,,,,,,,,,,,,,,,,,,,,,,,,,,,,,,,,,,,,,,,,,,,,,,,,,,,,,,,,,,,,,,,,500.0370000000112,,timeout,,,,unhealthy,,chocolate_truffle.png,,,,,,,,,,,,,,,chocolate truffle,,,,,,,,,,,,,,,,,,,,,,,,,,,,,,,,,,,,,,,,,,,,,,,,,,,,,,,,,false,,,,,,,,,774071.0450000006,774070.079,773570.111,773566.1499999987,773586.78,774086.817,,,,
Rating,html.Form,2_4_2_1_17_1,2021-05-24T16:23:40.991Z,,,,,,,,,,,,,,,,,,,,,,,,,,,,,,,,,,,,,,,,,,,,,,,,,,,,,,,,,,,,,,,,,,,,,,,,,,,,,,,,,,,,,,,,,,,,,,,,,,,,,,,,,,,,,,,,,,,,2526.9130000008736,,form submission,,,,unhealthy,,chocolate_truffle.png,,,,,,,,,,,,,,,chocolate truffle,,,,,,,,,,,,,,,,,,,,,,,,,,,,,,,,,,,,,,,,,,,,,,,,,,,,,,,,,false,,,,,,,,,776613.949999999,776613.7300000009,774070.079,774071.1349999984,774086.817,776620.151,,,,77
rating_sequence,flow.Sequence,2_4_2_1_17,2021-05-24T16:23:40.991Z,,,,,,,,,,,,,,,,,,,,,,,,,,,,,,,,,,,,,,,,,,,,,,,,,,,,,,,,,,,,,,,,,,,,,,,,,,,,,,,,,,,,,,,,,,,,,,,,,,,,,,,,,,,,,,,,,,,,3026.9500000008848,,completion,,,,unhealthy,,chocolate_truffle.png,,,,,,,,,,,,,,,chocolate truffle,,,,,,,,,,,,,,,,,,,,,,,,,,,,,,,,,,,,,,,,,,,,,,,,,,,,,,,,,false,,,,,,,,,776614.064999998,776613.7300000009,773570.111,773566.1249999976,773586.78,776620.151,,,,
rating_loop,flow.Loop,2_4_2_1,2021-05-24T16:23:40.991Z,,,,,,,,,,,,,,,,,,,,,,,,,,,,,,,,,,,,,,,,,,,,,,,,,,,,,,,,,,,,,,,,,,,,,,,,,,,,,,,,,,,,,,,,,,,,,,,,,,,,,,,,,,,,,,,,,,,,84895.44600000093,,completion,,,,,,,,,,,,,,,,,,,,,,,,,,,,,,,,,,,,,,,,,,,,,,,,,,,,,,,,,,,,,,,,,,,,,,,,,,,,,,false,,,,,,,,,776614.1549999993,776613.7300000009,691701.544,691693.940000001,691718.284,776620.151,,,,
data_transmission,html.Screen,2_4_2_2,2021-05-24T16:23:40.999Z,,,,,,,,,,,,,,,,,,,,,,,,,,,,,,,,,,,,,,,,,,,,,,,,,,,,,,,,,,,,,,,,,,,,,,,,,,,,,,,,,,,,,,,,,,,,,,,,,,,,,,,,,,,,,,,,,,,,NaN,,no compatible backend,,,,,,,,,,,,,,,Transferring data,,,,,,,,,,,,,,,,,,,,,,,,,,,,,,,,,,,,,,,,,,,,,,,,,,,,,,,,,,,,,,,false,,,Please wait a second…,,,,,,776622.6800000004,776622.510000001,,776614.2149999978,,776620.151,,,,
instructions,html.Screen,2_4_2_3,2021-05-24T16:24:56.319Z,,,,,,,,,,,,,,,,,,,,,,,,,,,,,,,,,,,,,,,,,,,,,,,,,,,,,,,,,,,,,,,,,,,,,,,,,,,,,,,,,,,,,,,,,,,,,,,,,,,,,,,,,,,,,,,,,,,,75322.42899999907,,done,,,,,,,,,,,,,,,,,,,,,,,,,,,,,,,,,,,,,,,,,,,,,,,,,,,,,,,,,,,,,,,,,,,,,,,,,,,,,,false,,,,,,,,,851942.7399999986,851942.579999999,776603.51,776622.8100000008,776620.151,851955.189,,,,
Q1,html.Screen,2_4_2_4_0,2021-05-24T16:25:05.543Z,,,,,,,,,,,,,,,,,,,,,,,,,,,,,,,,,,,,,,,,,,,,,,,,,,,,,,,,,,,,,,,,,,,,,,,,,,,,,,,,,,,,,,,,,,,,,,,,,,,,,,,,,,,,,,,,false,input_Q1==3,,,9209.555999998236,,response,,,,,,,,,,,,,,,,,,,,,,,,,Q1_i3,Q1_i2,Q1_i4,Q1_i1,3,2,4,1,correct,false,false,false,,,,,,,,,,,,,,,,,,,,,,,,,,,,,,,,,,,,,,,,,click #Q1_i3,false,,,,,,,,,861166.7400000006,861164.7449999982,851938.719,851942.8449999978,851955.189,861172.146,,,,
Q1_correct,html.Screen,2_4_2_4_1,2021-05-24T16:25:07.004Z,,,,,,,,,,,,,,,,,,,,,,,,,,,,,,,,,,,,,,,,,,,,,,,,,,,,,,,,,,,,,,,,,,,,,,,,,,,,,,,,,,,,,,,,,,,,,,,,,,,,,,,,,,,,,,,,,,,,1454.6639999980107,,response,,,,,,,,,,,,,,,,,,,,,,,,,,,,,,,,,,,,,,,,,,,,,,,,,,,,,,,,,,,,,,,,,,,,,,,,,,,,,keypress,false,,,,,,,,,862627.1799999995,862626.809999998,861155.571,861166.8449999997,861172.146,862638.792,,,,
Q2,html.Screen,2_4_2_4_2,2021-05-24T16:25:12.718Z,,,,,,,,,,,,,,,,,,,,,,,,,,,,,,,,,,,,,,,,,,,,,,,,,,,,,,,,,,,,,,,,,,,,,,,,,,,,,,,,,,,,,,,,,,,,,,,,,,,,,,,,,,,,,,,,,,,,5701.823000000906,,response,,,,,,,,,,,,,,,,,,,,,,,,,,,,,,,,,,,,,Q2_i3,Q2_i2,Q2_i1,Same amount,Option 2,Option 1,same,opt2,correct,,,,,,,,,,,,,,,,,,,,,,,,,,,,,,,,click #Q2_i1,false,,,,,,,,,868341.3299999993,868340.6150000009,862622.183,862627.2499999977,862638.792,868355.573,,,,
Q2_correct,html.Screen,2_4_2_4_3,2021-05-24T16:25:14.677Z,,,,,,,,,,,,,,,,,,,,,,,,,,,,,,,,,,,,,,,,,,,,,,,,,,,,,,,,,,,,,,,,,,,,,,,,,,,,,,,,,,,,,,,,,,,,,,,,,,,,,,,,,,,,,,,,,,,,1944.4320000009611,,response,,,,,,,,,,,,,,,,,,,,,,,,,,,,,,,,,,,,,,,,,,,,,,,,,,,,,,,,,,,,,,,,,,,,,,,,,,,,,keypress,false,,,,,,,,,870300.435000001,870300.0050000009,868338.959,868341.4449999982,868355.573,870305.614,,,,
Q4,html.Screen,2_4_2_4_4,2021-05-24T16:25:25.734Z,,,,,,,,,,,,,,,,,,,,,,,,,,,,,,,,,,,,,,,,,,,,,,,,,,,,,,,,,,,,,,,,,,,,,,,,,,,,,,,,,,,,,,,,,,,,,,,,,,,,,,,,,,,,,,,,,,,,11051.011000000406,,response,,,,,,,,,,,,,,,,,,,,,,,,,,,,,,,,,,,,,,,,,,,,,,Q4_i3,Q4_i4,Q4_i2,Q4_i1,Press the arrow key that corresponds with the snack option with more food items,Press the space key,Indicate the number of food items in each snack option,Press the arrow key that corresponds with the snack option I prefer,morefood,pressspace,indicate,correct,,,,,,,,,,,,,,,,,,,,click #Q4_i1,false,,,,,,,,,881357.4100000005,881356.6250000003,870289.215,870300.5300000005,870305.614,881372.522,,,,
Q4_correct,html.Screen,2_4_2_4_5,2021-05-24T16:25:26.973Z,,,,,,,,,,,,,,,,,,,,,,,,,,,,,,,,,,,,,,,,,,,,,,,,,,,,,,,,,,,,,,,,,,,,,,,,,,,,,,,,,,,,,,,,,,,,,,,,,,,,,,,,,,,,,,,,,,,,1222.9280000006547,,response,,,,,,,,,,,,,,,,,,,,,,,,,,,,,,,,,,,,,,,,,,,,,,,,,,,,,,,,,,,,,,,,,,,,,,,,,,,,,keypress,false,,,,,,,,,882595.9750000002,882595.4500000007,881355.935,881357.5400000009,881372.522,882605.908,,,,
Q5,html.Screen,2_4_2_4_6,2021-05-24T16:25:32.702Z,,,,,,,,,,,,,,,,,,,,,,,,,,,,,,,,,,,,,,,,,,,,,,,,,,,,,,,,,,,,,,,,,,,,,,,,,,,,,,,,,,,,,,,,,,,,,,,,,,,,,,,,,,,,,,,,,,,,5718.891999998479,,response,,,,,,,,,,,,,,,,,,,,,,,,,,,,,,,,,,,,,,,,,,,,,,,,,,,,,,,,,,Q5_i4,Q5_i3,Q5_i1,Q5_i2,Snack Option 1 has been chosen,There are more slices of kiwi in snack Option 1,Snack Option 2 has been chosen,There are more pieces of chocolate in snack Option 2,chose1,morekiwi1,correct,morechoc2,,,,,,,,click #Q5_i1,false,,,,,,,,,888325.4899999993,888324.7999999985,882589.384,882596.05,882605.908,888339.514,,,,
Q5_correct,html.Screen,2_4_2_4_7,2021-05-24T16:25:33.943Z,,,,,,,,,,,,,,,,,,,,,,,,,,,,,,,,,,,,,,,,,,,,,,,,,,,,,,,,,,,,,,,,,,,,,,,,,,,,,,,,,,,,,,,,,,,,,,,,,,,,,,,,,,,,,,,,,,,,1225.9509999996517,,response,,,,,,,,,,,,,,,,,,,,,,,,,,,,,,,,,,,,,,,,,,,,,,,,,,,,,,,,,,,,,,,,,,,,,,,,,,,,,keypress,false,,,,,,,,,889565.9699999996,889565.4649999996,888322.87,888325.5949999985,888339.514,889572.78,,,,
practice_sequence,flow.Sequence,2_4_2_4,2021-05-24T16:25:33.943Z,,,,,,,,,,,,,,,,,,,,,,,,,,,,,,,,,,,,,,,,,,,,,,,,,,,,,,,,,,,,,,,,,,,,,,,,,,,,,,,,,,,,,,,,,,,,,,,,,,,,,,,,,,,,,,,,,,,,37610.275999999605,,completion,,,,,,,,,,,,,,,,,,,,,,,,,,,,,,,,,,,,,,,,,,,,,,,,,,,,,,,,,,,,,,,,,,,,,,,,,,,,,,false,,,,,,,,,889566.1099999998,889565.4649999996,851938.719,851942.8149999985,851955.189,889572.78,,,,
final_instru,html.Screen,2_4_2_5,2021-05-24T16:26:01.747Z,,,,,,,,,,,,,,,,,,,,,,,,,,,,,,,,,,,,,,,,,,,,,,,,,,,,,,,,,,,,,,,,,,,,,,,,,,,,,,,,,,,,,,,,,,,,,,,,,,,,,,,,,,,,,,,,,,,,27797.624999997788,,done,,,,,,,,,,,,,,,,,,,,,,,,,,,,,,,,,,,,,,,,,,,,,,,,,,,,,,,,,,,,,,,,,,,,,,,,,,,,,,false,,,,,,,,,917370.5149999987,917370.4049999978,889556.109,889566.1899999977,889572.78,917373.364,,,,
blank_screen,canvas.Screen,2_4_2_6_0,2021-05-24T16:26:03.734Z,,,,,,,,,,,,,,,,,,,,,,,,,,,,,,,,,,,,,,,,,,,,,,,,,,,,,,,,,,,,,,,,,,,,,,,,,,,,,,,,,,,,,,,,,,,,,,,,,,,,,,,,,,,,,,,,,,,,2000.045000000042,,timeout,,,,,,,,,,,,,,,,,,,,,,,,,,,,,,,,,,,,,,,,,,,,,,,,,,,,,,,,,,,,,,,,,,,,,,,,,,,,,,false,,,,,,,,,919357.4049999989,919356.856,917356.862,917370.6099999981,917373.364,919373.409,,,,
fixCross,canvas.Screen,2_4_2_6_1_0_0_0_0_0_0,2021-05-24T16:26:03.986Z,,,blank.png,"[""chocolate_truffle.png""]",blank.png,blank.png,blank.png,blank.png,blank.png,blank.png,blank.png,blank.png,blank.png,blank.png,blank.png,,,,,,,,,,,,,,,,,,,,,,,,,,,,,"[""chocolate_truffle.png""]","[""blueberry.png""]",PB16.png,,,,,,,,,,,0,6,"[""blueberry.png""]","[""blueberry.png""]","[""blueberry.png""]","[""blueberry.png""]","[""blueberry.png""]","[""blueberry.png""]",blank.png,PB18.png,PB18.png,"[""blueberry.png""]","[""blueberry.png""]","[""blueberry.png""]","[""blueberry.png""]","[""blueberry.png""]",blank.png,"[""blueberry.png""]","[""blueberry.png""]","[""blueberry.png""]","[""blueberry.png""]","[""blueberry.png""]","[""blueberry.png""]",1,"[""chocolate_truffle.png""]",blank.png,blank.png,blank.png,5,"[""blueberry.png""]","[""blueberry.png""]","[""blueberry.png""]","[""blueberry.png""]","[""blueberry.png""]",blank.png,PB16.png,,,,,,,,,,,1,,,,,,,,,,,,,633.3669999999693,,timeout,,,,,,,,,,,,,3,,,,,,,,,,,,,,,,,,,,,,,,,,,,,,,,,,,,,,,,,,,,,,,,,,,,,,,,,"[""blueberry.png""]","[""chocolate_truffle.png""]",,,,4,,,false,,1,,,,,,,919609.6099999995,919606.823,919356.856,919383.8049999976,919373.409,920006.776,1,,,
timeout,canvas.Screen,2_4_2_6_1_0_0_0_0_0_1,2021-05-24T16:26:04.868Z,,,blank.png,"[""chocolate_truffle.png""]",blank.png,blank.png,blank.png,blank.png,blank.png,blank.png,blank.png,blank.png,blank.png,blank.png,blank.png,,,,,,,,,,,,,,,,,,,,,,,,,,,,,"[""chocolate_truffle.png""]","[""blueberry.png""]",PB16.png,,,,,,,,,,,0,6,"[""blueberry.png""]","[""blueberry.png""]","[""blueberry.png""]","[""blueberry.png""]","[""blueberry.png""]","[""blueberry.png""]",blank.png,PB18.png,PB18.png,"[""blueberry.png""]","[""blueberry.png""]","[""blueberry.png""]","[""blueberry.png""]","[""blueberry.png""]",blank.png,"[""blueberry.png""]","[""blueberry.png""]","[""blueberry.png""]","[""blueberry.png""]","[""blueberry.png""]","[""blueberry.png""]",1,"[""chocolate_truffle.png""]",blank.png,blank.png,blank.png,5,"[""blueberry.png""]","[""blueberry.png""]","[""blueberry.png""]","[""blueberry.png""]","[""blueberry.png""]",blank.png,PB16.png,,,,,,,,,,,1,,,,,,,,,,,,,983.4530000000959,,timeout,,,,,,,,,,,,,3,,,,,,,,,,,,,,,,,,,,,,,,,,,,,,,,,,,,,,,,,,,,,,,,,,,,,,,,,"[""blueberry.png""]","[""chocolate_truffle.png""]",,,,4,,,false,,1,,,,,,,920490.8799999976,920490.293,919606.823,920114.1949999983,920006.776,920990.229,,,,
choice,canvas.Screen,2_4_2_6_1_0_0_0_0_0_2,2021-05-24T16:26:06.890Z,,,blank.png,"[""chocolate_truffle.png""]",blank.png,blank.png,blank.png,blank.png,blank.png,blank.png,blank.png,blank.png,blank.png,blank.png,blank.png,,,,,,,,,,,,,,,,,,,,,,,,,,,,,"[""chocolate_truffle.png""]","[""blueberry.png""]",PB16.png,,,,,,,,,,,0,6,"[""blueberry.png""]","[""blueberry.png""]","[""blueberry.png""]","[""blueberry.png""]","[""blueberry.png""]","[""blueberry.png""]",blank.png,PB18.png,PB18.png,"[""blueberry.png""]","[""blueberry.png""]","[""blueberry.png""]","[""blueberry.png""]","[""blueberry.png""]",blank.png,"[""blueberry.png""]","[""blueberry.png""]","[""blueberry.png""]","[""blueberry.png""]","[""blueberry.png""]","[""blueberry.png""]",1,"[""chocolate_truffle.png""]",blank.png,blank.png,blank.png,5,"[""blueberry.png""]","[""blueberry.png""]","[""blueberry.png""]","[""blueberry.png""]","[""blueberry.png""]",blank.png,PB16.png,,,,,,,,,,,1,,,,,,,,,,,,,1521.95599999954,,response,,,,,,,,,,,,,3,,,,,,,,,,,,,,,,,,,,,,,,,,,,,,,,,,,,,,,,,,,,,,,,,,,,,,,,,"[""blueberry.png""]","[""chocolate_truffle.png""]",,,,4,left,keydown(ArrowLeft),false,,1,,,,,,,922512.8949999998,922512.1849999996,920490.293,920993.985000001,920990.229,922990.153,,1,,
square,canvas.Screen,2_4_2_6_1_0_0_0_0_0_3,2021-05-24T16:26:08.351Z,,,blank.png,"[""chocolate_truffle.png""]",blank.png,blank.png,blank.png,blank.png,blank.png,blank.png,blank.png,blank.png,blank.png,blank.png,blank.png,,,,,,,,,,,,,,,,,,,,,,,,,,,,,"[""chocolate_truffle.png""]","[""blueberry.png""]",PB16.png,,,,,,,,,,,0,6,"[""blueberry.png""]","[""blueberry.png""]","[""blueberry.png""]","[""blueberry.png""]","[""blueberry.png""]","[""blueberry.png""]",blank.png,PB18.png,PB18.png,"[""blueberry.png""]","[""blueberry.png""]","[""blueberry.png""]","[""blueberry.png""]","[""blueberry.png""]",blank.png,"[""blueberry.png""]","[""blueberry.png""]","[""blueberry.png""]","[""blueberry.png""]","[""blueberry.png""]","[""blueberry.png""]",1,"[""chocolate_truffle.png""]",blank.png,blank.png,blank.png,5,"[""blueberry.png""]","[""blueberry.png""]","[""blueberry.png""]","[""blueberry.png""]","[""blueberry.png""]",blank.png,PB16.png,,,,,,,,,,,1,,,#33ff3f,#808080,,,,,,,,,1000.2199999999721,,timeout,,,,,,,,,,,,,3,,,,,,,,,,,,,,,,,,,,,,,,,,,,,,,,,,,,,,,,,,,,,,,,,,,,,,,,,"[""blueberry.png""]","[""chocolate_truffle.png""]",,,,4,,,false,,1,,,,,black,white,923974.2349999979,923973.636,922973.543,922976.9899999992,922990.153,923990.373,,,,
ITI_late,canvas.Screen,2_4_2_6_1_0_0_0_0_0_4,2021-05-24T16:26:08.601Z,,,blank.png,"[""chocolate_truffle.png""]",blank.png,blank.png,blank.png,blank.png,blank.png,blank.png,blank.png,blank.png,blank.png,blank.png,blank.png,,,,,,,,,,,,,,,,,,,,,,,,,,,,,"[""chocolate_truffle.png""]","[""blueberry.png""]",PB16.png,,,,,,,,,,,0,6,"[""blueberry.png""]","[""blueberry.png""]","[""blueberry.png""]","[""blueberry.png""]","[""blueberry.png""]","[""blueberry.png""]",blank.png,PB18.png,PB18.png,"[""blueberry.png""]","[""blueberry.png""]","[""blueberry.png""]","[""blueberry.png""]","[""blueberry.png""]",blank.png,"[""blueberry.png""]","[""blueberry.png""]","[""blueberry.png""]","[""blueberry.png""]","[""blueberry.png""]","[""blueberry.png""]",1,"[""chocolate_truffle.png""]",blank.png,blank.png,blank.png,5,"[""blueberry.png""]","[""blueberry.png""]","[""blueberry.png""]","[""blueberry.png""]","[""blueberry.png""]",blank.png,PB16.png,,,,,,,,,,,1,,,,,,,,,,,,,249.7939999999944,,timeout,,,,,,,,,,,,white,3,,,,,,,,,,,,,,,,,,,,,,,,,,,,,,,,,,,,,,,,,,,,,,,,,,,,,,,,,"[""blueberry.png""]","[""chocolate_truffle.png""]",,,,4,,,false,,1,,,,,,,924224.2149999983,924223.703,923973.636,923975.3749999981,923990.373,924240.167,,,,
choice_sequence,flow.Sequence,2_4_2_6_1_0_0_0_0_0,2021-05-24T16:26:08.601Z,,,blank.png,"[""chocolate_truffle.png""]",blank.png,blank.png,blank.png,blank.png,blank.png,blank.png,blank.png,blank.png,blank.png,blank.png,blank.png,,,,,,,,,,,,,,,,,,,,,,,,,,,,,"[""chocolate_truffle.png""]","[""blueberry.png""]",PB16.png,,,,,,,,,,,0,6,"[""blueberry.png""]","[""blueberry.png""]","[""blueberry.png""]","[""blueberry.png""]","[""blueberry.png""]","[""blueberry.png""]",blank.png,PB18.png,PB18.png,"[""blueberry.png""]","[""blueberry.png""]","[""blueberry.png""]","[""blueberry.png""]","[""blueberry.png""]",blank.png,"[""blueberry.png""]","[""blueberry.png""]","[""blueberry.png""]","[""blueberry.png""]","[""blueberry.png""]","[""blueberry.png""]",1,"[""chocolate_truffle.png""]",blank.png,blank.png,blank.png,5,"[""blueberry.png""]","[""blueberry.png""]","[""blueberry.png""]","[""blueberry.png""]","[""blueberry.png""]",blank.png,PB16.png,,,,,,,,,,,1,,,,,,,,,,,,,4850.293999999994,,completion,,,,,,,,,,,,,3,,,,,,,,,,,,,,,,,,,,,,,,,,,,,,,,,,,,,,,,,,,,,,,,,,,,,,,,,"[""blueberry.png""]","[""chocolate_truffle.png""]",,,,4,,,false,,1,,,,,,,924224.549999999,924223.703,919356.856,919382.6750000007,919373.409,924240.167,,,,
fixCross,canvas.Screen,2_4_2_6_1_0_0_0_0_1_0,2021-05-24T16:26:09.252Z,,,blank.png,"[""chocolate_truffle.png""]",blank.png,blank.png,blank.png,blank.png,blank.png,blank.png,blank.png,blank.png,blank.png,blank.png,blank.png,,,,,,,,,,,,,,,,,,,,,,,,,,,,,"[""chocolate_truffle.png""]","[""blueberry.png""]",PB01.png,,,,,,,,,,,0,6,"[""blueberry.png""]","[""blueberry.png""]","[""blueberry.png""]","[""blueberry.png""]","[""blueberry.png""]","[""blueberry.png""]",blank.png,PB18.png,PB18.png,blank.png,blank.png,blank.png,blank.png,blank.png,blank.png,"[""blueberry.png""]","[""blueberry.png""]","[""blueberry.png""]","[""blueberry.png""]","[""blueberry.png""]","[""blueberry.png""]",1,"[""chocolate_truffle.png""]",blank.png,blank.png,blank.png,0,blank.png,blank.png,blank.png,blank.png,blank.png,blank.png,PB01.png,,,,,,,,,,,1,,,,,,,,,,,,,1000.0420000000158,,timeout,,,,,,,,,,,,,3,,,,,,,,,,,,,,,,,,,,,,,,,,,,,,,,,,,,,,,,,,,,,,,,,,,,,,,,,"[""blueberry.png""]","[""chocolate_truffle.png""]",,,,4,,,false,,1,,,,,,,924874.964999999,924873.527,924223.703,924228.0849999988,924240.167,925240.209,2,,,
timeout,canvas.Screen,2_4_2_6_1_0_0_0_0_1_1,2021-05-24T16:26:10.101Z,,,blank.png,"[""chocolate_truffle.png""]",blank.png,blank.png,blank.png,blank.png,blank.png,blank.png,blank.png,blank.png,blank.png,blank.png,blank.png,,,,,,,,,,,,,,,,,,,,,,,,,,,,,"[""chocolate_truffle.png""]","[""blueberry.png""]",PB01.png,,,,,,,,,,,0,6,"[""blueberry.png""]","[""blueberry.png""]","[""blueberry.png""]","[""blueberry.png""]","[""blueberry.png""]","[""blueberry.png""]",blank.png,PB18.png,PB18.png,blank.png,blank.png,blank.png,blank.png,blank.png,blank.png,"[""blueberry.png""]","[""blueberry.png""]","[""blueberry.png""]","[""blueberry.png""]","[""blueberry.png""]","[""blueberry.png""]",1,"[""chocolate_truffle.png""]",blank.png,blank.png,blank.png,0,blank.png,blank.png,blank.png,blank.png,blank.png,blank.png,PB01.png,,,,,,,,,,,1,,,,,,,,,,,,,866.6959999999963,,timeout,,,,,,,,,,,,,3,,,,,,,,,,,,,,,,,,,,,,,,,,,,,,,,,,,,,,,,,,,,,,,,,,,,,,,,,"[""blueberry.png""]","[""chocolate_truffle.png""]",,,,4,,,false,,1,,,,,,,925724.3899999994,925723.729,924873.527,925243.4099999991,925240.209,926106.905,,,,
choice,canvas.Screen,2_4_2_6_1_0_0_0_0_1_2,2021-05-24T16:26:10.990Z,,,blank.png,"[""chocolate_truffle.png""]",blank.png,blank.png,blank.png,blank.png,blank.png,blank.png,blank.png,blank.png,blank.png,blank.png,blank.png,,,,,,,,,,,,,,,,,,,,,,,,,,,,,"[""chocolate_truffle.png""]","[""blueberry.png""]",PB01.png,,,,,,,,,,,0,6,"[""blueberry.png""]","[""blueberry.png""]","[""blueberry.png""]","[""blueberry.png""]","[""blueberry.png""]","[""blueberry.png""]",blank.png,PB18.png,PB18.png,blank.png,blank.png,blank.png,blank.png,blank.png,blank.png,"[""blueberry.png""]","[""blueberry.png""]","[""blueberry.png""]","[""blueberry.png""]","[""blueberry.png""]","[""blueberry.png""]",1,"[""chocolate_truffle.png""]",blank.png,blank.png,blank.png,0,blank.png,blank.png,blank.png,blank.png,blank.png,blank.png,PB01.png,,,,,,,,,,,1,,,,,,,,,,,,,505.69999999844003,,response,,,,,,,,,,,,,3,,,,,,,,,,,,,,,,,,,,,,,,,,,,,,,,,,,,,,,,,,,,,,,,,,,,,,,,,"[""blueberry.png""]","[""chocolate_truffle.png""]",,,,4,right,keydown(ArrowRight),false,,1,,,,,,,926613.3549999977,926612.6049999985,925723.729,926109.805,926106.905,926990.231,,2,,
square,canvas.Screen,2_4_2_6_1_0_0_0_0_1_3,2021-05-24T16:26:12.351Z,,,blank.png,"[""chocolate_truffle.png""]",blank.png,blank.png,blank.png,blank.png,blank.png,blank.png,blank.png,blank.png,blank.png,blank.png,blank.png,,,,,,,,,,,,,,,,,,,,,,,,,,,,,"[""chocolate_truffle.png""]","[""blueberry.png""]",PB01.png,,,,,,,,,,,0,6,"[""blueberry.png""]","[""blueberry.png""]","[""blueberry.png""]","[""blueberry.png""]","[""blueberry.png""]","[""blueberry.png""]",blank.png,PB18.png,PB18.png,blank.png,blank.png,blank.png,blank.png,blank.png,blank.png,"[""blueberry.png""]","[""blueberry.png""]","[""blueberry.png""]","[""blueberry.png""]","[""blueberry.png""]","[""blueberry.png""]",1,"[""chocolate_truffle.png""]",blank.png,blank.png,blank.png,0,blank.png,blank.png,blank.png,blank.png,blank.png,blank.png,PB01.png,,,,,,,,,,,1,,,#808080,#33ff3f,,,,,,,,,1000.0449999999255,,timeout,,,,,,,,,,,,,3,,,,,,,,,,,,,,,,,,,,,,,,,,,,,,,,,,,,,,,,,,,,,,,,,,,,,,,,,"[""blueberry.png""]","[""chocolate_truffle.png""]",,,,4,,,false,,1,,,,,white,black,927974.2049999987,927973.616,926973.571,926981.2099999981,926990.231,927990.276,,,,
ITI_late,canvas.Screen,2_4_2_6_1_0_0_0_0_1_4,2021-05-24T16:26:13.351Z,,,blank.png,"[""chocolate_truffle.png""]",blank.png,blank.png,blank.png,blank.png,blank.png,blank.png,blank.png,blank.png,blank.png,blank.png,blank.png,,,,,,,,,,,,,,,,,,,,,,,,,,,,,"[""chocolate_truffle.png""]","[""blueberry.png""]",PB01.png,,,,,,,,,,,0,6,"[""blueberry.png""]","[""blueberry.png""]","[""blueberry.png""]","[""blueberry.png""]","[""blueberry.png""]","[""blueberry.png""]",blank.png,PB18.png,PB18.png,blank.png,blank.png,blank.png,blank.png,blank.png,blank.png,"[""blueberry.png""]","[""blueberry.png""]","[""blueberry.png""]","[""blueberry.png""]","[""blueberry.png""]","[""blueberry.png""]",1,"[""chocolate_truffle.png""]",blank.png,blank.png,blank.png,0,blank.png,blank.png,blank.png,blank.png,blank.png,blank.png,PB01.png,,,,,,,,,,,1,,,,,,,,,,,,,999.9470000000438,,timeout,,,,,,,,,,,,white,3,,,,,,,,,,,,,,,,,,,,,,,,,,,,,,,,,,,,,,,,,,,,,,,,,,,,,,,,,"[""blueberry.png""]","[""chocolate_truffle.png""]",,,,4,,,false,,1,,,,,,,928974.5049999983,928973.832,927973.616,927975.7949999985,927990.276,928990.223,,,,
choice_sequence,flow.Sequence,2_4_2_6_1_0_0_0_0_1,2021-05-24T16:26:13.352Z,,,blank.png,"[""chocolate_truffle.png""]",blank.png,blank.png,blank.png,blank.png,blank.png,blank.png,blank.png,blank.png,blank.png,blank.png,blank.png,,,,,,,,,,,,,,,,,,,,,,,,,,,,,"[""chocolate_truffle.png""]","[""blueberry.png""]",PB01.png,,,,,,,,,,,0,6,"[""blueberry.png""]","[""blueberry.png""]","[""blueberry.png""]","[""blueberry.png""]","[""blueberry.png""]","[""blueberry.png""]",blank.png,PB18.png,PB18.png,blank.png,blank.png,blank.png,blank.png,blank.png,blank.png,"[""blueberry.png""]","[""blueberry.png""]","[""blueberry.png""]","[""blueberry.png""]","[""blueberry.png""]","[""blueberry.png""]",1,"[""chocolate_truffle.png""]",blank.png,blank.png,blank.png,0,blank.png,blank.png,blank.png,blank.png,blank.png,blank.png,PB01.png,,,,,,,,,,,1,,,,,,,,,,,,,4733.665000000037,,completion,,,,,,,,,,,,,3,,,,,,,,,,,,,,,,,,,,,,,,,,,,,,,,,,,,,,,,,,,,,,,,,,,,,,,,,"[""blueberry.png""]","[""chocolate_truffle.png""]",,,,4,,,false,,1,,,,,,,928974.8350000009,928973.832,924223.703,924227.3849999984,924240.167,928990.223,,,,
fixCross,canvas.Screen,2_4_2_6_1_0_0_0_0_2_0,2021-05-24T16:26:13.751Z,,,blank.png,"[""chocolate_truffle.png""]",blank.png,blank.png,blank.png,blank.png,blank.png,blank.png,blank.png,blank.png,blank.png,blank.png,blank.png,,,,,,,,,,,,,,,,,,,,,,,,,,,,,"[""chocolate_truffle.png""]","[""blueberry.png""]",PB12.png,,,,,,,,,,,0,6,"[""blueberry.png""]","[""blueberry.png""]","[""blueberry.png""]","[""blueberry.png""]","[""blueberry.png""]","[""blueberry.png""]",blank.png,PB18.png,PB18.png,"[""blueberry.png""]","[""blueberry.png""]",blank.png,blank.png,blank.png,blank.png,"[""blueberry.png""]","[""blueberry.png""]","[""blueberry.png""]","[""blueberry.png""]","[""blueberry.png""]","[""blueberry.png""]",1,"[""chocolate_truffle.png""]",blank.png,blank.png,blank.png,2,"[""blueberry.png""]","[""blueberry.png""]",blank.png,blank.png,blank.png,blank.png,PB12.png,,,,,,,,,,,1,,,,,,,,,,,,,800.0359999999637,,timeout,,,,,,,,,,,,,3,,,,,,,,,,,,,,,,,,,,,,,,,,,,,,,,,,,,,,,,,,,,,,,,,,,,,,,,,"[""blueberry.png""]","[""chocolate_truffle.png""]",,,,4,,,false,,1,,,,,,,929374.380000001,929373.666,928973.832,928985.4699999996,928990.223,929790.259,3,,,
timeout,canvas.Screen,2_4_2_6_1_0_0_0_0_2_1,2021-05-24T16:26:14.651Z,,,blank.png,"[""chocolate_truffle.png""]",blank.png,blank.png,blank.png,blank.png,blank.png,blank.png,blank.png,blank.png,blank.png,blank.png,blank.png,,,,,,,,,,,,,,,,,,,,,,,,,,,,,"[""chocolate_truffle.png""]","[""blueberry.png""]",PB12.png,,,,,,,,,,,0,6,"[""blueberry.png""]","[""blueberry.png""]","[""blueberry.png""]","[""blueberry.png""]","[""blueberry.png""]","[""blueberry.png""]",blank.png,PB18.png,PB18.png,"[""blueberry.png""]","[""blueberry.png""]",blank.png,blank.png,blank.png,blank.png,"[""blueberry.png""]","[""blueberry.png""]","[""blueberry.png""]","[""blueberry.png""]","[""blueberry.png""]","[""blueberry.png""]",1,"[""chocolate_truffle.png""]",blank.png,blank.png,blank.png,2,"[""blueberry.png""]","[""blueberry.png""]",blank.png,blank.png,blank.png,blank.png,PB12.png,,,,,,,,,,,1,,,,,,,,,,,,,900.0720000000438,,timeout,,,,,,,,,,,,,3,,,,,,,,,,,,,,,,,,,,,,,,,,,,,,,,,,,,,,,,,,,,,,,,,,,,,,,,,"[""blueberry.png""]","[""chocolate_truffle.png""]",,,,4,,,false,,1,,,,,,,930274.6399999997,930273.863,929373.666,929794.965000001,929790.259,930690.331,,,,
choice,canvas.Screen,2_4_2_6_1_0_0_0_0_2_2,2021-05-24T16:26:15.989Z,,,blank.png,"[""chocolate_truffle.png""]",blank.png,blank.png,blank.png,blank.png,blank.png,blank.png,blank.png,blank.png,blank.png,blank.png,blank.png,,,,,,,,,,,,,,,,,,,,,,,,,,,,,"[""chocolate_truffle.png""]","[""blueberry.png""]",PB12.png,,,,,,,,,,,0,6,"[""blueberry.png""]","[""blueberry.png""]","[""blueberry.png""]","[""blueberry.png""]","[""blueberry.png""]","[""blueberry.png""]",blank.png,PB18.png,PB18.png,"[""blueberry.png""]","[""blueberry.png""]",blank.png,blank.png,blank.png,blank.png,"[""blueberry.png""]","[""blueberry.png""]","[""blueberry.png""]","[""blueberry.png""]","[""blueberry.png""]","[""blueberry.png""]",1,"[""chocolate_truffle.png""]",blank.png,blank.png,blank.png,2,"[""blueberry.png""]","[""blueberry.png""]",blank.png,blank.png,blank.png,blank.png,PB12.png,,,,,,,,,,,1,,,,,,,,,,,,,921.2439999990165,,response,,,,,,,,,,,,,3,,,,,,,,,,,,,,,,,,,,,,,,,,,,,,,,,,,,,,,,,,,,,,,,,,,,,,,,,"[""blueberry.png""]","[""chocolate_truffle.png""]",,,,4,right,keydown(ArrowRight),false,,1,,,,,,,931612.6949999998,931611.574999999,930273.863,930691.2499999999,930690.331,932023.683,,3,,
square,canvas.Screen,2_4_2_6_1_0_0_0_0_2_3,2021-05-24T16:26:17.385Z,,,blank.png,"[""chocolate_truffle.png""]",blank.png,blank.png,blank.png,blank.png,blank.png,blank.png,blank.png,blank.png,blank.png,blank.png,blank.png,,,,,,,,,,,,,,,,,,,,,,,,,,,,,"[""chocolate_truffle.png""]","[""blueberry.png""]",PB12.png,,,,,,,,,,,0,6,"[""blueberry.png""]","[""blueberry.png""]","[""blueberry.png""]","[""blueberry.png""]","[""blueberry.png""]","[""blueberry.png""]",blank.png,PB18.png,PB18.png,"[""blueberry.png""]","[""blueberry.png""]",blank.png,blank.png,blank.png,blank.png,"[""blueberry.png""]","[""blueberry.png""]","[""blueberry.png""]","[""blueberry.png""]","[""blueberry.png""]","[""blueberry.png""]",1,"[""chocolate_truffle.png""]",blank.png,blank.png,blank.png,2,"[""blueberry.png""]","[""blueberry.png""]",blank.png,blank.png,blank.png,blank.png,PB12.png,,,,,,,,,,,1,,,#808080,#33ff3f,,,,,,,,,1000.2079999999842,,timeout,,,,,,,,,,,,,3,,,,,,,,,,,,,,,,,,,,,,,,,,,,,,,,,,,,,,,,,,,,,,,,,,,,,,,,,"[""blueberry.png""]","[""chocolate_truffle.png""]",,,,4,,,false,,1,,,,,white,black,933007.9049999986,933007.197,932007.238,932015.3299999983,932023.683,933023.891,,,,
ITI_late,canvas.Screen,2_4_2_6_1_0_0_0_0_2_4,2021-05-24T16:26:17.885Z,,,blank.png,"[""chocolate_truffle.png""]",blank.png,blank.png,blank.png,blank.png,blank.png,blank.png,blank.png,blank.png,blank.png,blank.png,blank.png,,,,,,,,,,,,,,,,,,,,,,,,,,,,,"[""chocolate_truffle.png""]","[""blueberry.png""]",PB12.png,,,,,,,,,,,0,6,"[""blueberry.png""]","[""blueberry.png""]","[""blueberry.png""]","[""blueberry.png""]","[""blueberry.png""]","[""blueberry.png""]",blank.png,PB18.png,PB18.png,"[""blueberry.png""]","[""blueberry.png""]",blank.png,blank.png,blank.png,blank.png,"[""blueberry.png""]","[""blueberry.png""]","[""blueberry.png""]","[""blueberry.png""]","[""blueberry.png""]","[""blueberry.png""]",1,"[""chocolate_truffle.png""]",blank.png,blank.png,blank.png,2,"[""blueberry.png""]","[""blueberry.png""]",blank.png,blank.png,blank.png,blank.png,PB12.png,,,,,,,,,,,1,,,,,,,,,,,,,500.0130000000354,,timeout,,,,,,,,,,,,white,3,,,,,,,,,,,,,,,,,,,,,,,,,,,,,,,,,,,,,,,,,,,,,,,,,,,,,,,,,"[""blueberry.png""]","[""chocolate_truffle.png""]",,,,4,,,false,,1,,,,,,,933507.8450000001,933507.242,933007.197,933009.1699999976,933023.891,933523.904,,,,
choice_sequence,flow.Sequence,2_4_2_6_1_0_0_0_0_2,2021-05-24T16:26:17.885Z,,,blank.png,"[""chocolate_truffle.png""]",blank.png,blank.png,blank.png,blank.png,blank.png,blank.png,blank.png,blank.png,blank.png,blank.png,blank.png,,,,,,,,,,,,,,,,,,,,,,,,,,,,,"[""chocolate_truffle.png""]","[""blueberry.png""]",PB12.png,,,,,,,,,,,0,6,"[""blueberry.png""]","[""blueberry.png""]","[""blueberry.png""]","[""blueberry.png""]","[""blueberry.png""]","[""blueberry.png""]",blank.png,PB18.png,PB18.png,"[""blueberry.png""]","[""blueberry.png""]",blank.png,blank.png,blank.png,blank.png,"[""blueberry.png""]","[""blueberry.png""]","[""blueberry.png""]","[""blueberry.png""]","[""blueberry.png""]","[""blueberry.png""]",1,"[""chocolate_truffle.png""]",blank.png,blank.png,blank.png,2,"[""blueberry.png""]","[""blueberry.png""]",blank.png,blank.png,blank.png,blank.png,PB12.png,,,,,,,,,,,1,,,,,,,,,,,,,4517.018999999971,,completion,,,,,,,,,,,,,3,,,,,,,,,,,,,,,,,,,,,,,,,,,,,,,,,,,,,,,,,,,,,,,,,,,,,,,,,"[""blueberry.png""]","[""chocolate_truffle.png""]",,,,4,,,false,,1,,,,,,,933508.2199999997,933507.242,928973.832,928978.0549999996,928990.223,933523.904,,,,
fixCross,canvas.Screen,2_4_2_6_1_0_0_0_0_3_0,2021-05-24T16:26:18.535Z,,,blank.png,"[""chocolate_truffle.png""]",blank.png,blank.png,blank.png,blank.png,blank.png,blank.png,blank.png,blank.png,blank.png,blank.png,blank.png,,,,,,,,,,,,,,,,,,,,,,,,,,,,,"[""chocolate_truffle.png""]","[""blueberry.png""]",PB17.png,,,,,,,,,,,0,6,"[""blueberry.png""]","[""blueberry.png""]","[""blueberry.png""]","[""blueberry.png""]","[""blueberry.png""]","[""blueberry.png""]",blank.png,PB18.png,PB18.png,"[""blueberry.png""]","[""blueberry.png""]","[""blueberry.png""]","[""blueberry.png""]","[""blueberry.png""]","[""blueberry.png""]","[""blueberry.png""]","[""blueberry.png""]","[""blueberry.png""]","[""blueberry.png""]","[""blueberry.png""]","[""blueberry.png""]",1,"[""chocolate_truffle.png""]",blank.png,blank.png,blank.png,6,"[""blueberry.png""]","[""blueberry.png""]","[""blueberry.png""]","[""blueberry.png""]","[""blueberry.png""]","[""blueberry.png""]",PB17.png,,,,,,,,,,,1,,,,,,,,,,,,,1133.2240000000456,,timeout,,,,,,,,,,,,,3,,,,,,,,,,,,,,,,,,,,,,,,,,,,,,,,,,,,,,,,,,,,,,,,,,,,,,,,,"[""blueberry.png""]","[""chocolate_truffle.png""]",,,,4,,,false,,1,,,,,,,934157.8149999987,934157.264,933507.242,933512.2599999995,933523.904,934657.128,4,,,
timeout,canvas.Screen,2_4_2_6_1_0_0_0_0_3_1,2021-05-24T16:26:19.518Z,,,blank.png,"[""chocolate_truffle.png""]",blank.png,blank.png,blank.png,blank.png,blank.png,blank.png,blank.png,blank.png,blank.png,blank.png,blank.png,,,,,,,,,,,,,,,,,,,,,,,,,,,,,"[""chocolate_truffle.png""]","[""blueberry.png""]",PB17.png,,,,,,,,,,,0,6,"[""blueberry.png""]","[""blueberry.png""]","[""blueberry.png""]","[""blueberry.png""]","[""blueberry.png""]","[""blueberry.png""]",blank.png,PB18.png,PB18.png,"[""blueberry.png""]","[""blueberry.png""]","[""blueberry.png""]","[""blueberry.png""]","[""blueberry.png""]","[""blueberry.png""]","[""blueberry.png""]","[""blueberry.png""]","[""blueberry.png""]","[""blueberry.png""]","[""blueberry.png""]","[""blueberry.png""]",1,"[""chocolate_truffle.png""]",blank.png,blank.png,blank.png,6,"[""blueberry.png""]","[""blueberry.png""]","[""blueberry.png""]","[""blueberry.png""]","[""blueberry.png""]","[""blueberry.png""]",PB17.png,,,,,,,,,,,1,,,,,,,,,,,,,983.265000000014,,timeout,,,,,,,,,,,,,3,,,,,,,,,,,,,,,,,,,,,,,,,,,,,,,,,,,,,,,,,,,,,,,,,,,,,,,,,"[""blueberry.png""]","[""chocolate_truffle.png""]",,,,4,,,false,,1,,,,,,,935140.9400000011,935140.436,934157.264,934660.86,934657.128,935640.393,,,,
choice,canvas.Screen,2_4_2_6_1_0_0_0_0_3_2,2021-05-24T16:26:20.209Z,,,blank.png,"[""chocolate_truffle.png""]",blank.png,blank.png,blank.png,blank.png,blank.png,blank.png,blank.png,blank.png,blank.png,blank.png,blank.png,,,,,,,,,,,,,,,,,,,,,,,,,,,,,"[""chocolate_truffle.png""]","[""blueberry.png""]",PB17.png,,,,,,,,,,,0,6,"[""blueberry.png""]","[""blueberry.png""]","[""blueberry.png""]","[""blueberry.png""]","[""blueberry.png""]","[""blueberry.png""]",blank.png,PB18.png,PB18.png,"[""blueberry.png""]","[""blueberry.png""]","[""blueberry.png""]","[""blueberry.png""]","[""blueberry.png""]","[""blueberry.png""]","[""blueberry.png""]","[""blueberry.png""]","[""blueberry.png""]","[""blueberry.png""]","[""blueberry.png""]","[""blueberry.png""]",1,"[""chocolate_truffle.png""]",blank.png,blank.png,blank.png,6,"[""blueberry.png""]","[""blueberry.png""]","[""blueberry.png""]","[""blueberry.png""]","[""blueberry.png""]","[""blueberry.png""]",PB17.png,,,,,,,,,,,1,,,,,,,,,,,,,190.68199999816716,,response,,,,,,,,,,,,,3,,,,,,,,,,,,,,,,,,,,,,,,,,,,,,,,,,,,,,,,,,,,,,,,,,,,,,,,,"[""blueberry.png""]","[""chocolate_truffle.png""]",,,,4,left,keydown(ArrowLeft),false,,1,,,,,,,935831.9599999995,935831.0749999982,935140.436,935640.9149999999,935640.393,936323.845,,4,,
square,canvas.Screen,2_4_2_6_1_0_0_0_0_3_3,2021-05-24T16:26:21.685Z,,,blank.png,"[""chocolate_truffle.png""]",blank.png,blank.png,blank.png,blank.png,blank.png,blank.png,blank.png,blank.png,blank.png,blank.png,blank.png,,,,,,,,,,,,,,,,,,,,,,,,,,,,,"[""chocolate_truffle.png""]","[""blueberry.png""]",PB17.png,,,,,,,,,,,0,6,"[""blueberry.png""]","[""blueberry.png""]","[""blueberry.png""]","[""blueberry.png""]","[""blueberry.png""]","[""blueberry.png""]",blank.png,PB18.png,PB18.png,"[""blueberry.png""]","[""blueberry.png""]","[""blueberry.png""]","[""blueberry.png""]","[""blueberry.png""]","[""blueberry.png""]","[""blueberry.png""]","[""blueberry.png""]","[""blueberry.png""]","[""blueberry.png""]","[""blueberry.png""]","[""blueberry.png""]",1,"[""chocolate_truffle.png""]",blank.png,blank.png,blank.png,6,"[""blueberry.png""]","[""blueberry.png""]","[""blueberry.png""]","[""blueberry.png""]","[""blueberry.png""]","[""blueberry.png""]",PB17.png,,,,,,,,,,,1,,,#33ff3f,#808080,,,,,,,,,1000.1800000000512,,timeout,,,,,,,,,,,,,3,,,,,,,,,,,,,,,,,,,,,,,,,,,,,,,,,,,,,,,,,,,,,,,,,,,,,,,,,"[""blueberry.png""]","[""chocolate_truffle.png""]",,,,4,,,false,,1,,,,,black,white,937307.9599999983,937307.207,936307.11,936318.5249999987,936323.845,937324.025,,,,
ITI_late,canvas.Screen,2_4_2_6_1_0_0_0_0_3_4,2021-05-24T16:26:22.185Z,,,blank.png,"[""chocolate_truffle.png""]",blank.png,blank.png,blank.png,blank.png,blank.png,blank.png,blank.png,blank.png,blank.png,blank.png,blank.png,,,,,,,,,,,,,,,,,,,,,,,,,,,,,"[""chocolate_truffle.png""]","[""blueberry.png""]",PB17.png,,,,,,,,,,,0,6,"[""blueberry.png""]","[""blueberry.png""]","[""blueberry.png""]","[""blueberry.png""]","[""blueberry.png""]","[""blueberry.png""]",blank.png,PB18.png,PB18.png,"[""blueberry.png""]","[""blueberry.png""]","[""blueberry.png""]","[""blueberry.png""]","[""blueberry.png""]","[""blueberry.png""]","[""blueberry.png""]","[""blueberry.png""]","[""blueberry.png""]","[""blueberry.png""]","[""blueberry.png""]","[""blueberry.png""]",1,"[""chocolate_truffle.png""]",blank.png,blank.png,blank.png,6,"[""blueberry.png""]","[""blueberry.png""]","[""blueberry.png""]","[""blueberry.png""]","[""blueberry.png""]","[""blueberry.png""]",PB17.png,,,,,,,,,,,1,,,,,,,,,,,,,499.79200000001583,,timeout,,,,,,,,,,,,white,3,,,,,,,,,,,,,,,,,,,,,,,,,,,,,,,,,,,,,,,,,,,,,,,,,,,,,,,,,"[""blueberry.png""]","[""chocolate_truffle.png""]",,,,4,,,false,,1,,,,,,,937807.850000001,937807.297,937307.207,937309.4500000007,937324.025,937823.817,,,,
choice_sequence,flow.Sequence,2_4_2_6_1_0_0_0_0_3,2021-05-24T16:26:22.185Z,,,blank.png,"[""chocolate_truffle.png""]",blank.png,blank.png,blank.png,blank.png,blank.png,blank.png,blank.png,blank.png,blank.png,blank.png,blank.png,,,,,,,,,,,,,,,,,,,,,,,,,,,,,"[""chocolate_truffle.png""]","[""blueberry.png""]",PB17.png,,,,,,,,,,,0,6,"[""blueberry.png""]","[""blueberry.png""]","[""blueberry.png""]","[""blueberry.png""]","[""blueberry.png""]","[""blueberry.png""]",blank.png,PB18.png,PB18.png,"[""blueberry.png""]","[""blueberry.png""]","[""blueberry.png""]","[""blueberry.png""]","[""blueberry.png""]","[""blueberry.png""]","[""blueberry.png""]","[""blueberry.png""]","[""blueberry.png""]","[""blueberry.png""]","[""blueberry.png""]","[""blueberry.png""]",1,"[""chocolate_truffle.png""]",blank.png,blank.png,blank.png,6,"[""blueberry.png""]","[""blueberry.png""]","[""blueberry.png""]","[""blueberry.png""]","[""blueberry.png""]","[""blueberry.png""]",PB17.png,,,,,,,,,,,1,,,,,,,,,,,,,4283.39300000004,,completion,,,,,,,,,,,,,3,,,,,,,,,,,,,,,,,,,,,,,,,,,,,,,,,,,,,,,,,,,,,,,,,,,,,,,,,"[""blueberry.png""]","[""chocolate_truffle.png""]",,,,4,,,false,,1,,,,,,,937808.6249999979,937807.297,933507.242,933511.5149999983,933523.904,937823.817,,,,
fixCross,canvas.Screen,2_4_2_6_1_0_0_0_0_4_0,2021-05-24T16:26:22.835Z,,,blank.png,blank.png,blank.png,blank.png,blank.png,blank.png,blank.png,"[""chocolate_truffle.png""]",blank.png,blank.png,blank.png,blank.png,blank.png,,,,,,,,,,,,,,,,,,,,,,,,,,,,,"[""chocolate_truffle.png""]","[""blueberry.png""]",PB18.png,,,,,,,,,,,0,6,"[""blueberry.png""]","[""blueberry.png""]","[""blueberry.png""]","[""blueberry.png""]","[""blueberry.png""]","[""blueberry.png""]",blank.png,PB18.png,PB14.png,"[""blueberry.png""]","[""blueberry.png""]","[""blueberry.png""]","[""blueberry.png""]","[""blueberry.png""]","[""blueberry.png""]","[""blueberry.png""]","[""blueberry.png""]","[""blueberry.png""]",blank.png,blank.png,blank.png,1,"[""chocolate_truffle.png""]",blank.png,blank.png,blank.png,3,"[""blueberry.png""]","[""blueberry.png""]","[""blueberry.png""]",blank.png,blank.png,blank.png,PB14.png,,,,,,,,,,,1,,,,,,,,,,,,,1083.4039999999804,,timeout,,,,,,,,,,,,,4,,,,,,,,,,,,,,,,,,,,,,,,,,,,,,,,,,,,,,,,,,,,,,,,,,,,,,,,,"[""blueberry.png""]","[""chocolate_truffle.png""]",,,,4,,,false,,1,,,,,,,938457.8199999996,938457.192,937807.297,937813.435,937823.817,938907.221,5,,,
timeout,canvas.Screen,2_4_2_6_1_0_0_0_0_4_1,2021-05-24T16:26:23.768Z,,,blank.png,blank.png,blank.png,blank.png,blank.png,blank.png,blank.png,"[""chocolate_truffle.png""]",blank.png,blank.png,blank.png,blank.png,blank.png,,,,,,,,,,,,,,,,,,,,,,,,,,,,,"[""chocolate_truffle.png""]","[""blueberry.png""]",PB18.png,,,,,,,,,,,0,6,"[""blueberry.png""]","[""blueberry.png""]","[""blueberry.png""]","[""blueberry.png""]","[""blueberry.png""]","[""blueberry.png""]",blank.png,PB18.png,PB14.png,"[""blueberry.png""]","[""blueberry.png""]","[""blueberry.png""]","[""blueberry.png""]","[""blueberry.png""]","[""blueberry.png""]","[""blueberry.png""]","[""blueberry.png""]","[""blueberry.png""]",blank.png,blank.png,blank.png,1,"[""chocolate_truffle.png""]",blank.png,blank.png,blank.png,3,"[""blueberry.png""]","[""blueberry.png""]","[""blueberry.png""]",blank.png,blank.png,blank.png,PB14.png,,,,,,,,,,,1,,,,,,,,,,,,,916.6579999999376,,timeout,,,,,,,,,,,,,4,,,,,,,,,,,,,,,,,,,,,,,,,,,,,,,,,,,,,,,,,,,,,,,,,,,,,,,,,"[""blueberry.png""]","[""chocolate_truffle.png""]",,,,4,,,false,,1,,,,,,,939391.3250000005,939390.697,938457.192,938911.7850000003,938907.221,939823.879,,,,
choice,canvas.Screen,2_4_2_6_1_0_0_0_0_4_2,2021-05-24T16:26:24.519Z,,,blank.png,blank.png,blank.png,blank.png,blank.png,blank.png,blank.png,"[""chocolate_truffle.png""]",blank.png,blank.png,blank.png,blank.png,blank.png,,,,,,,,,,,,,,,,,,,,,,,,,,,,,"[""chocolate_truffle.png""]","[""blueberry.png""]",PB18.png,,,,,,,,,,,0,6,"[""blueberry.png""]","[""blueberry.png""]","[""blueberry.png""]","[""blueberry.png""]","[""blueberry.png""]","[""blueberry.png""]",blank.png,PB18.png,PB14.png,"[""blueberry.png""]","[""blueberry.png""]","[""blueberry.png""]","[""blueberry.png""]","[""blueberry.png""]","[""blueberry.png""]","[""blueberry.png""]","[""blueberry.png""]","[""blueberry.png""]",blank.png,blank.png,blank.png,1,"[""chocolate_truffle.png""]",blank.png,blank.png,blank.png,3,"[""blueberry.png""]","[""blueberry.png""]","[""blueberry.png""]",blank.png,blank.png,blank.png,PB14.png,,,,,,,,,,,1,,,,,,,,,,,,,317.8259999982547,,response,,,,,,,,,,,,,4,,,,,,,,,,,,,,,,,,,,,,,,,,,,,,,,,,,,,,,,,,,,,,,,,,,,,,,,,"[""blueberry.png""]","[""chocolate_truffle.png""]",,,,4,left,keydown(ArrowLeft),false,,1,,,,,,,940142.6250000005,940141.7049999982,939390.697,939825.0799999987,939823.879,940590.511,,5,,
square,canvas.Screen,2_4_2_6_1_0_0_0_0_4_3,2021-05-24T16:26:25.952Z,,,blank.png,blank.png,blank.png,blank.png,blank.png,blank.png,blank.png,"[""chocolate_truffle.png""]",blank.png,blank.png,blank.png,blank.png,blank.png,,,,,,,,,,,,,,,,,,,,,,,,,,,,,"[""chocolate_truffle.png""]","[""blueberry.png""]",PB18.png,,,,,,,,,,,0,6,"[""blueberry.png""]","[""blueberry.png""]","[""blueberry.png""]","[""blueberry.png""]","[""blueberry.png""]","[""blueberry.png""]",blank.png,PB18.png,PB14.png,"[""blueberry.png""]","[""blueberry.png""]","[""blueberry.png""]","[""blueberry.png""]","[""blueberry.png""]","[""blueberry.png""]","[""blueberry.png""]","[""blueberry.png""]","[""blueberry.png""]",blank.png,blank.png,blank.png,1,"[""chocolate_truffle.png""]",blank.png,blank.png,blank.png,3,"[""blueberry.png""]","[""blueberry.png""]","[""blueberry.png""]",blank.png,blank.png,blank.png,PB14.png,,,,,,,,,,,1,,,#33ff3f,#808080,,,,,,,,,1000.2429999999003,,timeout,,,,,,,,,,,,,4,,,,,,,,,,,,,,,,,,,,,,,,,,,,,,,,,,,,,,,,,,,,,,,,,,,,,,,,,"[""blueberry.png""]","[""chocolate_truffle.png""]",,,,4,,,false,,1,,,,,black,white,941574.7950000004,941574.083,940573.977,940580.7150000001,940590.511,941590.754,,,,
ITI_late,canvas.Screen,2_4_2_6_1_0_0_0_0_4_4,2021-05-24T16:26:26.952Z,,,blank.png,blank.png,blank.png,blank.png,blank.png,blank.png,blank.png,"[""chocolate_truffle.png""]",blank.png,blank.png,blank.png,blank.png,blank.png,,,,,,,,,,,,,,,,,,,,,,,,,,,,,"[""chocolate_truffle.png""]","[""blueberry.png""]",PB18.png,,,,,,,,,,,0,6,"[""blueberry.png""]","[""blueberry.png""]","[""blueberry.png""]","[""blueberry.png""]","[""blueberry.png""]","[""blueberry.png""]",blank.png,PB18.png,PB14.png,"[""blueberry.png""]","[""blueberry.png""]","[""blueberry.png""]","[""blueberry.png""]","[""blueberry.png""]","[""blueberry.png""]","[""blueberry.png""]","[""blueberry.png""]","[""blueberry.png""]",blank.png,blank.png,blank.png,1,"[""chocolate_truffle.png""]",blank.png,blank.png,blank.png,3,"[""blueberry.png""]","[""blueberry.png""]","[""blueberry.png""]",blank.png,blank.png,blank.png,PB14.png,,,,,,,,,,,1,,,,,,,,,,,,,999.9270000000251,,timeout,,,,,,,,,,,,white,4,,,,,,,,,,,,,,,,,,,,,,,,,,,,,,,,,,,,,,,,,,,,,,,,,,,,,,,,,"[""blueberry.png""]","[""chocolate_truffle.png""]",,,,4,,,false,,1,,,,,,,942574.665,942574.12,941574.083,941575.9949999992,941590.754,942590.681,,,,
choice_sequence,flow.Sequence,2_4_2_6_1_0_0_0_0_4,2021-05-24T16:26:26.952Z,,,blank.png,blank.png,blank.png,blank.png,blank.png,blank.png,blank.png,"[""chocolate_truffle.png""]",blank.png,blank.png,blank.png,blank.png,blank.png,,,,,,,,,,,,,,,,,,,,,,,,,,,,,"[""chocolate_truffle.png""]","[""blueberry.png""]",PB18.png,,,,,,,,,,,0,6,"[""blueberry.png""]","[""blueberry.png""]","[""blueberry.png""]","[""blueberry.png""]","[""blueberry.png""]","[""blueberry.png""]",blank.png,PB18.png,PB14.png,"[""blueberry.png""]","[""blueberry.png""]","[""blueberry.png""]","[""blueberry.png""]","[""blueberry.png""]","[""blueberry.png""]","[""blueberry.png""]","[""blueberry.png""]","[""blueberry.png""]",blank.png,blank.png,blank.png,1,"[""chocolate_truffle.png""]",blank.png,blank.png,blank.png,3,"[""blueberry.png""]","[""blueberry.png""]","[""blueberry.png""]",blank.png,blank.png,blank.png,PB14.png,,,,,,,,,,,1,,,,,,,,,,,,,4750.302999999956,,completion,,,,,,,,,,,,,4,,,,,,,,,,,,,,,,,,,,,,,,,,,,,,,,,,,,,,,,,,,,,,,,,,,,,,,,,"[""blueberry.png""]","[""chocolate_truffle.png""]",,,,4,,,false,,1,,,,,,,942575.0399999997,942574.12,937807.297,937812.7249999997,937823.817,942590.681,,,,
fixCross,canvas.Screen,2_4_2_6_1_0_0_0_0_5_0,2021-05-24T16:26:27.551Z,,,blank.png,blank.png,blank.png,blank.png,blank.png,blank.png,blank.png,"[""chocolate_truffle.png""]",blank.png,blank.png,blank.png,blank.png,blank.png,,,,,,,,,,,,,,,,,,,,,,,,,,,,,"[""chocolate_truffle.png""]","[""blueberry.png""]",PB18.png,,,,,,,,,,,0,6,"[""blueberry.png""]","[""blueberry.png""]","[""blueberry.png""]","[""blueberry.png""]","[""blueberry.png""]","[""blueberry.png""]",blank.png,PB18.png,PB07.png,"[""blueberry.png""]","[""blueberry.png""]","[""blueberry.png""]","[""blueberry.png""]","[""blueberry.png""]","[""blueberry.png""]","[""blueberry.png""]",blank.png,blank.png,blank.png,blank.png,blank.png,1,"[""chocolate_truffle.png""]",blank.png,blank.png,blank.png,1,"[""blueberry.png""]",blank.png,blank.png,blank.png,blank.png,blank.png,PB07.png,,,,,,,,,,,1,,,,,,,,,,,,,983.3980000000447,,timeout,,,,,,,,,,,,,4,,,,,,,,,,,,,,,,,,,,,,,,,,,,,,,,,,,,,,,,,,,,,,,,,,,,,,,,,"[""blueberry.png""]","[""chocolate_truffle.png""]",,,,4,,,false,,1,,,,,,,943174.4250000011,943173.942,942574.12,942580.1299999985,942590.681,943574.079,6,,,
timeout,canvas.Screen,2_4_2_6_1_0_0_0_0_5_1,2021-05-24T16:26:28.435Z,,,blank.png,blank.png,blank.png,blank.png,blank.png,blank.png,blank.png,"[""chocolate_truffle.png""]",blank.png,blank.png,blank.png,blank.png,blank.png,,,,,,,,,,,,,,,,,,,,,,,,,,,,,"[""chocolate_truffle.png""]","[""blueberry.png""]",PB18.png,,,,,,,,,,,0,6,"[""blueberry.png""]","[""blueberry.png""]","[""blueberry.png""]","[""blueberry.png""]","[""blueberry.png""]","[""blueberry.png""]",blank.png,PB18.png,PB07.png,"[""blueberry.png""]","[""blueberry.png""]","[""blueberry.png""]","[""blueberry.png""]","[""blueberry.png""]","[""blueberry.png""]","[""blueberry.png""]",blank.png,blank.png,blank.png,blank.png,blank.png,1,"[""chocolate_truffle.png""]",blank.png,blank.png,blank.png,1,"[""blueberry.png""]",blank.png,blank.png,blank.png,blank.png,blank.png,PB07.png,,,,,,,,,,,1,,,,,,,,,,,,,899.8489999999292,,timeout,,,,,,,,,,,,,4,,,,,,,,,,,,,,,,,,,,,,,,,,,,,,,,,,,,,,,,,,,,,,,,,,,,,,,,,"[""blueberry.png""]","[""chocolate_truffle.png""]",,,,4,,,false,,1,,,,,,,944057.965,944057.44,943173.942,943577.2949999991,943574.079,944473.928,,,,
choice,canvas.Screen,2_4_2_6_1_0_0_0_0_5_2,2021-05-24T16:26:28.864Z,,,blank.png,blank.png,blank.png,blank.png,blank.png,blank.png,blank.png,"[""chocolate_truffle.png""]",blank.png,blank.png,blank.png,blank.png,blank.png,,,,,,,,,,,,,,,,,,,,,,,,,,,,,"[""chocolate_truffle.png""]","[""blueberry.png""]",PB18.png,,,,,,,,,,,0,6,"[""blueberry.png""]","[""blueberry.png""]","[""blueberry.png""]","[""blueberry.png""]","[""blueberry.png""]","[""blueberry.png""]",blank.png,PB18.png,PB07.png,"[""blueberry.png""]","[""blueberry.png""]","[""blueberry.png""]","[""blueberry.png""]","[""blueberry.png""]","[""blueberry.png""]","[""blueberry.png""]",blank.png,blank.png,blank.png,blank.png,blank.png,1,"[""chocolate_truffle.png""]",blank.png,blank.png,blank.png,1,"[""blueberry.png""]",blank.png,blank.png,blank.png,blank.png,blank.png,PB07.png,,,,,,,,,,,1,,,,,,,,,,,,,383.4450000000652,,response,,,,,,,,,,,,,4,,,,,,,,,,,,,,,,,,,,,,,,,,,,,,,,,,,,,,,,,,,,,,,,,,,,,,,,,"[""blueberry.png""]","[""chocolate_truffle.png""]",,,,4,left,keydown(ArrowLeft),false,,1,,,,,,,944486.785000001,944440.885,944057.44,944473.3549999982,,944907.32,,6,,
square,canvas.Screen,2_4_2_6_1_0_0_0_0_5_3,2021-05-24T16:26:30.269Z,,,blank.png,blank.png,blank.png,blank.png,blank.png,blank.png,blank.png,"[""chocolate_truffle.png""]",blank.png,blank.png,blank.png,blank.png,blank.png,,,,,,,,,,,,,,,,,,,,,,,,,,,,,"[""chocolate_truffle.png""]","[""blueberry.png""]",PB18.png,,,,,,,,,,,0,6,"[""blueberry.png""]","[""blueberry.png""]","[""blueberry.png""]","[""blueberry.png""]","[""blueberry.png""]","[""blueberry.png""]",blank.png,PB18.png,PB07.png,"[""blueberry.png""]","[""blueberry.png""]","[""blueberry.png""]","[""blueberry.png""]","[""blueberry.png""]","[""blueberry.png""]","[""blueberry.png""]",blank.png,blank.png,blank.png,blank.png,blank.png,1,"[""chocolate_truffle.png""]",blank.png,blank.png,blank.png,1,"[""blueberry.png""]",blank.png,blank.png,blank.png,blank.png,blank.png,PB07.png,,,,,,,,,,,1,,,#33ff3f,#808080,,,,,,,,,999.9990000000689,,timeout,,,,,,,,,,,,,4,,,,,,,,,,,,,,,,,,,,,,,,,,,,,,,,,,,,,,,,,,,,,,,,,,,,,,,,,"[""blueberry.png""]","[""chocolate_truffle.png""]",,,,4,,,false,,1,,,,,black,white,945891.9900000001,945890.855,944473.928,944890.4249999977,944907.32,945907.319,,,,
ITI_late,canvas.Screen,2_4_2_6_1_0_0_0_0_5_4,2021-05-24T16:26:31.020Z,,,blank.png,blank.png,blank.png,blank.png,blank.png,blank.png,blank.png,"[""chocolate_truffle.png""]",blank.png,blank.png,blank.png,blank.png,blank.png,,,,,,,,,,,,,,,,,,,,,,,,,,,,,"[""chocolate_truffle.png""]","[""blueberry.png""]",PB18.png,,,,,,,,,,,0,6,"[""blueberry.png""]","[""blueberry.png""]","[""blueberry.png""]","[""blueberry.png""]","[""blueberry.png""]","[""blueberry.png""]",blank.png,PB18.png,PB07.png,"[""blueberry.png""]","[""blueberry.png""]","[""blueberry.png""]","[""blueberry.png""]","[""blueberry.png""]","[""blueberry.png""]","[""blueberry.png""]",blank.png,blank.png,blank.png,blank.png,blank.png,1,"[""chocolate_truffle.png""]",blank.png,blank.png,blank.png,1,"[""blueberry.png""]",blank.png,blank.png,blank.png,blank.png,blank.png,PB07.png,,,,,,,,,,,1,,,,,,,,,,,,,750.2339999999385,,timeout,,,,,,,,,,,,white,4,,,,,,,,,,,,,,,,,,,,,,,,,,,,,,,,,,,,,,,,,,,,,,,,,,,,,,,,,"[""blueberry.png""]","[""chocolate_truffle.png""]",,,,4,,,false,,1,,,,,,,946642.9800000006,946640.69,945890.855,945893.4149999986,945907.319,946657.553,,,,
choice_sequence,flow.Sequence,2_4_2_6_1_0_0_0_0_5,2021-05-24T16:26:31.020Z,,,blank.png,blank.png,blank.png,blank.png,blank.png,blank.png,blank.png,"[""chocolate_truffle.png""]",blank.png,blank.png,blank.png,blank.png,blank.png,,,,,,,,,,,,,,,,,,,,,,,,,,,,,"[""chocolate_truffle.png""]","[""blueberry.png""]",PB18.png,,,,,,,,,,,0,6,"[""blueberry.png""]","[""blueberry.png""]","[""blueberry.png""]","[""blueberry.png""]","[""blueberry.png""]","[""blueberry.png""]",blank.png,PB18.png,PB07.png,"[""blueberry.png""]","[""blueberry.png""]","[""blueberry.png""]","[""blueberry.png""]","[""blueberry.png""]","[""blueberry.png""]","[""blueberry.png""]",blank.png,blank.png,blank.png,blank.png,blank.png,1,"[""chocolate_truffle.png""]",blank.png,blank.png,blank.png,1,"[""blueberry.png""]",blank.png,blank.png,blank.png,blank.png,blank.png,PB07.png,,,,,,,,,,,1,,,,,,,,,,,,,4050.008999999962,,completion,,,,,,,,,,,,,4,,,,,,,,,,,,,,,,,,,,,,,,,,,,,,,,,,,,,,,,,,,,,,,,,,,,,,,,,"[""blueberry.png""]","[""chocolate_truffle.png""]",,,,4,,,false,,1,,,,,,,946643.2999999997,946640.69,942574.12,942579.2849999998,942590.681,946657.553,,,,
fixCross,canvas.Screen,2_4_2_6_1_0_0_0_0_6_0,2021-05-24T16:26:31.268Z,,,blank.png,"[""chocolate_truffle.png""]",blank.png,blank.png,blank.png,blank.png,blank.png,blank.png,blank.png,blank.png,blank.png,blank.png,blank.png,,,,,,,,,,,,,,,,,,,,,,,,,,,,,"[""chocolate_truffle.png""]","[""blueberry.png""]",PB15.png,,,,,,,,,,,0,6,"[""blueberry.png""]","[""blueberry.png""]","[""blueberry.png""]","[""blueberry.png""]","[""blueberry.png""]","[""blueberry.png""]",blank.png,PB18.png,PB18.png,"[""blueberry.png""]","[""blueberry.png""]","[""blueberry.png""]","[""blueberry.png""]",blank.png,blank.png,"[""blueberry.png""]","[""blueberry.png""]","[""blueberry.png""]","[""blueberry.png""]","[""blueberry.png""]","[""blueberry.png""]",1,"[""chocolate_truffle.png""]",blank.png,blank.png,blank.png,4,"[""blueberry.png""]","[""blueberry.png""]","[""blueberry.png""]","[""blueberry.png""]",blank.png,blank.png,PB15.png,,,,,,,,,,,1,,,,,,,,,,,,,683.1600000000326,,timeout,,,,,,,,,,,,,3,,,,,,,,,,,,,,,,,,,,,,,,,,,,,,,,,,,,,,,,,,,,,,,,,,,,,,,,,"[""blueberry.png""]","[""chocolate_truffle.png""]",,,,4,,,false,,1,,,,,,,946891.3250000005,946890.767,946640.69,946646.6149999979,946657.553,947340.713,7,,,
timeout,canvas.Screen,2_4_2_6_1_0_0_0_0_6_1,2021-05-24T16:26:32.202Z,,,blank.png,"[""chocolate_truffle.png""]",blank.png,blank.png,blank.png,blank.png,blank.png,blank.png,blank.png,blank.png,blank.png,blank.png,blank.png,,,,,,,,,,,,,,,,,,,,,,,,,,,,,"[""chocolate_truffle.png""]","[""blueberry.png""]",PB15.png,,,,,,,,,,,0,6,"[""blueberry.png""]","[""blueberry.png""]","[""blueberry.png""]","[""blueberry.png""]","[""blueberry.png""]","[""blueberry.png""]",blank.png,PB18.png,PB18.png,"[""blueberry.png""]","[""blueberry.png""]","[""blueberry.png""]","[""blueberry.png""]",blank.png,blank.png,"[""blueberry.png""]","[""blueberry.png""]","[""blueberry.png""]","[""blueberry.png""]","[""blueberry.png""]","[""blueberry.png""]",1,"[""chocolate_truffle.png""]",blank.png,blank.png,blank.png,4,"[""blueberry.png""]","[""blueberry.png""]","[""blueberry.png""]","[""blueberry.png""]",blank.png,blank.png,PB15.png,,,,,,,,,,,1,,,,,,,,,,,,,950.0659999999916,,timeout,,,,,,,,,,,,,3,,,,,,,,,,,,,,,,,,,,,,,,,,,,,,,,,,,,,,,,,,,,,,,,,,,,,,,,,"[""blueberry.png""]","[""chocolate_truffle.png""]",,,,4,,,false,,1,,,,,,,947824.7549999978,947824.269,946890.767,947344.1749999984,947340.713,948290.779,,,,
choice,canvas.Screen,2_4_2_6_1_0_0_0_0_6_2,2021-05-24T16:26:33.105Z,,,blank.png,"[""chocolate_truffle.png""]",blank.png,blank.png,blank.png,blank.png,blank.png,blank.png,blank.png,blank.png,blank.png,blank.png,blank.png,,,,,,,,,,,,,,,,,,,,,,,,,,,,,"[""chocolate_truffle.png""]","[""blueberry.png""]",PB15.png,,,,,,,,,,,0,6,"[""blueberry.png""]","[""blueberry.png""]","[""blueberry.png""]","[""blueberry.png""]","[""blueberry.png""]","[""blueberry.png""]",blank.png,PB18.png,PB18.png,"[""blueberry.png""]","[""blueberry.png""]","[""blueberry.png""]","[""blueberry.png""]",blank.png,blank.png,"[""blueberry.png""]","[""blueberry.png""]","[""blueberry.png""]","[""blueberry.png""]","[""blueberry.png""]","[""blueberry.png""]",1,"[""chocolate_truffle.png""]",blank.png,blank.png,blank.png,4,"[""blueberry.png""]","[""blueberry.png""]","[""blueberry.png""]","[""blueberry.png""]",blank.png,blank.png,PB15.png,,,,,,,,,,,1,,,,,,,,,,,,,436.2209999989718,,response,,,,,,,,,,,,,3,,,,,,,,,,,,,,,,,,,,,,,,,,,,,,,,,,,,,,,,,,,,,,,,,,,,,,,,,"[""blueberry.png""]","[""chocolate_truffle.png""]",,,,4,left,keydown(ArrowLeft),false,,1,,,,,,,948727.899999998,948726.999999999,947824.269,948281.1999999976,948290.779,949174.069,,7,,
square,canvas.Screen,2_4_2_6_1_0_0_0_0_6_3,2021-05-24T16:26:34.535Z,,,blank.png,"[""chocolate_truffle.png""]",blank.png,blank.png,blank.png,blank.png,blank.png,blank.png,blank.png,blank.png,blank.png,blank.png,blank.png,,,,,,,,,,,,,,,,,,,,,,,,,,,,,"[""chocolate_truffle.png""]","[""blueberry.png""]",PB15.png,,,,,,,,,,,0,6,"[""blueberry.png""]","[""blueberry.png""]","[""blueberry.png""]","[""blueberry.png""]","[""blueberry.png""]","[""blueberry.png""]",blank.png,PB18.png,PB18.png,"[""blueberry.png""]","[""blueberry.png""]","[""blueberry.png""]","[""blueberry.png""]",blank.png,blank.png,"[""blueberry.png""]","[""blueberry.png""]","[""blueberry.png""]","[""blueberry.png""]","[""blueberry.png""]","[""blueberry.png""]",1,"[""chocolate_truffle.png""]",blank.png,blank.png,blank.png,4,"[""blueberry.png""]","[""blueberry.png""]","[""blueberry.png""]","[""blueberry.png""]",blank.png,blank.png,PB15.png,,,,,,,,,,,1,,,#33ff3f,#808080,,,,,,,,,1000.3390000000363,,timeout,,,,,,,,,,,,,3,,,,,,,,,,,,,,,,,,,,,,,,,,,,,,,,,,,,,,,,,,,,,,,,,,,,,,,,,"[""blueberry.png""]","[""chocolate_truffle.png""]",,,,4,,,false,,1,,,,,black,white,950158.2349999989,950157.455,949157.448,949170.0999999994,949174.069,950174.408,,,,
ITI_late,canvas.Screen,2_4_2_6_1_0_0_0_0_6_4,2021-05-24T16:26:35.535Z,,,blank.png,"[""chocolate_truffle.png""]",blank.png,blank.png,blank.png,blank.png,blank.png,blank.png,blank.png,blank.png,blank.png,blank.png,blank.png,,,,,,,,,,,,,,,,,,,,,,,,,,,,,"[""chocolate_truffle.png""]","[""blueberry.png""]",PB15.png,,,,,,,,,,,0,6,"[""blueberry.png""]","[""blueberry.png""]","[""blueberry.png""]","[""blueberry.png""]","[""blueberry.png""]","[""blueberry.png""]",blank.png,PB18.png,PB18.png,"[""blueberry.png""]","[""blueberry.png""]","[""blueberry.png""]","[""blueberry.png""]",blank.png,blank.png,"[""blueberry.png""]","[""blueberry.png""]","[""blueberry.png""]","[""blueberry.png""]","[""blueberry.png""]","[""blueberry.png""]",1,"[""chocolate_truffle.png""]",blank.png,blank.png,blank.png,4,"[""blueberry.png""]","[""blueberry.png""]","[""blueberry.png""]","[""blueberry.png""]",blank.png,blank.png,PB15.png,,,,,,,,,,,1,,,,,,,,,,,,,999.7669999999925,,timeout,,,,,,,,,,,,white,3,,,,,,,,,,,,,,,,,,,,,,,,,,,,,,,,,,,,,,,,,,,,,,,,,,,,,,,,,"[""blueberry.png""]","[""chocolate_truffle.png""]",,,,4,,,false,,1,,,,,,,951158.1899999983,951157.668,950157.455,950159.639999998,950174.408,951174.175,,,,
choice_sequence,flow.Sequence,2_4_2_6_1_0_0_0_0_6,2021-05-24T16:26:35.535Z,,,blank.png,"[""chocolate_truffle.png""]",blank.png,blank.png,blank.png,blank.png,blank.png,blank.png,blank.png,blank.png,blank.png,blank.png,blank.png,,,,,,,,,,,,,,,,,,,,,,,,,,,,,"[""chocolate_truffle.png""]","[""blueberry.png""]",PB15.png,,,,,,,,,,,0,6,"[""blueberry.png""]","[""blueberry.png""]","[""blueberry.png""]","[""blueberry.png""]","[""blueberry.png""]","[""blueberry.png""]",blank.png,PB18.png,PB18.png,"[""blueberry.png""]","[""blueberry.png""]","[""blueberry.png""]","[""blueberry.png""]",blank.png,blank.png,"[""blueberry.png""]","[""blueberry.png""]","[""blueberry.png""]","[""blueberry.png""]","[""blueberry.png""]","[""blueberry.png""]",1,"[""chocolate_truffle.png""]",blank.png,blank.png,blank.png,4,"[""blueberry.png""]","[""blueberry.png""]","[""blueberry.png""]","[""blueberry.png""]",blank.png,blank.png,PB15.png,,,,,,,,,,,1,,,,,,,,,,,,,4500.114999999991,,completion,,,,,,,,,,,,,3,,,,,,,,,,,,,,,,,,,,,,,,,,,,,,,,,,,,,,,,,,,,,,,,,,,,,,,,,"[""blueberry.png""]","[""chocolate_truffle.png""]",,,,4,,,false,,1,,,,,,,951158.5349999986,951157.668,946640.69,946645.8549999988,946657.553,951174.175,,,,
choice_loop,flow.Loop,2_4_2_6_1_0_0_0_0,2021-05-24T16:26:35.536Z,,,,,,,,,,,,,,,,,,,,,,,,,,,,,,,,,,,,,,,,,,,,"[""chocolate_truffle.png""]","[""blueberry.png""]",,,,,,,,,,,,,,,,,,,,,,,,,,,,,,,,,,,,,,,,,,,,,,,,,,,,,,,,,,,,,,,,,,,,,,,31784.25899999996,,completion,,,,,,,,,,,,,,,,,,,,,,,,,,,,,,,,,,,,,,,,,,,,,,,,,,,,,,,,,,,,,,,,,,,,,,"[""blueberry.png""]","[""chocolate_truffle.png""]",,,,4,,,false,,,,,,,,,951158.7299999992,951157.668,919356.856,919379.8549999993,919373.409,951174.175,,,,
choice_frame,html.Frame,2_4_2_6_1_0_0_0,2021-05-24T16:26:35.536Z,,,,,,,,,,,,,,,,,,,,,,,,,,,,,,,,,,,,,,,,,,,,,,,,,,,,,,,,,,,,,,,,,,,,,,,,,,,,,,,,,,,,,,,,,,,,,,,,,,,,,,,,,,,,,,,,,,,,31785.685999999056,,,,,,,,,,,,,,,,,,,,,,,,,,,,,,,,,,,,,,,,,,,,,,,,,,,,,,,,,,,,,,,,,,,,,,,,,,,,,4,,,false,,,,,,,,,951159.2149999996,951159.094999999,919356.856,919357.5549999987,919373.409,951190.769,,,,
sublock_1,flow.Sequence,2_4_2_6_1_0_0,2021-05-24T16:26:35.536Z,,,,,,,,,,,,,,,,,,,,,,,,,,,,,,,,,,,,,,,,,,,,,,,,,,,,,,,,,,,,,,,,,,,,,,,,,,,,,,,,,,,,,,,,,,,,,,,,,,,,,,,,,,,,,,,,,,,,31785.685999999056,,completion,,,,,,,,,,,,,,,,,,,,,,,,,,,,,,,,,,,,,,,,,,,,,,,,,,,,,,,,,,,,,,,,,,,,,,,,,,,4,,,false,,,,,,,,,951159.3299999986,951159.094999999,919356.856,919357.5300000012,919373.409,951190.769,,,,
fixCross,canvas.Screen,2_4_2_6_1_0_1_0_0_0_0,2021-05-24T16:26:36.152Z,,,blank.png,"[""chocolate_truffle.png""]",blank.png,blank.png,blank.png,blank.png,blank.png,blank.png,blank.png,blank.png,blank.png,blank.png,blank.png,,,,,,,,,,,,,,,,,,,,,,,,,,,,,"[""chocolate_truffle.png""]","[""blueberry.png""]",PB12.png,,,,,,,,,,,0,6,"[""blueberry.png""]","[""blueberry.png""]","[""blueberry.png""]","[""blueberry.png""]","[""blueberry.png""]","[""blueberry.png""]",blank.png,PB18.png,PB18.png,"[""blueberry.png""]","[""blueberry.png""]",blank.png,blank.png,blank.png,blank.png,"[""blueberry.png""]","[""blueberry.png""]","[""blueberry.png""]","[""blueberry.png""]","[""blueberry.png""]","[""blueberry.png""]",1,"[""chocolate_truffle.png""]",blank.png,blank.png,blank.png,2,"[""blueberry.png""]","[""blueberry.png""]",blank.png,blank.png,blank.png,blank.png,PB12.png,,,,,,,,,,,1,,,,,,,,,,,,,1000.0019999999786,,timeout,,,,,,,,,,,,,3,,,,,,,,,,,,,,,,,,,,,,,,,,,,,,,,,,,,,,,,,,,,,,,,,,,,,,,,,"[""blueberry.png""]","[""chocolate_truffle.png""]",,,,6,,,false,,1,,,,,,,951774.9000000004,951774.313,951174.175,951183.4500000004,951190.769,952190.771,8,,,
timeout,canvas.Screen,2_4_2_6_1_0_1_0_0_0_1,2021-05-24T16:26:37.052Z,,,blank.png,"[""chocolate_truffle.png""]",blank.png,blank.png,blank.png,blank.png,blank.png,blank.png,blank.png,blank.png,blank.png,blank.png,blank.png,,,,,,,,,,,,,,,,,,,,,,,,,,,,,"[""chocolate_truffle.png""]","[""blueberry.png""]",PB12.png,,,,,,,,,,,0,6,"[""blueberry.png""]","[""blueberry.png""]","[""blueberry.png""]","[""blueberry.png""]","[""blueberry.png""]","[""blueberry.png""]",blank.png,PB18.png,PB18.png,"[""blueberry.png""]","[""blueberry.png""]",blank.png,blank.png,blank.png,blank.png,"[""blueberry.png""]","[""blueberry.png""]","[""blueberry.png""]","[""blueberry.png""]","[""blueberry.png""]","[""blueberry.png""]",1,"[""chocolate_truffle.png""]",blank.png,blank.png,blank.png,2,"[""blueberry.png""]","[""blueberry.png""]",blank.png,blank.png,blank.png,blank.png,PB12.png,,,,,,,,,,,1,,,,,,,,,,,,,900.0590000000084,,timeout,,,,,,,,,,,,,3,,,,,,,,,,,,,,,,,,,,,,,,,,,,,,,,,,,,,,,,,,,,,,,,,,,,,,,,,"[""blueberry.png""]","[""chocolate_truffle.png""]",,,,6,,,false,,1,,,,,,,952674.9249999993,952674.374,951774.313,952181.4149999991,952190.771,953090.83,,,,
choice,canvas.Screen,2_4_2_6_1_0_1_0_0_0_2,2021-05-24T16:26:37.486Z,,,blank.png,"[""chocolate_truffle.png""]",blank.png,blank.png,blank.png,blank.png,blank.png,blank.png,blank.png,blank.png,blank.png,blank.png,blank.png,,,,,,,,,,,,,,,,,,,,,,,,,,,,,"[""chocolate_truffle.png""]","[""blueberry.png""]",PB12.png,,,,,,,,,,,0,6,"[""blueberry.png""]","[""blueberry.png""]","[""blueberry.png""]","[""blueberry.png""]","[""blueberry.png""]","[""blueberry.png""]",blank.png,PB18.png,PB18.png,"[""blueberry.png""]","[""blueberry.png""]",blank.png,blank.png,blank.png,blank.png,"[""blueberry.png""]","[""blueberry.png""]","[""blueberry.png""]","[""blueberry.png""]","[""blueberry.png""]","[""blueberry.png""]",1,"[""chocolate_truffle.png""]",blank.png,blank.png,blank.png,2,"[""blueberry.png""]","[""blueberry.png""]",blank.png,blank.png,blank.png,blank.png,PB12.png,,,,,,,,,,,1,,,,,,,,,,,,,283.44599999964703,,response,,,,,,,,,,,,,3,,,,,,,,,,,,,,,,,,,,,,,,,,,,,,,,,,,,,,,,,,,,,,,,,,,,,,,,,"[""blueberry.png""]","[""chocolate_truffle.png""]",,,,6,right,keydown(ArrowRight),false,,1,,,,,,,953108.6399999985,952957.8199999996,952674.374,953092.2449999999,,953524.24,,8,,
square,canvas.Screen,2_4_2_6_1_0_1_0_0_0_3,2021-05-24T16:26:38.885Z,,,blank.png,"[""chocolate_truffle.png""]",blank.png,blank.png,blank.png,blank.png,blank.png,blank.png,blank.png,blank.png,blank.png,blank.png,blank.png,,,,,,,,,,,,,,,,,,,,,,,,,,,,,"[""chocolate_truffle.png""]","[""blueberry.png""]",PB12.png,,,,,,,,,,,0,6,"[""blueberry.png""]","[""blueberry.png""]","[""blueberry.png""]","[""blueberry.png""]","[""blueberry.png""]","[""blueberry.png""]",blank.png,PB18.png,PB18.png,"[""blueberry.png""]","[""blueberry.png""]",blank.png,blank.png,blank.png,blank.png,"[""blueberry.png""]","[""blueberry.png""]","[""blueberry.png""]","[""blueberry.png""]","[""blueberry.png""]","[""blueberry.png""]",1,"[""chocolate_truffle.png""]",blank.png,blank.png,blank.png,2,"[""blueberry.png""]","[""blueberry.png""]",blank.png,blank.png,blank.png,blank.png,PB12.png,,,,,,,,,,,1,,,#808080,#33ff3f,,,,,,,,,1000.1850000000559,,timeout,,,,,,,,,,,,,3,,,,,,,,,,,,,,,,,,,,,,,,,,,,,,,,,,,,,,,,,,,,,,,,,,,,,,,,,"[""blueberry.png""]","[""chocolate_truffle.png""]",,,,6,,,false,,1,,,,,white,black,954508.2049999982,954507.644,953090.83,953522.7799999993,953524.24,954524.425,,,,
ITI_late,canvas.Screen,2_4_2_6_1_0_1_0_0_0_4,2021-05-24T16:26:39.885Z,,,blank.png,"[""chocolate_truffle.png""]",blank.png,blank.png,blank.png,blank.png,blank.png,blank.png,blank.png,blank.png,blank.png,blank.png,blank.png,,,,,,,,,,,,,,,,,,,,,,,,,,,,,"[""chocolate_truffle.png""]","[""blueberry.png""]",PB12.png,,,,,,,,,,,0,6,"[""blueberry.png""]","[""blueberry.png""]","[""blueberry.png""]","[""blueberry.png""]","[""blueberry.png""]","[""blueberry.png""]",blank.png,PB18.png,PB18.png,"[""blueberry.png""]","[""blueberry.png""]",blank.png,blank.png,blank.png,blank.png,"[""blueberry.png""]","[""blueberry.png""]","[""blueberry.png""]","[""blueberry.png""]","[""blueberry.png""]","[""blueberry.png""]",1,"[""chocolate_truffle.png""]",blank.png,blank.png,blank.png,2,"[""blueberry.png""]","[""blueberry.png""]",blank.png,blank.png,blank.png,blank.png,PB12.png,,,,,,,,,,,1,,,,,,,,,,,,,999.7679999999236,,timeout,,,,,,,,,,,,white,3,,,,,,,,,,,,,,,,,,,,,,,,,,,,,,,,,,,,,,,,,,,,,,,,,,,,,,,,,"[""blueberry.png""]","[""chocolate_truffle.png""]",,,,6,,,false,,1,,,,,,,955508.3999999987,955507.731,954507.644,954509.4199999985,954524.425,955524.193,,,,
choice_sequence,flow.Sequence,2_4_2_6_1_0_1_0_0_0,2021-05-24T16:26:39.886Z,,,blank.png,"[""chocolate_truffle.png""]",blank.png,blank.png,blank.png,blank.png,blank.png,blank.png,blank.png,blank.png,blank.png,blank.png,blank.png,,,,,,,,,,,,,,,,,,,,,,,,,,,,,"[""chocolate_truffle.png""]","[""blueberry.png""]",PB12.png,,,,,,,,,,,0,6,"[""blueberry.png""]","[""blueberry.png""]","[""blueberry.png""]","[""blueberry.png""]","[""blueberry.png""]","[""blueberry.png""]",blank.png,PB18.png,PB18.png,"[""blueberry.png""]","[""blueberry.png""]",blank.png,blank.png,blank.png,blank.png,"[""blueberry.png""]","[""blueberry.png""]","[""blueberry.png""]","[""blueberry.png""]","[""blueberry.png""]","[""blueberry.png""]",1,"[""chocolate_truffle.png""]",blank.png,blank.png,blank.png,2,"[""blueberry.png""]","[""blueberry.png""]",blank.png,blank.png,blank.png,blank.png,PB12.png,,,,,,,,,,,1,,,,,,,,,,,,,4316.962000000058,,completion,,,,,,,,,,,,,3,,,,,,,,,,,,,,,,,,,,,,,,,,,,,,,,,,,,,,,,,,,,,,,,,,,,,,,,,"[""blueberry.png""]","[""chocolate_truffle.png""]",,,,6,,,false,,1,,,,,,,955508.7050000002,955507.731,951174.175,951182.6299999993,951190.769,955524.193,,,,
fixCross,canvas.Screen,2_4_2_6_1_0_1_0_0_1_0,2021-05-24T16:26:40.185Z,,,blank.png,blank.png,blank.png,blank.png,blank.png,blank.png,blank.png,"[""chocolate_truffle.png""]",blank.png,blank.png,blank.png,blank.png,blank.png,,,,,,,,,,,,,,,,,,,,,,,,,,,,,"[""chocolate_truffle.png""]","[""blueberry.png""]",PB18.png,,,,,,,,,,,0,6,"[""blueberry.png""]","[""blueberry.png""]","[""blueberry.png""]","[""blueberry.png""]","[""blueberry.png""]","[""blueberry.png""]",blank.png,PB18.png,PB15.png,"[""blueberry.png""]","[""blueberry.png""]","[""blueberry.png""]","[""blueberry.png""]","[""blueberry.png""]","[""blueberry.png""]","[""blueberry.png""]","[""blueberry.png""]","[""blueberry.png""]","[""blueberry.png""]",blank.png,blank.png,1,"[""chocolate_truffle.png""]",blank.png,blank.png,blank.png,4,"[""blueberry.png""]","[""blueberry.png""]","[""blueberry.png""]","[""blueberry.png""]",blank.png,blank.png,PB15.png,,,,,,,,,,,1,,,,,,,,,,,,,750.0060000000522,,timeout,,,,,,,,,,,,,4,,,,,,,,,,,,,,,,,,,,,,,,,,,,,,,,,,,,,,,,,,,,,,,,,,,,,,,,,"[""blueberry.png""]","[""chocolate_truffle.png""]",,,,6,,,false,,1,,,,,,,955808.3000000006,955807.763,955507.731,955514.2749999977,955524.193,956274.199,9,,,
timeout,canvas.Screen,2_4_2_6_1_0_1_0_0_1_1,2021-05-24T16:26:41.135Z,,,blank.png,blank.png,blank.png,blank.png,blank.png,blank.png,blank.png,"[""chocolate_truffle.png""]",blank.png,blank.png,blank.png,blank.png,blank.png,,,,,,,,,,,,,,,,,,,,,,,,,,,,,"[""chocolate_truffle.png""]","[""blueberry.png""]",PB18.png,,,,,,,,,,,0,6,"[""blueberry.png""]","[""blueberry.png""]","[""blueberry.png""]","[""blueberry.png""]","[""blueberry.png""]","[""blueberry.png""]",blank.png,PB18.png,PB15.png,"[""blueberry.png""]","[""blueberry.png""]","[""blueberry.png""]","[""blueberry.png""]","[""blueberry.png""]","[""blueberry.png""]","[""blueberry.png""]","[""blueberry.png""]","[""blueberry.png""]","[""blueberry.png""]",blank.png,blank.png,1,"[""chocolate_truffle.png""]",blank.png,blank.png,blank.png,4,"[""blueberry.png""]","[""blueberry.png""]","[""blueberry.png""]","[""blueberry.png""]",blank.png,blank.png,PB15.png,,,,,,,,,,,1,,,,,,,,,,,,,950.0019999999786,,timeout,,,,,,,,,,,,,4,,,,,,,,,,,,,,,,,,,,,,,,,,,,,,,,,,,,,,,,,,,,,,,,,,,,,,,,,"[""blueberry.png""]","[""chocolate_truffle.png""]",,,,6,,,false,,1,,,,,,,956758.4199999983,956757.776,955807.763,956263.855000001,956274.199,957224.201,,,,
choice,canvas.Screen,2_4_2_6_1_0_1_0_0_1_2,2021-05-24T16:26:42.273Z,,,blank.png,blank.png,blank.png,blank.png,blank.png,blank.png,blank.png,"[""chocolate_truffle.png""]",blank.png,blank.png,blank.png,blank.png,blank.png,,,,,,,,,,,,,,,,,,,,,,,,,,,,,"[""chocolate_truffle.png""]","[""blueberry.png""]",PB18.png,,,,,,,,,,,0,6,"[""blueberry.png""]","[""blueberry.png""]","[""blueberry.png""]","[""blueberry.png""]","[""blueberry.png""]","[""blueberry.png""]",blank.png,PB18.png,PB15.png,"[""blueberry.png""]","[""blueberry.png""]","[""blueberry.png""]","[""blueberry.png""]","[""blueberry.png""]","[""blueberry.png""]","[""blueberry.png""]","[""blueberry.png""]","[""blueberry.png""]","[""blueberry.png""]",blank.png,blank.png,1,"[""chocolate_truffle.png""]",blank.png,blank.png,blank.png,4,"[""blueberry.png""]","[""blueberry.png""]","[""blueberry.png""]","[""blueberry.png""]",blank.png,blank.png,PB15.png,,,,,,,,,,,1,,,,,,,,,,,,,670.9339999988442,,response,,,,,,,,,,,,,4,,,,,,,,,,,,,,,,,,,,,,,,,,,,,,,,,,,,,,,,,,,,,,,,,,,,,,,,,"[""blueberry.png""]","[""chocolate_truffle.png""]",,,,6,right,keydown(ArrowRight),false,,1,,,,,,,957896.2150000007,957895.1349999988,956757.776,957210.5200000005,957224.201,958374.358,,9,,
square,canvas.Screen,2_4_2_6_1_0_1_0_0_1_3,2021-05-24T16:26:43.737Z,,,blank.png,blank.png,blank.png,blank.png,blank.png,blank.png,blank.png,"[""chocolate_truffle.png""]",blank.png,blank.png,blank.png,blank.png,blank.png,,,,,,,,,,,,,,,,,,,,,,,,,,,,,"[""chocolate_truffle.png""]","[""blueberry.png""]",PB18.png,,,,,,,,,,,0,6,"[""blueberry.png""]","[""blueberry.png""]","[""blueberry.png""]","[""blueberry.png""]","[""blueberry.png""]","[""blueberry.png""]",blank.png,PB18.png,PB15.png,"[""blueberry.png""]","[""blueberry.png""]","[""blueberry.png""]","[""blueberry.png""]","[""blueberry.png""]","[""blueberry.png""]","[""blueberry.png""]","[""blueberry.png""]","[""blueberry.png""]","[""blueberry.png""]",blank.png,blank.png,1,"[""chocolate_truffle.png""]",blank.png,blank.png,blank.png,4,"[""blueberry.png""]","[""blueberry.png""]","[""blueberry.png""]","[""blueberry.png""]",blank.png,blank.png,PB15.png,,,,,,,,,,,1,,,#808080,#33ff3f,,,,,,,,,1000.2110000000102,,timeout,,,,,,,,,,,,,4,,,,,,,,,,,,,,,,,,,,,,,,,,,,,,,,,,,,,,,,,,,,,,,,,,,,,,,,,"[""blueberry.png""]","[""chocolate_truffle.png""]",,,,6,,,false,,1,,,,,white,black,959360.055000001,959357.703,958357.578,958362.0999999985,958374.358,959374.569,,,,
ITI_late,canvas.Screen,2_4_2_6_1_0_1_0_0_1_4,2021-05-24T16:26:44.235Z,,,blank.png,blank.png,blank.png,blank.png,blank.png,blank.png,blank.png,"[""chocolate_truffle.png""]",blank.png,blank.png,blank.png,blank.png,blank.png,,,,,,,,,,,,,,,,,,,,,,,,,,,,,"[""chocolate_truffle.png""]","[""blueberry.png""]",PB18.png,,,,,,,,,,,0,6,"[""blueberry.png""]","[""blueberry.png""]","[""blueberry.png""]","[""blueberry.png""]","[""blueberry.png""]","[""blueberry.png""]",blank.png,PB18.png,PB15.png,"[""blueberry.png""]","[""blueberry.png""]","[""blueberry.png""]","[""blueberry.png""]","[""blueberry.png""]","[""blueberry.png""]","[""blueberry.png""]","[""blueberry.png""]","[""blueberry.png""]","[""blueberry.png""]",blank.png,blank.png,1,"[""chocolate_truffle.png""]",blank.png,blank.png,blank.png,4,"[""blueberry.png""]","[""blueberry.png""]","[""blueberry.png""]","[""blueberry.png""]",blank.png,blank.png,PB15.png,,,,,,,,,,,1,,,,,,,,,,,,,499.9309999999823,,timeout,,,,,,,,,,,,white,4,,,,,,,,,,,,,,,,,,,,,,,,,,,,,,,,,,,,,,,,,,,,,,,,,,,,,,,,,"[""blueberry.png""]","[""chocolate_truffle.png""]",,,,6,,,false,,1,,,,,,,959858.44,959857.901,959357.703,959361.2949999988,959374.569,959874.5,,,,
choice_sequence,flow.Sequence,2_4_2_6_1_0_1_0_0_1,2021-05-24T16:26:44.236Z,,,blank.png,blank.png,blank.png,blank.png,blank.png,blank.png,blank.png,"[""chocolate_truffle.png""]",blank.png,blank.png,blank.png,blank.png,blank.png,,,,,,,,,,,,,,,,,,,,,,,,,,,,,"[""chocolate_truffle.png""]","[""blueberry.png""]",PB18.png,,,,,,,,,,,0,6,"[""blueberry.png""]","[""blueberry.png""]","[""blueberry.png""]","[""blueberry.png""]","[""blueberry.png""]","[""blueberry.png""]",blank.png,PB18.png,PB15.png,"[""blueberry.png""]","[""blueberry.png""]","[""blueberry.png""]","[""blueberry.png""]","[""blueberry.png""]","[""blueberry.png""]","[""blueberry.png""]","[""blueberry.png""]","[""blueberry.png""]","[""blueberry.png""]",blank.png,blank.png,1,"[""chocolate_truffle.png""]",blank.png,blank.png,blank.png,4,"[""blueberry.png""]","[""blueberry.png""]","[""blueberry.png""]","[""blueberry.png""]",blank.png,blank.png,PB15.png,,,,,,,,,,,1,,,,,,,,,,,,,4333.707999999984,,completion,,,,,,,,,,,,,4,,,,,,,,,,,,,,,,,,,,,,,,,,,,,,,,,,,,,,,,,,,,,,,,,,,,,,,,,"[""blueberry.png""]","[""chocolate_truffle.png""]",,,,6,,,false,,1,,,,,,,959858.7999999982,959857.901,955507.731,955513.3949999982,955524.193,959874.5,,,,
