sender,sender_type,sender_id,timestamp,meta,,Blank,DownLeft1,DownLeft2,DownLeft3,DownLeft4,DownLeft5,DownLeft6,DownRight1,DownRight2,DownRight3,DownRight4,DownRight5,DownRight6,FoodHabits_Fru_item1,FoodHabits_Fru_item2,FoodHabits_Fru_item3,FoodHabits_Fru_item4,FoodHabits_Fru_item5,FoodHabits_Fru_item6,FoodHabits_Fru_item7,FoodHabits_Meat_item1,FoodHabits_Meat_item2,FoodHabits_Meat_item3,FoodHabits_Meat_item4,FoodHabits_Meat_item5,FoodHabits_Meat_item6,FoodHabits_Meat_item7,FoodHabits_Swe_item1,FoodHabits_Swe_item2,FoodHabits_Swe_item3,FoodHabits_Swe_item4,FoodHabits_Swe_item5,FoodHabits_Swe_item6,FoodHabits_Swe_item7,FoodHabits_Veg_item1,FoodHabits_Veg_item2,FoodHabits_Veg_item3,FoodHabits_Veg_item4,FoodHabits_Veg_item5,FoodHabits_Veg_item6,FoodHabits_Veg_item7,ImgA,ImgB,LeftBar,PSS_item01,PSS_item02,PSS_item03,PSS_item04,PSS_item05,PSS_item06,PSS_item07,PSS_item08,PSS_item09,PSS_item10,RefA,RefB,RefB1,RefB2,RefB3,RefB4,RefB5,RefB6,RefB7,Ref_PB,RightBar,UpLeft1,UpLeft2,UpLeft3,UpLeft4,UpLeft5,UpLeft6,UpRight1,UpRight2,UpRight3,UpRight4,UpRight5,UpRight6,VarA,VarA1,VarA2,VarA3,VarA4,VarB,VarB1,VarB2,VarB3,VarB4,VarB5,VarB6,Var_PB,attCheck_fileA,attCheck_fileB,attCheck_fileC,attCheck_fileD,attCheck_options,attCheck_valueA,attCheck_valueB,attCheck_valueC,attCheck_valueD,attention_check,block,browser_name,choseL,choseR,consent_form1,consent_form2,consentconfirmation_form1,consentconfirmation_form2,correct,correctResponse,diet,disorder,duration,edu,ended_on,enjoy,full_version,gender,group,hunger,img,imgTask,input_age,input_meal,input_occ,input_remark,lateRespFeed,list,major_version,message,mixQ_item1,mixQ_item2,mixQ_item3,mixQ_item4,mixQ_item5,name,navigator_appName,navigator_userAgent,os,pracQ1_IDa,pracQ1_IDb,pracQ1_IDc,pracQ1_IDd,pracQ1_optionA,pracQ1_optionB,pracQ1_optionC,pracQ1_optionD,pracQ1_valueA,pracQ1_valueB,pracQ1_valueC,pracQ1_valueD,pracQ2_IDa,pracQ2_IDb,pracQ2_IDc,pracQ2_optionA,pracQ2_optionB,pracQ2_optionC,pracQ2_valueA,pracQ2_valueB,pracQ2_valueC,pracQ4_IDa,pracQ4_IDb,pracQ4_IDc,pracQ4_IDd,pracQ4_optionA,pracQ4_optionB,pracQ4_optionC,pracQ4_optionD,pracQ4_valueA,pracQ4_valueB,pracQ4_valueC,pracQ4_valueD,pracQ5_IDa,pracQ5_IDb,pracQ5_IDc,pracQ5_IDd,pracQ5_optionA,pracQ5_optionB,pracQ5_optionC,pracQ5_optionD,pracQ5_valueA,pracQ5_valueB,pracQ5_valueC,pracQ5_valueD,prefHealty,prefUnhealthy,prolific_ID,psessionID,pstudyID,rep,response,response_action,skip,snack,sublock,subtitle,task_difficulty,task_engagement,task_focus,textL,textR,time_commit,time_end,time_render,time_run,time_show,time_switch,trial_count,trial_countO,url,valence
Title,html.Page,0,2021-01-14T18:30:31.314Z,"{""labjs_version"":""20.1.1"",""labjs_build"":{""flavor"":""production"",""commit"":""c48ac4ada3769e8d34489594ab03097d5f256ac7""},""location"":""https://run.pavlovia.org/E3lab/rebund/html/?PROLIFIC_PID={{%PROLIFIC_PID%}}&STUDY_ID={{%STUDY_ID%}}&SESSION_ID={{%SESSION_ID%}}"",""userAgent"":""Mozilla/5.0 (Macintosh; Intel Mac OS X 10_14_0) AppleWebKit/537.36 (KHTML, like Gecko) Chrome/87.0.4280.141 Safari/537.36"",""platform"":""MacIntel"",""language"":""pt-PT"",""locale"":""pt-PT"",""timeZone"":""Europe/Lisbon"",""timezoneOffset"":0,""screen_width"":1440,""screen_height"":900,""scroll_width"":1440,""scroll_height"":608,""window_innerWidth"":1440,""window_innerHeight"":656,""devicePixelRatio"":2}",,,,,,,,,,,,,,,,,,,,,,,,,,,,,,,,,,,,,,,,,,,,,,,,,,,,,,,,,,,,,,,,,,,,,,,,,,,,,,,,,,,,,,,,,,,,,,,,,,,,,,,,,,,,,,,,,,1860.6319999989382,,form submission,,,,,,,,,,,,,,,,,,,,,,,,,,,,,,,,,,,,,,,,,,,,,,,,,,,,,,,,,,,,,,,,,,,,,,,,,,,,,,,,,,,,,,,3046.825000004901,3046.4849999989383,1169.187,1165.6500000026426,1185.853,3052.445,,,"{""PROLIFIC_PID"":""{{%PROLIFIC_PID%}}"",""STUDY_ID"":""{{%STUDY_ID%}}"",""SESSION_ID"":""{{%SESSION_ID%}}""}",
get_systemInfo,canvas.Screen,1,2021-01-14T18:30:31.325Z,,,,,,,,,,,,,,,,,,,,,,,,,,,,,,,,,,,,,,,,,,,,,,,,,,,,,,,,,,,,,,,,,,,,,,,,,,,,,,,,,,,,,,,,,,,,,,,,,,,,,,,,Chrome,,,,,,,,,,,15457.248,,timeout,,87.0.4280.141,,,,,,,,,,,,87,,,,,,,,Netscape,"Mozilla/5.0 (Macintosh; Intel Mac OS X 10_14_0) AppleWebKit/537.36 (KHTML, like Gecko) Chrome/87.0.4280.141 Safari/537.36",MacOS,,,,,,,,,,,,,,,,,,,,,,,,,,,,,,,,,,,,,,,,,,,,,,,,{{%PROLIFIC_PID%}},,{{%STUDY_ID%}},,,,,,,,,,,,,3057.6700000019628,3057.380000005651,3035.779,3047.610000001441,3052.445,18509.693,,,,
ConsentForm,html.Form,2_0,2021-01-14T18:30:54.284Z,,,,,,,,,,,,,,,,,,,,,,,,,,,,,,,,,,,,,,,,,,,,,,,,,,,,,,,,,,,,,,,,,,,,,,,,,,,,,,,,,,,,,,,,,,,,,,,,,,,,,,,,,,,true,true,,,,,,,7506.492000000406,,form submission,,,,,,,,,,,,,,,,,,,,,,,,,,,,,,,,,,,,,,,,,,,,,,,,,,,,,,,,,,,,,,,,,,,,,,,,,,,,,,,,,,,,,,,26016.38500000263,26016.185000000405,3057.380000005651,18529.875000000175,18509.693,26026.166,,,,
PepTalk,html.Page,2_1,2021-01-14T18:31:06.440Z,,,,,,,,,,,,,,,,,,,,,,,,,,,,,,,,,,,,,,,,,,,,,,,,,,,,,,,,,,,,,,,,,,,,,,,,,,,,,,,,,,,,,,,,,,,,,,,,,,,,,,,,,,,,,,,,,,,12146.00400000528,,form submission,,,,,,,,,,,,,,,,,,,,,,,,,,,,,,,,,,,,,,,,,,,,,,,,,,,,,,,,,,,,,,,,,,,,,,,,,,,,,,,,,,,,,,,38172.47000000498,38172.17000000528,26009.5,26016.535000002477,26026.166,38175.68,,,,
Demographics,html.Form,2_2,2021-01-14T18:31:28.852Z,,,,,,,,,,,,,,,,,,,,,,,,,,,,,,,,,,,,,,,,,,,,,,,,,,,,,,,,,,,,,,,,,,,,,,,,,,,,,,,,,,,,,,,,,,,,,,,,,,,,,,,,,,,,,,,,,,,22408.35000000544,2,form submission,,,2,,,,,22,,Student,,,,,,,,,,,,,,,,,,,,,,,,,,,,,,,,,,,,,,,,,,,,,,,,,,,,,,,,,,,,,,,,,,,,,,,,,,,,,60584.280000002764,60584.03000000544,38159.014,38172.60000000533,38175.68,60598.991,,,,
InclusionCrit,html.Form,2_3,2021-01-14T18:31:41.201Z,,,,,,,,,,,,,,,,,,,,,,,,,,,,,,,,,,,,,,,,,,,,,,,,,,,,,,,,,,,,,,,,,,,,,,,,,,,,,,,,,,,,,,,,,,,,,,,,,,,,,,,,,,,,,,,,,1,1,12333.379000002264,,form submission,1,,,,,,,,,,,,,,,,,,,,,,,,,,,,,,,,,,,,,,,,,,,,,,,,,,,,,,,,,,,,,,,,,,,,,,,,,,,,,,,,,,,,,,72932.60500000179,72932.37000000227,60582.325,60584.53500000178,60598.991,72934.444,,,,
Selection,html.Page,2_4_0,2021-01-14T18:31:53.791Z,,,,,,,,,,,,,,,,,,,,,,,,,,,,,,,,,,,,,,,,,,,,,,,,,,,,,,,,,,,,,,,,,,,,,,,,,,,,,,,,,,,,,,,,,,,,,,,,,,,,,,,,,,,,,,,,,,,12587.816000005187,,form submission,,,,,,,,,,,,,,,,,,,,,,,,,,,,,,,,,,,,,,,,,,,,,,,,,,,,,,,,,,,,,,,,,,,,,,,,,,,,,,,0,,,,,,,,85522.54000000539,85522.26000000519,72917.778,72932.82000000181,72934.444,85526.576,,,,
Load,html.Page,2_4_1,2021-01-14T18:31:53.796Z,,,,,,,,,,,,,,,,,,,,,,,,,,,,,,,,,,,,,,,,,,,,,,,,,,,,,,,,,,,,,,,,,,,,,,,,,,,,,,,,,,,,,,,,,,,,,,,,,,,,,,,,,,,,,,,,,,,1066.6239999999962,,timeout,,,,,,,,,,,,,,,,,,,,,,,,,,,,,,,,,,,,,,,,,,,,,,,,,,,,,,,,,,,,,,,,,,,,,,,,,,,,,,,,,,,,,,,85527.84000000247,85527.49500000209,85509.91,85522.70500000304,85526.576,86593.2,,,,
ratings_instructions,html.Screen,2_4_2_0,2021-01-14T18:32:09.730Z,,,,,,,,,,,,,,,,,,,,,,,,,,,,,,,,,,,,,,,,,,,,,,,,,,,,,,,,,,,,,,,,,,,,,,,,,,,,,,,,,,,,,,,,,,,,,,,,,,,,,,,,,,,,,,,,,,,14863.270000004632,,response,,,,,,,,,,,,,,,,,,,,,,,,,,,,,,,,,,,,,,,,,,,,,,,,,,,,,,,,,,,,,,,,,,,,,,,,,,,,continue,keypress(Space),false,,,,,,,,,101461.26999999979,101456.47000000463,85527.49500000209,86624.54499999876,86593.2,101475.938,0,0,,
fixCross,canvas.Screen,2_4_2_1_0_0,2021-01-14T18:32:10.231Z,,,,,,,,,,,,,,,,,,,,,,,,,,,,,,,,,,,,,,,,,,,,,,,,,,,,,,,,,,,,,,,,,,,,,,,,,,,,,,,,,,,,,,,,,,,,,,,,,,,,,,,,,,,,,,,,,,,499.9800000000105,,timeout,,,,unhealthy,,praline.png,,,,,,,,,,,,,,,praline,,,,,,,,,,,,,,,,,,,,,,,,,,,,,,,,,,,,,,,,,,,,,,,,,,,,,,,,,false,,,,,,,,,101962.05000000191,101959.252,101459.272,101461.51500000269,101475.938,101975.918,,,,
Rating,html.Form,2_4_2_1_0_1,2021-01-14T18:32:19.824Z,,,,,,,,,,,,,,,,,,,,,,,,,,,,,,,,,,,,,,,,,,,,,,,,,,,,,,,,,,,,,,,,,,,,,,,,,,,,,,,,,,,,,,,,,,,,,,,,,,,,,,,,,,,,,,,,,,,9579.492000000842,,form submission,,,,unhealthy,,praline.png,,,,,,,,,,,,,,,praline,,,,,,,,,,,,,,,,,,,,,,,,,,,,,,,,,,,,,,,,,,,,,,,,,,,,,,,,,false,,,,,,,,,111555.69500000274,111555.41000000085,101959.252,101962.25500000583,101975.918,111568.714,,,,76
rating_sequence,flow.Sequence,2_4_2_1_0,2021-01-14T18:32:19.826Z,,,,,,,,,,,,,,,,,,,,,,,,,,,,,,,,,,,,,,,,,,,,,,,,,,,,,,,,,,,,,,,,,,,,,,,,,,,,,,,,,,,,,,,,,,,,,,,,,,,,,,,,,,,,,,,,,,,10079.472000000853,,completion,,,,unhealthy,,praline.png,,,,,,,,,,,,,,,praline,,,,,,,,,,,,,,,,,,,,,,,,,,,,,,,,,,,,,,,,,,,,,,,,,,,,,,,,,false,,,,,,,,,111557.18000000343,111555.41000000085,101459.272,101461.48499999981,101475.938,111568.714,,,,
fixCross,canvas.Screen,2_4_2_1_1_0,2021-01-14T18:32:20.323Z,,,,,,,,,,,,,,,,,,,,,,,,,,,,,,,,,,,,,,,,,,,,,,,,,,,,,,,,,,,,,,,,,,,,,,,,,,,,,,,,,,,,,,,,,,,,,,,,,,,,,,,,,,,,,,,,,,,499.9799999999959,,timeout,,,,healthy,,coconut.png,,,,,,,,,,,,,,,coconut,,,,,,,,,,,,,,,,,,,,,,,,,,,,,,,,,,,,,,,,,,,,,,,,,,,,,,,,,false,,,,,,,,,112054.42000000039,112052.028,111552.048,111557.30500000209,111568.714,112068.694,,,,
Rating,html.Form,2_4_2_1_1_1,2021-01-14T18:32:26.443Z,,,,,,,,,,,,,,,,,,,,,,,,,,,,,,,,,,,,,,,,,,,,,,,,,,,,,,,,,,,,,,,,,,,,,,,,,,,,,,,,,,,,,,,,,,,,,,,,,,,,,,,,,,,,,,,,,,,6105.715999999622,,form submission,,,,healthy,,coconut.png,,,,,,,,,,,,,,,coconut,,,,,,,,,,,,,,,,,,,,,,,,,,,,,,,,,,,,,,,,,,,,,,,,,,,,,,,,,false,,,,,,,,,118174.78500000288,118174.40999999963,112052.028,112054.54000000464,112068.694,118179.896,,,,64
rating_sequence,flow.Sequence,2_4_2_1_1,2021-01-14T18:32:26.444Z,,,,,,,,,,,,,,,,,,,,,,,,,,,,,,,,,,,,,,,,,,,,,,,,,,,,,,,,,,,,,,,,,,,,,,,,,,,,,,,,,,,,,,,,,,,,,,,,,,,,,,,,,,,,,,,,,,,6605.695999999618,,completion,,,,healthy,,coconut.png,,,,,,,,,,,,,,,coconut,,,,,,,,,,,,,,,,,,,,,,,,,,,,,,,,,,,,,,,,,,,,,,,,,,,,,,,,,false,,,,,,,,,118175.0600000014,118174.40999999963,111552.048,111557.27499999921,111568.714,118179.896,,,,
fixCross,canvas.Screen,2_4_2_1_2_0,2021-01-14T18:32:26.934Z,,,,,,,,,,,,,,,,,,,,,,,,,,,,,,,,,,,,,,,,,,,,,,,,,,,,,,,,,,,,,,,,,,,,,,,,,,,,,,,,,,,,,,,,,,,,,,,,,,,,,,,,,,,,,,,,,,,499.9800000000105,,timeout,,,,healthy,,raspberry.png,,,,,,,,,,,,,,,raspberry,,,,,,,,,,,,,,,,,,,,,,,,,,,,,,,,,,,,,,,,,,,,,,,,,,,,,,,,,false,,,,,,,,,118665.2000000031,118663.21,118163.23,118175.20000000513,118179.896,118679.876,,,,
Rating,html.Form,2_4_2_1_2_1,2021-01-14T18:32:30.874Z,,,,,,,,,,,,,,,,,,,,,,,,,,,,,,,,,,,,,,,,,,,,,,,,,,,,,,,,,,,,,,,,,,,,,,,,,,,,,,,,,,,,,,,,,,,,,,,,,,,,,,,,,,,,,,,,,,,3925.549000001556,,form submission,,,,healthy,,raspberry.png,,,,,,,,,,,,,,,raspberry,,,,,,,,,,,,,,,,,,,,,,,,,,,,,,,,,,,,,,,,,,,,,,,,,,,,,,,,,false,,,,,,,,,122605.71500000515,122605.42500000156,118663.21,118665.40000000532,118679.876,122618.776,,,,78
rating_sequence,flow.Sequence,2_4_2_1_2,2021-01-14T18:32:30.875Z,,,,,,,,,,,,,,,,,,,,,,,,,,,,,,,,,,,,,,,,,,,,,,,,,,,,,,,,,,,,,,,,,,,,,,,,,,,,,,,,,,,,,,,,,,,,,,,,,,,,,,,,,,,,,,,,,,,4425.529000001567,,completion,,,,healthy,,raspberry.png,,,,,,,,,,,,,,,raspberry,,,,,,,,,,,,,,,,,,,,,,,,,,,,,,,,,,,,,,,,,,,,,,,,,,,,,,,,,false,,,,,,,,,122605.96500000247,122605.42500000156,118163.23,118175.15500000445,118179.896,122618.776,,,,
fixCross,canvas.Screen,2_4_2_1_3_0,2021-01-14T18:32:31.372Z,,,,,,,,,,,,,,,,,,,,,,,,,,,,,,,,,,,,,,,,,,,,,,,,,,,,,,,,,,,,,,,,,,,,,,,,,,,,,,,,,,,,,,,,,,,,,,,,,,,,,,,,,,,,,,,,,,,499.9799999999959,,timeout,,,,unhealthy,,gummybear.png,,,,,,,,,,,,,,,gummybear,,,,,,,,,,,,,,,,,,,,,,,,,,,,,,,,,,,,,,,,,,,,,,,,,,,,,,,,,false,,,,,,,,,123103.69000000355,123102.09,122602.11,122606.11000000063,122618.776,123118.756,,,,
Rating,html.Form,2_4_2_1_3_1,2021-01-14T18:32:35.023Z,,,,,,,,,,,,,,,,,,,,,,,,,,,,,,,,,,,,,,,,,,,,,,,,,,,,,,,,,,,,,,,,,,,,,,,,,,,,,,,,,,,,,,,,,,,,,,,,,,,,,,,,,,,,,,,,,,,3635.38400000456,,form submission,,,,unhealthy,,gummybear.png,,,,,,,,,,,,,,,gummybear,,,,,,,,,,,,,,,,,,,,,,,,,,,,,,,,,,,,,,,,,,,,,,,,,,,,,,,,,false,,,,,,,,,126754.46000000375,126754.14000000455,123102.09,123103.89000000578,123118.756,126768.61,,,,80
rating_sequence,flow.Sequence,2_4_2_1_3,2021-01-14T18:32:35.023Z,,,,,,,,,,,,,,,,,,,,,,,,,,,,,,,,,,,,,,,,,,,,,,,,,,,,,,,,,,,,,,,,,,,,,,,,,,,,,,,,,,,,,,,,,,,,,,,,,,,,,,,,,,,,,,,,,,,4135.364000004556,,completion,,,,unhealthy,,gummybear.png,,,,,,,,,,,,,,,gummybear,,,,,,,,,,,,,,,,,,,,,,,,,,,,,,,,,,,,,,,,,,,,,,,,,,,,,,,,,false,,,,,,,,,126754.72000000445,126754.14000000455,122602.11,122606.06499999994,122618.776,126768.61,,,,
fixCross,canvas.Screen,2_4_2_1_4_0,2021-01-14T18:32:35.523Z,,,,,,,,,,,,,,,,,,,,,,,,,,,,,,,,,,,,,,,,,,,,,,,,,,,,,,,,,,,,,,,,,,,,,,,,,,,,,,,,,,,,,,,,,,,,,,,,,,,,,,,,,,,,,,,,,,,499.9799999999959,,timeout,,,,healthy,,cherry.png,,,,,,,,,,,,,,,cherry,,,,,,,,,,,,,,,,,,,,,,,,,,,,,,,,,,,,,,,,,,,,,,,,,,,,,,,,,false,,,,,,,,,127253.93500000064,127251.924,126751.944,126754.86500000261,126768.61,127268.59,,,,
Rating,html.Form,2_4_2_1_4_1,2021-01-14T18:32:43.450Z,,,,,,,,,,,,,,,,,,,,,,,,,,,,,,,,,,,,,,,,,,,,,,,,,,,,,,,,,,,,,,,,,,,,,,,,,,,,,,,,,,,,,,,,,,,,,,,,,,,,,,,,,,,,,,,,,,,7912.110000004439,,form submission,,,,healthy,,cherry.png,,,,,,,,,,,,,,,cherry,,,,,,,,,,,,,,,,,,,,,,,,,,,,,,,,,,,,,,,,,,,,,,,,,,,,,,,,,false,,,,,,,,,135180.98000000464,135180.70000000444,127251.924,127254.14499999897,127268.59,135185.426,,,,80
rating_sequence,flow.Sequence,2_4_2_1_4,2021-01-14T18:32:43.450Z,,,,,,,,,,,,,,,,,,,,,,,,,,,,,,,,,,,,,,,,,,,,,,,,,,,,,,,,,,,,,,,,,,,,,,,,,,,,,,,,,,,,,,,,,,,,,,,,,,,,,,,,,,,,,,,,,,,8412.090000004435,,completion,,,,healthy,,cherry.png,,,,,,,,,,,,,,,cherry,,,,,,,,,,,,,,,,,,,,,,,,,,,,,,,,,,,,,,,,,,,,,,,,,,,,,,,,,false,,,,,,,,,135181.24000000535,135180.70000000444,126751.944,126754.82000000193,126768.61,135185.426,,,,
fixCross,canvas.Screen,2_4_2_1_5_0,2021-01-14T18:32:43.940Z,,,,,,,,,,,,,,,,,,,,,,,,,,,,,,,,,,,,,,,,,,,,,,,,,,,,,,,,,,,,,,,,,,,,,,,,,,,,,,,,,,,,,,,,,,,,,,,,,,,,,,,,,,,,,,,,,,,499.9799999999814,,timeout,,,,unhealthy,,chocolate_truffle.png,,,,,,,,,,,,,,,chocolate truffle,,,,,,,,,,,,,,,,,,,,,,,,,,,,,,,,,,,,,,,,,,,,,,,,,,,,,,,,,false,,,,,,,,,135671.49000000063,135668.74,135168.76,135181.3850000035,135185.426,135685.406,,,,
Rating,html.Form,2_4_2_1_5_1,2021-01-14T18:32:48.003Z,,,,,,,,,,,,,,,,,,,,,,,,,,,,,,,,,,,,,,,,,,,,,,,,,,,,,,,,,,,,,,,,,,,,,,,,,,,,,,,,,,,,,,,,,,,,,,,,,,,,,,,,,,,,,,,,,,,4047.989000002941,,form submission,,,,unhealthy,,chocolate_truffle.png,,,,,,,,,,,,,,,chocolate truffle,,,,,,,,,,,,,,,,,,,,,,,,,,,,,,,,,,,,,,,,,,,,,,,,,,,,,,,,,false,,,,,,,,,139733.71500000212,139733.39500000293,135668.74,135671.67999999947,135685.406,139735.244,,,,100
rating_sequence,flow.Sequence,2_4_2_1_5,2021-01-14T18:32:48.003Z,,,,,,,,,,,,,,,,,,,,,,,,,,,,,,,,,,,,,,,,,,,,,,,,,,,,,,,,,,,,,,,,,,,,,,,,,,,,,,,,,,,,,,,,,,,,,,,,,,,,,,,,,,,,,,,,,,,4547.969000002922,,completion,,,,unhealthy,,chocolate_truffle.png,,,,,,,,,,,,,,,chocolate truffle,,,,,,,,,,,,,,,,,,,,,,,,,,,,,,,,,,,,,,,,,,,,,,,,,,,,,,,,,false,,,,,,,,,139733.97500000283,139733.39500000293,135168.76,135181.34000000282,135185.426,139735.244,,,,
fixCross,canvas.Screen,2_4_2_1_6_0,2021-01-14T18:32:48.489Z,,,,,,,,,,,,,,,,,,,,,,,,,,,,,,,,,,,,,,,,,,,,,,,,,,,,,,,,,,,,,,,,,,,,,,,,,,,,,,,,,,,,,,,,,,,,,,,,,,,,,,,,,,,,,,,,,,,499.9799999999814,,timeout,,,,unhealthy,,marshmallow.png,,,,,,,,,,,,,,,marshmallow,,,,,,,,,,,,,,,,,,,,,,,,,,,,,,,,,,,,,,,,,,,,,,,,,,,,,,,,,false,,,,,,,,,140220.5099999992,140218.558,139718.578,139734.12000000098,139735.244,140235.224,,,,
Rating,html.Form,2_4_2_1_6_1,2021-01-14T18:32:51.424Z,,,,,,,,,,,,,,,,,,,,,,,,,,,,,,,,,,,,,,,,,,,,,,,,,,,,,,,,,,,,,,,,,,,,,,,,,,,,,,,,,,,,,,,,,,,,,,,,,,,,,,,,,,,,,,,,,,,2919.636000002385,,form submission,,,,unhealthy,,marshmallow.png,,,,,,,,,,,,,,,marshmallow,,,,,,,,,,,,,,,,,,,,,,,,,,,,,,,,,,,,,,,,,,,,,,,,,,,,,,,,,false,,,,,,,,,143155.17000000546,143154.86000000237,140218.558,140220.64500000124,140235.224,143168.401,,,,89
rating_sequence,flow.Sequence,2_4_2_1_6,2021-01-14T18:32:51.424Z,,,,,,,,,,,,,,,,,,,,,,,,,,,,,,,,,,,,,,,,,,,,,,,,,,,,,,,,,,,,,,,,,,,,,,,,,,,,,,,,,,,,,,,,,,,,,,,,,,,,,,,,,,,,,,,,,,,3419.6160000023665,,completion,,,,unhealthy,,marshmallow.png,,,,,,,,,,,,,,,marshmallow,,,,,,,,,,,,,,,,,,,,,,,,,,,,,,,,,,,,,,,,,,,,,,,,,,,,,,,,,false,,,,,,,,,143155.4299999989,143154.86000000237,139718.578,139734.0750000003,139735.244,143168.401,,,,
fixCross,canvas.Screen,2_4_2_1_7_0,2021-01-14T18:32:51.923Z,,,,,,,,,,,,,,,,,,,,,,,,,,,,,,,,,,,,,,,,,,,,,,,,,,,,,,,,,,,,,,,,,,,,,,,,,,,,,,,,,,,,,,,,,,,,,,,,,,,,,,,,,,,,,,,,,,,499.9799999999814,,timeout,,,,unhealthy,,chocolate.png,,,,,,,,,,,,,,,chocolate,,,,,,,,,,,,,,,,,,,,,,,,,,,,,,,,,,,,,,,,,,,,,,,,,,,,,,,,,false,,,,,,,,,143653.75000000495,143651.715,143151.735,143155.57999999874,143168.401,143668.381,,,,
Rating,html.Form,2_4_2_1_7_1,2021-01-14T18:32:57.655Z,,,,,,,,,,,,,,,,,,,,,,,,,,,,,,,,,,,,,,,,,,,,,,,,,,,,,,,,,,,,,,,,,,,,,,,,,,,,,,,,,,,,,,,,,,,,,,,,,,,,,,,,,,,,,,,,,,,5717.444000004849,,form submission,,,,unhealthy,,chocolate.png,,,,,,,,,,,,,,,chocolate,,,,,,,,,,,,,,,,,,,,,,,,,,,,,,,,,,,,,,,,,,,,,,,,,,,,,,,,,false,,,,,,,,,149386.10999999946,149385.82500000484,143651.715,143653.8750000036,143668.381,149401.485,,,,87
rating_sequence,flow.Sequence,2_4_2_1_7,2021-01-14T18:32:57.655Z,,,,,,,,,,,,,,,,,,,,,,,,,,,,,,,,,,,,,,,,,,,,,,,,,,,,,,,,,,,,,,,,,,,,,,,,,,,,,,,,,,,,,,,,,,,,,,,,,,,,,,,,,,,,,,,,,,,6217.42400000483,,completion,,,,unhealthy,,chocolate.png,,,,,,,,,,,,,,,chocolate,,,,,,,,,,,,,,,,,,,,,,,,,,,,,,,,,,,,,,,,,,,,,,,,,,,,,,,,,false,,,,,,,,,149386.36500000575,149385.82500000484,143151.735,143155.53500000533,143168.401,149401.485,,,,
fixCross,canvas.Screen,2_4_2_1_8_0,2021-01-14T18:32:58.156Z,,,,,,,,,,,,,,,,,,,,,,,,,,,,,,,,,,,,,,,,,,,,,,,,,,,,,,,,,,,,,,,,,,,,,,,,,,,,,,,,,,,,,,,,,,,,,,,,,,,,,,,,,,,,,,,,,,,499.9800000000105,,timeout,,,,unhealthy,,candy.png,,,,,,,,,,,,,,,candy,,,,,,,,,,,,,,,,,,,,,,,,,,,,,,,,,,,,,,,,,,,,,,,,,,,,,,,,,false,,,,,,,,,149887.1849999996,149884.799,149384.819,149386.5100000039,149401.485,149901.465,,,,
Rating,html.Form,2_4_2_1_8_1,2021-01-14T18:33:03.152Z,,,,,,,,,,,,,,,,,,,,,,,,,,,,,,,,,,,,,,,,,,,,,,,,,,,,,,,,,,,,,,,,,,,,,,,,,,,,,,,,,,,,,,,,,,,,,,,,,,,,,,,,,,,,,,,,,,,4981.0500000047905,,form submission,,,,unhealthy,,candy.png,,,,,,,,,,,,,,,candy,,,,,,,,,,,,,,,,,,,,,,,,,,,,,,,,,,,,,,,,,,,,,,,,,,,,,,,,,false,,,,,,,,,154882.81500000448,154882.5150000048,149884.799,149887.32000000164,149901.465,154897.34,,,,39
rating_sequence,flow.Sequence,2_4_2_1_8,2021-01-14T18:33:03.152Z,,,,,,,,,,,,,,,,,,,,,,,,,,,,,,,,,,,,,,,,,,,,,,,,,,,,,,,,,,,,,,,,,,,,,,,,,,,,,,,,,,,,,,,,,,,,,,,,,,,,,,,,,,,,,,,,,,,5481.030000004801,,completion,,,,unhealthy,,candy.png,,,,,,,,,,,,,,,candy,,,,,,,,,,,,,,,,,,,,,,,,,,,,,,,,,,,,,,,,,,,,,,,,,,,,,,,,,false,,,,,,,,,154883.0700000035,154882.5150000048,149384.819,149386.46500000323,149401.485,154897.34,,,,
fixCross,canvas.Screen,2_4_2_1_9_0,2021-01-14T18:33:03.651Z,,,,,,,,,,,,,,,,,,,,,,,,,,,,,,,,,,,,,,,,,,,,,,,,,,,,,,,,,,,,,,,,,,,,,,,,,,,,,,,,,,,,,,,,,,,,,,,,,,,,,,,,,,,,,,,,,,,499.9800000000105,,timeout,,,,healthy,,apple.png,,,,,,,,,,,,,,,apple,,,,,,,,,,,,,,,,,,,,,,,,,,,,,,,,,,,,,,,,,,,,,,,,,,,,,,,,,false,,,,,,,,,155382.37500000105,155380.654,154880.674,154883.21500000166,154897.34,155397.32,,,,
Rating,html.Form,2_4_2_1_9_1,2021-01-14T18:33:07.737Z,,,,,,,,,,,,,,,,,,,,,,,,,,,,,,,,,,,,,,,,,,,,,,,,,,,,,,,,,,,,,,,,,,,,,,,,,,,,,,,,,,,,,,,,,,,,,,,,,,,,,,,,,,,,,,,,,,,4069.9649999988033,,form submission,,,,healthy,,apple.png,,,,,,,,,,,,,,,apple,,,,,,,,,,,,,,,,,,,,,,,,,,,,,,,,,,,,,,,,,,,,,,,,,,,,,,,,,false,,,,,,,,,159467.5600000046,159467.2849999988,155380.654,155382.60499999888,155397.32,159480.49,,,,57
rating_sequence,flow.Sequence,2_4_2_1_9,2021-01-14T18:33:07.737Z,,,,,,,,,,,,,,,,,,,,,,,,,,,,,,,,,,,,,,,,,,,,,,,,,,,,,,,,,,,,,,,,,,,,,,,,,,,,,,,,,,,,,,,,,,,,,,,,,,,,,,,,,,,,,,,,,,,4569.944999998814,,completion,,,,healthy,,apple.png,,,,,,,,,,,,,,,apple,,,,,,,,,,,,,,,,,,,,,,,,,,,,,,,,,,,,,,,,,,,,,,,,,,,,,,,,,false,,,,,,,,,159467.75500000513,159467.2849999988,154880.674,154883.17500000267,154897.34,159480.49,,,,
fixCross,canvas.Screen,2_4_2_1_10_0,2021-01-14T18:33:08.235Z,,,,,,,,,,,,,,,,,,,,,,,,,,,,,,,,,,,,,,,,,,,,,,,,,,,,,,,,,,,,,,,,,,,,,,,,,,,,,,,,,,,,,,,,,,,,,,,,,,,,,,,,,,,,,,,,,,,499.9800000000105,,timeout,,,,healthy,,pear.png,,,,,,,,,,,,,,,pear,,,,,,,,,,,,,,,,,,,,,,,,,,,,,,,,,,,,,,,,,,,,,,,,,,,,,,,,,false,,,,,,,,,159965.65499999997,159963.804,159463.824,159467.8750000021,159480.49,159980.47,,,,
Rating,html.Form,2_4_2_1_10_1,2021-01-14T18:33:13.080Z,,,,,,,,,,,,,,,,,,,,,,,,,,,,,,,,,,,,,,,,,,,,,,,,,,,,,,,,,,,,,,,,,,,,,,,,,,,,,,,,,,,,,,,,,,,,,,,,,,,,,,,,,,,,,,,,,,,4829.860000000248,,form submission,,,,healthy,,pear.png,,,,,,,,,,,,,,,pear,,,,,,,,,,,,,,,,,,,,,,,,,,,,,,,,,,,,,,,,,,,,,,,,,,,,,,,,,false,,,,,,,,,164810.60499999876,164810.33000000025,159963.804,159965.8400000044,159980.47,164814.965,,,,42
rating_sequence,flow.Sequence,2_4_2_1_10,2021-01-14T18:33:13.080Z,,,,,,,,,,,,,,,,,,,,,,,,,,,,,,,,,,,,,,,,,,,,,,,,,,,,,,,,,,,,,,,,,,,,,,,,,,,,,,,,,,,,,,,,,,,,,,,,,,,,,,,,,,,,,,,,,,,5329.840000000258,,completion,,,,healthy,,pear.png,,,,,,,,,,,,,,,pear,,,,,,,,,,,,,,,,,,,,,,,,,,,,,,,,,,,,,,,,,,,,,,,,,,,,,,,,,false,,,,,,,,,164810.86000000505,164810.33000000025,159463.824,159467.8350000031,159480.49,164814.965,,,,
fixCross,canvas.Screen,2_4_2_1_11_0,2021-01-14T18:33:13.570Z,,,,,,,,,,,,,,,,,,,,,,,,,,,,,,,,,,,,,,,,,,,,,,,,,,,,,,,,,,,,,,,,,,,,,,,,,,,,,,,,,,,,,,,,,,,,,,,,,,,,,,,,,,,,,,,,,,,499.9800000000105,,timeout,,,,healthy,,grape.png,,,,,,,,,,,,,,,grape,,,,,,,,,,,,,,,,,,,,,,,,,,,,,,,,,,,,,,,,,,,,,,,,,,,,,,,,,false,,,,,,,,,165300.54999999993,165298.279,164798.299,164810.99499999982,164814.965,165314.945,,,,
Rating,html.Form,2_4_2_1_11_1,2021-01-14T18:33:17.187Z,,,,,,,,,,,,,,,,,,,,,,,,,,,,,,,,,,,,,,,,,,,,,,,,,,,,,,,,,,,,,,,,,,,,,,,,,,,,,,,,,,,,,,,,,,,,,,,,,,,,,,,,,,,,,,,,,,,3603.2150000010733,,form submission,,,,healthy,,grape.png,,,,,,,,,,,,,,,grape,,,,,,,,,,,,,,,,,,,,,,,,,,,,,,,,,,,,,,,,,,,,,,,,,,,,,,,,,false,,,,,,,,,168918.43000000517,168918.16000000108,165298.279,165300.76000000554,165314.945,168931.467,,,,55
rating_sequence,flow.Sequence,2_4_2_1_11,2021-01-14T18:33:17.188Z,,,,,,,,,,,,,,,,,,,,,,,,,,,,,,,,,,,,,,,,,,,,,,,,,,,,,,,,,,,,,,,,,,,,,,,,,,,,,,,,,,,,,,,,,,,,,,,,,,,,,,,,,,,,,,,,,,,4103.195000001084,,completion,,,,healthy,,grape.png,,,,,,,,,,,,,,,grape,,,,,,,,,,,,,,,,,,,,,,,,,,,,,,,,,,,,,,,,,,,,,,,,,,,,,,,,,false,,,,,,,,,168918.6850000042,168918.16000000108,164798.299,164810.95500000083,164814.965,168931.467,,,,
fixCross,canvas.Screen,2_4_2_1_12_0,2021-01-14T18:33:17.685Z,,,,,,,,,,,,,,,,,,,,,,,,,,,,,,,,,,,,,,,,,,,,,,,,,,,,,,,,,,,,,,,,,,,,,,,,,,,,,,,,,,,,,,,,,,,,,,,,,,,,,,,,,,,,,,,,,,,499.9799999999814,,timeout,,,,healthy,,blueberry.png,,,,,,,,,,,,,,,blueberry,,,,,,,,,,,,,,,,,,,,,,,,,,,,,,,,,,,,,,,,,,,,,,,,,,,,,,,,,false,,,,,,,,,169416.6650000043,169414.781,168914.801,168918.82500000065,168931.467,169431.447,,,,
Rating,html.Form,2_4_2_1_12_1,2021-01-14T18:33:20.092Z,,,,,,,,,,,,,,,,,,,,,,,,,,,,,,,,,,,,,,,,,,,,,,,,,,,,,,,,,,,,,,,,,,,,,,,,,,,,,,,,,,,,,,,,,,,,,,,,,,,,,,,,,,,,,,,,,,,2392.4030000006896,,form submission,,,,healthy,,blueberry.png,,,,,,,,,,,,,,,blueberry,,,,,,,,,,,,,,,,,,,,,,,,,,,,,,,,,,,,,,,,,,,,,,,,,,,,,,,,,false,,,,,,,,,171824.12000000477,171823.85000000068,169414.781,169416.925000005,169431.447,171831.351,,,,36
rating_sequence,flow.Sequence,2_4_2_1_12,2021-01-14T18:33:20.093Z,,,,,,,,,,,,,,,,,,,,,,,,,,,,,,,,,,,,,,,,,,,,,,,,,,,,,,,,,,,,,,,,,,,,,,,,,,,,,,,,,,,,,,,,,,,,,,,,,,,,,,,,,,,,,,,,,,,2892.383000000671,,completion,,,,healthy,,blueberry.png,,,,,,,,,,,,,,,blueberry,,,,,,,,,,,,,,,,,,,,,,,,,,,,,,,,,,,,,,,,,,,,,,,,,,,,,,,,,false,,,,,,,,,171824.3050000019,171823.85000000068,168914.801,168918.79000000336,168931.467,171831.351,,,,
fixCross,canvas.Screen,2_4_2_1_13_0,2021-01-14T18:33:20.586Z,,,,,,,,,,,,,,,,,,,,,,,,,,,,,,,,,,,,,,,,,,,,,,,,,,,,,,,,,,,,,,,,,,,,,,,,,,,,,,,,,,,,,,,,,,,,,,,,,,,,,,,,,,,,,,,,,,,499.9800000000105,,timeout,,,,unhealthy,,liqorice.png,,,,,,,,,,,,,,,liquorice,,,,,,,,,,,,,,,,,,,,,,,,,,,,,,,,,,,,,,,,,,,,,,,,,,,,,,,,,false,,,,,,,,,172317.23000000056,172314.665,171814.685,171824.42499999888,171831.351,172331.331,,,,
Rating,html.Form,2_4_2_1_13_1,2021-01-14T18:33:23.611Z,,,,,,,,,,,,,,,,,,,,,,,,,,,,,,,,,,,,,,,,,,,,,,,,,,,,,,,,,,,,,,,,,,,,,,,,,,,,,,,,,,,,,,,,,,,,,,,,,,,,,,,,,,,,,,,,,,,3011.784000003303,,form submission,,,,unhealthy,,liqorice.png,,,,,,,,,,,,,,,liquorice,,,,,,,,,,,,,,,,,,,,,,,,,,,,,,,,,,,,,,,,,,,,,,,,,,,,,,,,,false,,,,,,,,,175343.4300000008,175343.1150000033,172314.665,172317.4100000033,172331.331,175355.003,,,,34
rating_sequence,flow.Sequence,2_4_2_1_13,2021-01-14T18:33:23.612Z,,,,,,,,,,,,,,,,,,,,,,,,,,,,,,,,,,,,,,,,,,,,,,,,,,,,,,,,,,,,,,,,,,,,,,,,,,,,,,,,,,,,,,,,,,,,,,,,,,,,,,,,,,,,,,,,,,,3511.7640000033134,,completion,,,,unhealthy,,liqorice.png,,,,,,,,,,,,,,,liquorice,,,,,,,,,,,,,,,,,,,,,,,,,,,,,,,,,,,,,,,,,,,,,,,,,,,,,,,,,false,,,,,,,,,175343.7000000049,175343.1150000033,171814.685,171824.3900000016,171831.351,175355.003,,,,
fixCross,canvas.Screen,2_4_2_1_14_0,2021-01-14T18:33:24.108Z,,,,,,,,,,,,,,,,,,,,,,,,,,,,,,,,,,,,,,,,,,,,,,,,,,,,,,,,,,,,,,,,,,,,,,,,,,,,,,,,,,,,,,,,,,,,,,,,,,,,,,,,,,,,,,,,,,,499.9800000000105,,timeout,,,,healthy,,orange.png,,,,,,,,,,,,,,,orange,,,,,,,,,,,,,,,,,,,,,,,,,,,,,,,,,,,,,,,,,,,,,,,,,,,,,,,,,false,,,,,,,,,175840.47000000282,175838.317,175338.337,175343.83499999967,175355.003,175854.983,,,,
Rating,html.Form,2_4_2_1_14_1,2021-01-14T18:33:30.600Z,,,,,,,,,,,,,,,,,,,,,,,,,,,,,,,,,,,,,,,,,,,,,,,,,,,,,,,,,,,,,,,,,,,,,,,,,,,,,,,,,,,,,,,,,,,,,,,,,,,,,,,,,,,,,,,,,,,6477.297000002349,,form submission,,,,healthy,,orange.png,,,,,,,,,,,,,,,orange,,,,,,,,,,,,,,,,,,,,,,,,,,,,,,,,,,,,,,,,,,,,,,,,,,,,,,,,,false,,,,,,,,,182332.60000000155,182332.28000000236,175838.317,175840.66000000166,175854.983,182338.057,,,,57
rating_sequence,flow.Sequence,2_4_2_1_14,2021-01-14T18:33:30.600Z,,,,,,,,,,,,,,,,,,,,,,,,,,,,,,,,,,,,,,,,,,,,,,,,,,,,,,,,,,,,,,,,,,,,,,,,,,,,,,,,,,,,,,,,,,,,,,,,,,,,,,,,,,,,,,,,,,,6977.277000002359,,completion,,,,healthy,,orange.png,,,,,,,,,,,,,,,orange,,,,,,,,,,,,,,,,,,,,,,,,,,,,,,,,,,,,,,,,,,,,,,,,,,,,,,,,,false,,,,,,,,,182332.85500000056,182332.28000000236,175338.337,175343.79500000068,175355.003,182338.057,,,,
fixCross,canvas.Screen,2_4_2_1_15_0,2021-01-14T18:33:31.089Z,,,,,,,,,,,,,,,,,,,,,,,,,,,,,,,,,,,,,,,,,,,,,,,,,,,,,,,,,,,,,,,,,,,,,,,,,,,,,,,,,,,,,,,,,,,,,,,,,,,,,,,,,,,,,,,,,,,499.9800000000105,,timeout,,,,healthy,,strawberry.png,,,,,,,,,,,,,,,strawberry,,,,,,,,,,,,,,,,,,,,,,,,,,,,,,,,,,,,,,,,,,,,,,,,,,,,,,,,,false,,,,,,,,,182822.2700000042,182821.371,182321.391,182333.0200000055,182338.057,182838.037,,,,
Rating,html.Form,2_4_2_1_15_1,2021-01-14T18:33:33.675Z,,,,,,,,,,,,,,,,,,,,,,,,,,,,,,,,,,,,,,,,,,,,,,,,,,,,,,,,,,,,,,,,,,,,,,,,,,,,,,,,,,,,,,,,,,,,,,,,,,,,,,,,,,,,,,,,,,,2570.0330000049435,,form submission,,,,healthy,,strawberry.png,,,,,,,,,,,,,,,strawberry,,,,,,,,,,,,,,,,,,,,,,,,,,,,,,,,,,,,,,,,,,,,,,,,,,,,,,,,,false,,,,,,,,,185408.31500000058,185408.07000000495,182821.371,182822.38499999949,182838.037,185408.621,,,,75
rating_sequence,flow.Sequence,2_4_2_1_15,2021-01-14T18:33:33.676Z,,,,,,,,,,,,,,,,,,,,,,,,,,,,,,,,,,,,,,,,,,,,,,,,,,,,,,,,,,,,,,,,,,,,,,,,,,,,,,,,,,,,,,,,,,,,,,,,,,,,,,,,,,,,,,,,,,,3070.013000004954,,completion,,,,healthy,,strawberry.png,,,,,,,,,,,,,,,strawberry,,,,,,,,,,,,,,,,,,,,,,,,,,,,,,,,,,,,,,,,,,,,,,,,,,,,,,,,,false,,,,,,,,,185408.5750000013,185408.07000000495,182321.391,182332.9550000053,182338.057,185408.621,,,,
fixCross,canvas.Screen,2_4_2_1_16_0,2021-01-14T18:33:34.161Z,,,,,,,,,,,,,,,,,,,,,,,,,,,,,,,,,,,,,,,,,,,,,,,,,,,,,,,,,,,,,,,,,,,,,,,,,,,,,,,,,,,,,,,,,,,,,,,,,,,,,,,,,,,,,,,,,,,499.9799999999814,,timeout,,,,unhealthy,,m&m.png,,,,,,,,,,,,,,,m&m,,,,,,,,,,,,,,,,,,,,,,,,,,,,,,,,,,,,,,,,,,,,,,,,,,,,,,,,,false,,,,,,,,,185894.3750000035,185891.935,185391.955,185408.71500000503,185408.621,185908.601,,,,
Rating,html.Form,2_4_2_1_16_1,2021-01-14T18:33:37.622Z,,,,,,,,,,,,,,,,,,,,,,,,,,,,,,,,,,,,,,,,,,,,,,,,,,,,,,,,,,,,,,,,,,,,,,,,,,,,,,,,,,,,,,,,,,,,,,,,,,,,,,,,,,,,,,,,,,,3446.3290000013367,,form submission,,,,unhealthy,,m&m.png,,,,,,,,,,,,,,,m&m,,,,,,,,,,,,,,,,,,,,,,,,,,,,,,,,,,,,,,,,,,,,,,,,,,,,,,,,,false,,,,,,,,,189355.20000000542,189354.93000000133,185891.935,185894.59000000352,185908.601,189358.463,,,,97
rating_sequence,flow.Sequence,2_4_2_1_16,2021-01-14T18:33:37.622Z,,,,,,,,,,,,,,,,,,,,,,,,,,,,,,,,,,,,,,,,,,,,,,,,,,,,,,,,,,,,,,,,,,,,,,,,,,,,,,,,,,,,,,,,,,,,,,,,,,,,,,,,,,,,,,,,,,,3946.309000001318,,completion,,,,unhealthy,,m&m.png,,,,,,,,,,,,,,,m&m,,,,,,,,,,,,,,,,,,,,,,,,,,,,,,,,,,,,,,,,,,,,,,,,,,,,,,,,,false,,,,,,,,,189355.39000000426,189354.93000000133,185391.955,185408.68000000046,185408.621,189358.463,,,,
fixCross,canvas.Screen,2_4_2_1_17_0,2021-01-14T18:33:38.111Z,,,,,,,,,,,,,,,,,,,,,,,,,,,,,,,,,,,,,,,,,,,,,,,,,,,,,,,,,,,,,,,,,,,,,,,,,,,,,,,,,,,,,,,,,,,,,,,,,,,,,,,,,,,,,,,,,,,499.9800000000105,,timeout,,,,unhealthy,,maltesers.png,,,,,,,,,,,,,,,malteser,,,,,,,,,,,,,,,,,,,,,,,,,,,,,,,,,,,,,,,,,,,,,,,,,,,,,,,,,false,,,,,,,,,189844.21999999904,189841.777,189341.797,189355.52000000462,189358.463,189858.443,,,,
Rating,html.Form,2_4_2_1_17_1,2021-01-14T18:33:40.342Z,,,,,,,,,,,,,,,,,,,,,,,,,,,,,,,,,,,,,,,,,,,,,,,,,,,,,,,,,,,,,,,,,,,,,,,,,,,,,,,,,,,,,,,,,,,,,,,,,,,,,,,,,,,,,,,,,,,2216.482000000804,,form submission,,,,unhealthy,,maltesers.png,,,,,,,,,,,,,,,malteser,,,,,,,,,,,,,,,,,,,,,,,,,,,,,,,,,,,,,,,,,,,,,,,,,,,,,,,,,false,,,,,,,,,192075.1950000049,192074.9250000008,189841.777,189844.34000000329,189858.443,192091.687,,,,95
rating_sequence,flow.Sequence,2_4_2_1_17,2021-01-14T18:33:40.342Z,,,,,,,,,,,,,,,,,,,,,,,,,,,,,,,,,,,,,,,,,,,,,,,,,,,,,,,,,,,,,,,,,,,,,,,,,,,,,,,,,,,,,,,,,,,,,,,,,,,,,,,,,,,,,,,,,,,2716.4620000008144,,completion,,,,unhealthy,,maltesers.png,,,,,,,,,,,,,,,malteser,,,,,,,,,,,,,,,,,,,,,,,,,,,,,,,,,,,,,,,,,,,,,,,,,,,,,,,,,false,,,,,,,,,192075.4500000039,192074.9250000008,189341.797,189355.47500000393,189358.463,192091.687,,,,
rating_loop,flow.Loop,2_4_2_1,2021-01-14T18:33:40.342Z,,,,,,,,,,,,,,,,,,,,,,,,,,,,,,,,,,,,,,,,,,,,,,,,,,,,,,,,,,,,,,,,,,,,,,,,,,,,,,,,,,,,,,,,,,,,,,,,,,,,,,,,,,,,,,,,,,,90598.98700000081,,completion,,,,,,,,,,,,,,,,,,,,,,,,,,,,,,,,,,,,,,,,,,,,,,,,,,,,,,,,,,,,,,,,,,,,,,,,,,,,,,false,,,,,,,,,192075.64500000444,192074.9250000008,101459.272,101461.44500000082,101475.938,192091.687,,,,
data_transmission,html.Screen,2_4_2_2,2021-01-14T18:33:40.351Z,,,,,,,,,,,,,,,,,,,,,,,,,,,,,,,,,,,,,,,,,,,,,,,,,,,,,,,,,,,,,,,,,,,,,,,,,,,,,,,,,,,,,,,,,,,,,,,,,,,,,,,,,,,,,,,,,,,NaN,,no compatible backend,,,,,,,,,,,,,,,Transferring data,,,,,,,,,,,,,,,,,,,,,,,,,,,,,,,,,,,,,,,,,,,,,,,,,,,,,,,,,,,,,,,false,,,Please wait a second…,,,,,,192083.76500000304,192083.62000000488,,192075.7500000036,,192091.687,,,,
instructions,html.Screen,2_4_2_3,2021-01-14T18:35:11.298Z,,,,,,,,,,,,,,,,,,,,,,,,,,,,,,,,,,,,,,,,,,,,,,,,,,,,,,,,,,,,,,,,,,,,,,,,,,,,,,,,,,,,,,,,,,,,,,,,,,,,,,,,,,,,,,,,,,,90939.4930000054,,done,,,,,,,,,,,,,,,,,,,,,,,,,,,,,,,,,,,,,,,,,,,,,,,,,,,,,,,,,,,,,,,,,,,,,,,,,,,,,,false,,,,,,,,,283031.32500000356,283031.1800000054,192058.355,192083.8950000034,192091.687,283034.547,,,,
Q1,html.Screen,2_4_2_4_0,2021-01-14T18:35:21.447Z,,,,,,,,,,,,,,,,,,,,,,,,,,,,,,,,,,,,,,,,,,,,,,,,,,,,,,,,,,,,,,,,,,,,,,,,,,,,,,,,,,,,,,,,,,,,,,,,,,,,,,,,,,,,,,,false,input_Q1==3,,,10140.153000003193,,response,,,,,,,,,,,,,,,,,,,,,,,,,Q1_i1,Q1_i4,Q1_i2,Q1_i3,1,4,2,3,false,false,false,correct,,,,,,,,,,,,,,,,,,,,,,,,,,,,,,,,,,,,,,,,,click #Q1_i3,false,,,,,,,,,293179.6500000055,293174.7000000032,283017.881,283031.4500000022,283034.547,293184.977,,,,
Q1_correct,html.Screen,2_4_2_4_1,2021-01-14T18:35:22.685Z,,,,,,,,,,,,,,,,,,,,,,,,,,,,,,,,,,,,,,,,,,,,,,,,,,,,,,,,,,,,,,,,,,,,,,,,,,,,,,,,,,,,,,,,,,,,,,,,,,,,,,,,,,,,,,,,,,,1229.9979999996722,,response,,,,,,,,,,,,,,,,,,,,,,,,,,,,,,,,,,,,,,,,,,,,,,,,,,,,,,,,,,,,,,,,,,,,,,,,,,,,,keypress,false,,,,,,,,,294417.93000000325,294414.9749999997,293168.311,293179.81500000315,293184.977,294418.261,,,,
Q2,html.Screen,2_4_2_4_2,2021-01-14T18:35:28.757Z,,,,,,,,,,,,,,,,,,,,,,,,,,,,,,,,,,,,,,,,,,,,,,,,,,,,,,,,,,,,,,,,,,,,,,,,,,,,,,,,,,,,,,,,,,,,,,,,,,,,,,,,,,,,,,,,,,,6069.924000001978,,response,,,,,,,,,,,,,,,,,,,,,,,,,,,,,,,,,,,,,Q2_i1,Q2_i2,Q2_i3,Option 1,Option 2,Same amount,correct,opt2,same,,,,,,,,,,,,,,,,,,,,,,,,,,,,,,,,click #Q2_i1,false,,,,,,,,,300490.2250000014,300488.185000002,294401.595,294418.0899999992,294418.261,300505.986,,,,
Q2_correct,html.Screen,2_4_2_4_3,2021-01-14T18:35:29.651Z,,,,,,,,,,,,,,,,,,,,,,,,,,,,,,,,,,,,,,,,,,,,,,,,,,,,,,,,,,,,,,,,,,,,,,,,,,,,,,,,,,,,,,,,,,,,,,,,,,,,,,,,,,,,,,,,,,,874.7990000012214,,response,,,,,,,,,,,,,,,,,,,,,,,,,,,,,,,,,,,,,,,,,,,,,,,,,,,,,,,,,,,,,,,,,,,,,,,,,,,,,keypress,false,,,,,,,,,301383.4350000034,301380.7850000012,300489.32,300490.4300000053,300505.986,301389.284,,,,
Q4,html.Screen,2_4_2_4_4,2021-01-14T18:35:41.897Z,,,,,,,,,,,,,,,,,,,,,,,,,,,,,,,,,,,,,,,,,,,,,,,,,,,,,,,,,,,,,,,,,,,,,,,,,,,,,,,,,,,,,,,,,,,,,,,,,,,,,,,,,,,,,,,,,,,12238.55600000103,,response,,,,,,,,,,,,,,,,,,,,,,,,,,,,,,,,,,,,,,,,,,,,,,Q4_i3,Q4_i2,Q4_i1,Q4_i4,Press the arrow key that corresponds with the snack option with more food items,Indicate the number of food items in each snack option,Press the arrow key that corresponds with the snack option I prefer,Press the space key,morefood,indicate,correct,pressspace,,,,,,,,,,,,,,,,,,,,click #Q4_i1,false,,,,,,,,,313629.9100000033,313627.840000001,301372.618,301383.54500000423,301389.284,313638.088,,,,
Q4_correct,html.Screen,2_4_2_4_5,2021-01-14T18:35:42.695Z,,,,,,,,,,,,,,,,,,,,,,,,,,,,,,,,,,,,,,,,,,,,,,,,,,,,,,,,,,,,,,,,,,,,,,,,,,,,,,,,,,,,,,,,,,,,,,,,,,,,,,,,,,,,,,,,,,,787.3770000002696,,response,,,,,,,,,,,,,,,,,,,,,,,,,,,,,,,,,,,,,,,,,,,,,,,,,,,,,,,,,,,,,,,,,,,,,,,,,,,,,keypress,false,,,,,,,,,314428.08000000514,314425.46500000026,313621.422,313630.10000000213,313638.088,314438.056,,,,
Q5,html.Screen,2_4_2_4_6,2021-01-14T18:35:49.888Z,,,,,,,,,,,,,,,,,,,,,,,,,,,,,,,,,,,,,,,,,,,,,,,,,,,,,,,,,,,,,,,,,,,,,,,,,,,,,,,,,,,,,,,,,,,,,,,,,,,,,,,,,,,,,,,,,,,7180.55400000501,,response,,,,,,,,,,,,,,,,,,,,,,,,,,,,,,,,,,,,,,,,,,,,,,,,,,,,,,,,,,Q5_i1,Q5_i2,Q5_i3,Q5_i4,Snack Option 2 has been chosen,There are more pieces of chocolate in snack Option 2,There are more slices of kiwi in snack Option 1,Snack Option 1 has been chosen,correct,morechoc2,morekiwi1,chose1,,,,,,,,click #Q5_i1,false,,,,,,,,,321620.6250000032,321618.610000005,314421.39,314428.1850000043,314438.056,321621.102,,,,
Q5_correct,html.Screen,2_4_2_4_7,2021-01-14T18:35:50.461Z,,,,,,,,,,,,,,,,,,,,,,,,,,,,,,,,,,,,,,,,,,,,,,,,,,,,,,,,,,,,,,,,,,,,,,,,,,,,,,,,,,,,,,,,,,,,,,,,,,,,,,,,,,,,,,,,,,,570.0630000038072,,response,,,,,,,,,,,,,,,,,,,,,,,,,,,,,,,,,,,,,,,,,,,,,,,,,,,,,,,,,,,,,,,,,,,,,,,,,,,,,keypress,false,,,,,,,,,322193.71500000125,322191.1650000038,321604.436,321620.82000000373,321621.102,322208.404,,,,
practice_sequence,flow.Sequence,2_4_2_4,2021-01-14T18:35:50.461Z,,,,,,,,,,,,,,,,,,,,,,,,,,,,,,,,,,,,,,,,,,,,,,,,,,,,,,,,,,,,,,,,,,,,,,,,,,,,,,,,,,,,,,,,,,,,,,,,,,,,,,,,,,,,,,,,,,,39156.6180000038,,completion,,,,,,,,,,,,,,,,,,,,,,,,,,,,,,,,,,,,,,,,,,,,,,,,,,,,,,,,,,,,,,,,,,,,,,,,,,,,,,false,,,,,,,,,322193.8700000028,322191.1650000038,283017.881,283031.41999999934,283034.547,322208.404,,,,
final_instru,html.Screen,2_4_2_5,2021-01-14T18:36:19.257Z,,,,,,,,,,,,,,,,,,,,,,,,,,,,,,,,,,,,,,,,,,,,,,,,,,,,,,,,,,,,,,,,,,,,,,,,,,,,,,,,,,,,,,,,,,,,,,,,,,,,,,,,,,,,,,,,,,,28780.40600000258,,done,,,,,,,,,,,,,,,,,,,,,,,,,,,,,,,,,,,,,,,,,,,,,,,,,,,,,,,,,,,,,,,,,,,,,,,,,,,,,,false,,,,,,,,,350988.9650000041,350988.81000000256,322191.738,322193.95000000077,322208.404,350990.586,,,,
blank_screen,canvas.Screen,2_4_2_6_0,2021-01-14T18:36:21.236Z,,,,,,,,,,,,,,,,,,,,,,,,,,,,,,,,,,,,,,,,,,,,,,,,,,,,,,,,,,,,,,,,,,,,,,,,,,,,,,,,,,,,,,,,,,,,,,,,,,,,,,,,,,,,,,,,,,,2008.899999999965,,timeout,,,,,,,,,,,,,,,,,,,,,,,,,,,,,,,,,,,,,,,,,,,,,,,,,,,,,,,,,,,,,,,,,,,,,,,,,,,,,,false,,,,,,,,,352968.59000000404,352966.154,350973.92,350989.12000000564,350990.586,352999.486,,,,
fixCross,canvas.Screen,2_4_2_6_1_0_0_0_0_0_0,2021-01-14T18:36:21.696Z,,,blank.png,blank.png,blank.png,blank.png,blank.png,blank.png,blank.png,"[""chocolate_truffle.png""]",blank.png,blank.png,blank.png,blank.png,blank.png,,,,,,,,,,,,,,,,,,,,,,,,,,,,,"[""chocolate_truffle.png""]","[""cherry.png""]",PB18.png,,,,,,,,,,,0,6,"[""cherry.png""]","[""cherry.png""]","[""cherry.png""]","[""cherry.png""]","[""cherry.png""]","[""cherry.png""]",blank.png,PB18.png,PB07.png,"[""cherry.png""]","[""cherry.png""]","[""cherry.png""]","[""cherry.png""]","[""cherry.png""]","[""cherry.png""]","[""cherry.png""]",blank.png,blank.png,blank.png,blank.png,blank.png,1,"[""chocolate_truffle.png""]",blank.png,blank.png,blank.png,1,"[""cherry.png""]",blank.png,blank.png,blank.png,blank.png,blank.png,PB07.png,,,,,,,,,,,1,,,,,,,,,,,,793.6930000000284,,timeout,,,,,,,,,,,,,4,,,,,,,,,,,,,,,,,,,,,,,,,,,,,,,,,,,,,,,,,,,,,,,,,,,,,,,,,"[""cherry.png""]","[""chocolate_truffle.png""]",,,,4,,,false,,1,,,,,,,353428.8100000049,353426.527,352966.154,352998.92000000546,352999.486,353793.179,1,,,
timeout,canvas.Screen,2_4_2_6_1_0_0_0_0_0_1,2021-01-14T18:36:22.547Z,,,blank.png,blank.png,blank.png,blank.png,blank.png,blank.png,blank.png,"[""chocolate_truffle.png""]",blank.png,blank.png,blank.png,blank.png,blank.png,,,,,,,,,,,,,,,,,,,,,,,,,,,,,"[""chocolate_truffle.png""]","[""cherry.png""]",PB18.png,,,,,,,,,,,0,6,"[""cherry.png""]","[""cherry.png""]","[""cherry.png""]","[""cherry.png""]","[""cherry.png""]","[""cherry.png""]",blank.png,PB18.png,PB07.png,"[""cherry.png""]","[""cherry.png""]","[""cherry.png""]","[""cherry.png""]","[""cherry.png""]","[""cherry.png""]","[""cherry.png""]",blank.png,blank.png,blank.png,blank.png,blank.png,1,"[""chocolate_truffle.png""]",blank.png,blank.png,blank.png,1,"[""cherry.png""]",blank.png,blank.png,blank.png,blank.png,blank.png,PB07.png,,,,,,,,,,,1,,,,,,,,,,,,766.6359999999986,,timeout,,,,,,,,,,,,,4,,,,,,,,,,,,,,,,,,,,,,,,,,,,,,,,,,,,,,,,,,,,,,,,,,,,,,,,,"[""cherry.png""]","[""chocolate_truffle.png""]",,,,4,,,false,,1,,,,,,,354279.08000000025,354276.493,353426.527,353883.4050000005,353793.179,354559.815,,,,
choice,canvas.Screen,2_4_2_6_1_0_0_0_0_0_2,2021-01-14T18:36:24.368Z,,,blank.png,blank.png,blank.png,blank.png,blank.png,blank.png,blank.png,"[""chocolate_truffle.png""]",blank.png,blank.png,blank.png,blank.png,blank.png,,,,,,,,,,,,,,,,,,,,,,,,,,,,,"[""chocolate_truffle.png""]","[""cherry.png""]",PB18.png,,,,,,,,,,,0,6,"[""cherry.png""]","[""cherry.png""]","[""cherry.png""]","[""cherry.png""]","[""cherry.png""]","[""cherry.png""]",blank.png,PB18.png,PB07.png,"[""cherry.png""]","[""cherry.png""]","[""cherry.png""]","[""cherry.png""]","[""cherry.png""]","[""cherry.png""]","[""cherry.png""]",blank.png,blank.png,blank.png,blank.png,blank.png,1,"[""chocolate_truffle.png""]",blank.png,blank.png,blank.png,1,"[""cherry.png""]",blank.png,blank.png,blank.png,blank.png,blank.png,PB07.png,,,,,,,,,,,1,,,,,,,,,,,,1537.5500000014435,,response,,,,,,,,,,,,,4,,,,,,,,,,,,,,,,,,,,,,,,,,,,,,,,,,,,,,,,,,,,,,,,,,,,,,,,,"[""cherry.png""]","[""chocolate_truffle.png""]",,,,4,left,keydown(ArrowLeft),false,,1,,,,,,,356100.400000003,356097.36500000145,354276.493,354564.39500000124,354559.815,356359.743,,1,,
square,canvas.Screen,2_4_2_6_1_0_0_0_0_0_3,2021-01-14T18:36:25.613Z,,,blank.png,blank.png,blank.png,blank.png,blank.png,blank.png,blank.png,"[""chocolate_truffle.png""]",blank.png,blank.png,blank.png,blank.png,blank.png,,,,,,,,,,,,,,,,,,,,,,,,,,,,,"[""chocolate_truffle.png""]","[""cherry.png""]",PB18.png,,,,,,,,,,,0,6,"[""cherry.png""]","[""cherry.png""]","[""cherry.png""]","[""cherry.png""]","[""cherry.png""]","[""cherry.png""]",blank.png,PB18.png,PB07.png,"[""cherry.png""]","[""cherry.png""]","[""cherry.png""]","[""cherry.png""]","[""cherry.png""]","[""cherry.png""]","[""cherry.png""]",blank.png,blank.png,blank.png,blank.png,blank.png,1,"[""chocolate_truffle.png""]",blank.png,blank.png,blank.png,1,"[""cherry.png""]",blank.png,blank.png,blank.png,blank.png,blank.png,PB07.png,,,,,,,,,,,1,,#33ff3f,#808080,,,,,,,,,999.9599999999627,,timeout,,,,,,,,,,,,,4,,,,,,,,,,,,,,,,,,,,,,,,,,,,,,,,,,,,,,,,,,,,,,,,,,,,,,,,,"[""cherry.png""]","[""chocolate_truffle.png""]",,,,4,,,false,,1,,,,,black,white,357345.8099999989,357343.037,356343.077,356353.71500000474,356359.743,357359.703,,,,
ITI_late,canvas.Screen,2_4_2_6_1_0_0_0_0_0_4,2021-01-14T18:36:26.363Z,,,blank.png,blank.png,blank.png,blank.png,blank.png,blank.png,blank.png,"[""chocolate_truffle.png""]",blank.png,blank.png,blank.png,blank.png,blank.png,,,,,,,,,,,,,,,,,,,,,,,,,,,,,"[""chocolate_truffle.png""]","[""cherry.png""]",PB18.png,,,,,,,,,,,0,6,"[""cherry.png""]","[""cherry.png""]","[""cherry.png""]","[""cherry.png""]","[""cherry.png""]","[""cherry.png""]",blank.png,PB18.png,PB07.png,"[""cherry.png""]","[""cherry.png""]","[""cherry.png""]","[""cherry.png""]","[""cherry.png""]","[""cherry.png""]","[""cherry.png""]",blank.png,blank.png,blank.png,blank.png,blank.png,1,"[""chocolate_truffle.png""]",blank.png,blank.png,blank.png,1,"[""cherry.png""]",blank.png,blank.png,blank.png,blank.png,blank.png,PB07.png,,,,,,,,,,,1,,,,,,,,,,,,749.9700000000303,,timeout,,,,,,,,,,,,white,4,,,,,,,,,,,,,,,,,,,,,,,,,,,,,,,,,,,,,,,,,,,,,,,,,,,,,,,,,"[""cherry.png""]","[""chocolate_truffle.png""]",,,,4,,,false,,1,,,,,,,358095.5749999994,358093.007,357343.037,357347.67000000284,357359.703,358109.673,,,,
choice_sequence,flow.Sequence,2_4_2_6_1_0_0_0_0_0,2021-01-14T18:36:26.364Z,,,blank.png,blank.png,blank.png,blank.png,blank.png,blank.png,blank.png,"[""chocolate_truffle.png""]",blank.png,blank.png,blank.png,blank.png,blank.png,,,,,,,,,,,,,,,,,,,,,,,,,,,,,"[""chocolate_truffle.png""]","[""cherry.png""]",PB18.png,,,,,,,,,,,0,6,"[""cherry.png""]","[""cherry.png""]","[""cherry.png""]","[""cherry.png""]","[""cherry.png""]","[""cherry.png""]",blank.png,PB18.png,PB07.png,"[""cherry.png""]","[""cherry.png""]","[""cherry.png""]","[""cherry.png""]","[""cherry.png""]","[""cherry.png""]","[""cherry.png""]",blank.png,blank.png,blank.png,blank.png,blank.png,1,"[""chocolate_truffle.png""]",blank.png,blank.png,blank.png,1,"[""cherry.png""]",blank.png,blank.png,blank.png,blank.png,blank.png,PB07.png,,,,,,,,,,,1,,,,,,,,,,,,5093.521000000008,,completion,,,,,,,,,,,,,4,,,,,,,,,,,,,,,,,,,,,,,,,,,,,,,,,,,,,,,,,,,,,,,,,,,,,,,,,"[""cherry.png""]","[""chocolate_truffle.png""]",,,,4,,,false,,1,,,,,,,358096.1549999993,358093.007,352966.154,352998.05000000197,352999.486,358109.673,,,,
fixCross,canvas.Screen,2_4_2_6_1_0_0_0_0_1_0,2021-01-14T18:36:27.063Z,,,blank.png,blank.png,blank.png,blank.png,blank.png,blank.png,blank.png,"[""chocolate_truffle.png""]",blank.png,blank.png,blank.png,blank.png,blank.png,,,,,,,,,,,,,,,,,,,,,,,,,,,,,"[""chocolate_truffle.png""]","[""cherry.png""]",PB18.png,,,,,,,,,,,0,6,"[""cherry.png""]","[""cherry.png""]","[""cherry.png""]","[""cherry.png""]","[""cherry.png""]","[""cherry.png""]",blank.png,PB18.png,PB16.png,"[""cherry.png""]","[""cherry.png""]","[""cherry.png""]","[""cherry.png""]","[""cherry.png""]","[""cherry.png""]","[""cherry.png""]","[""cherry.png""]","[""cherry.png""]","[""cherry.png""]","[""cherry.png""]",blank.png,1,"[""chocolate_truffle.png""]",blank.png,blank.png,blank.png,5,"[""cherry.png""]","[""cherry.png""]","[""cherry.png""]","[""cherry.png""]","[""cherry.png""]",blank.png,PB16.png,,,,,,,,,,,1,,,,,,,,,,,,999.9599999999627,,timeout,,,,,,,,,,,,,4,,,,,,,,,,,,,,,,,,,,,,,,,,,,,,,,,,,,,,,,,,,,,,,,,,,,,,,,,"[""cherry.png""]","[""chocolate_truffle.png""]",,,,4,,,false,,1,,,,,,,358794.98500000045,358792.979,358093.007,358101.0000000024,358109.673,359109.633,2,,,
timeout,canvas.Screen,2_4_2_6_1_0_0_0_0_1_1,2021-01-14T18:36:27.862Z,,,blank.png,blank.png,blank.png,blank.png,blank.png,blank.png,blank.png,"[""chocolate_truffle.png""]",blank.png,blank.png,blank.png,blank.png,blank.png,,,,,,,,,,,,,,,,,,,,,,,,,,,,,"[""chocolate_truffle.png""]","[""cherry.png""]",PB18.png,,,,,,,,,,,0,6,"[""cherry.png""]","[""cherry.png""]","[""cherry.png""]","[""cherry.png""]","[""cherry.png""]","[""cherry.png""]",blank.png,PB18.png,PB16.png,"[""cherry.png""]","[""cherry.png""]","[""cherry.png""]","[""cherry.png""]","[""cherry.png""]","[""cherry.png""]","[""cherry.png""]","[""cherry.png""]","[""cherry.png""]","[""cherry.png""]","[""cherry.png""]",blank.png,1,"[""chocolate_truffle.png""]",blank.png,blank.png,blank.png,5,"[""cherry.png""]","[""cherry.png""]","[""cherry.png""]","[""cherry.png""]","[""cherry.png""]",blank.png,PB16.png,,,,,,,,,,,1,,,,,,,,,,,,833.3000000000466,,timeout,,,,,,,,,,,,,4,,,,,,,,,,,,,,,,,,,,,,,,,,,,,,,,,,,,,,,,,,,,,,,,,,,,,,,,,"[""cherry.png""]","[""chocolate_truffle.png""]",,,,4,,,false,,1,,,,,,,359594.0300000002,359592.947,358792.979,359114.3100000045,359109.633,359942.933,,,,
choice,canvas.Screen,2_4_2_6_1_0_0_0_0_1_2,2021-01-14T18:36:28.782Z,,,blank.png,blank.png,blank.png,blank.png,blank.png,blank.png,blank.png,"[""chocolate_truffle.png""]",blank.png,blank.png,blank.png,blank.png,blank.png,,,,,,,,,,,,,,,,,,,,,,,,,,,,,"[""chocolate_truffle.png""]","[""cherry.png""]",PB18.png,,,,,,,,,,,0,6,"[""cherry.png""]","[""cherry.png""]","[""cherry.png""]","[""cherry.png""]","[""cherry.png""]","[""cherry.png""]",blank.png,PB18.png,PB16.png,"[""cherry.png""]","[""cherry.png""]","[""cherry.png""]","[""cherry.png""]","[""cherry.png""]","[""cherry.png""]","[""cherry.png""]","[""cherry.png""]","[""cherry.png""]","[""cherry.png""]","[""cherry.png""]",blank.png,1,"[""chocolate_truffle.png""]",blank.png,blank.png,blank.png,5,"[""cherry.png""]","[""cherry.png""]","[""cherry.png""]","[""cherry.png""]","[""cherry.png""]",blank.png,PB16.png,,,,,,,,,,,1,,,,,,,,,,,,568.3170000031823,,response,,,,,,,,,,,,,4,,,,,,,,,,,,,,,,,,,,,,,,,,,,,,,,,,,,,,,,,,,,,,,,,,,,,,,,,"[""cherry.png""]","[""chocolate_truffle.png""]",,,,4,right,keydown(ArrowRight),false,,1,,,,,,,360514.52500000596,360511.2500000032,359592.947,359942.9400000008,359942.933,360842.897,,2,,
square,canvas.Screen,2_4_2_6_1_0_0_0_0_1_3,2021-01-14T18:36:30.096Z,,,blank.png,blank.png,blank.png,blank.png,blank.png,blank.png,blank.png,"[""chocolate_truffle.png""]",blank.png,blank.png,blank.png,blank.png,blank.png,,,,,,,,,,,,,,,,,,,,,,,,,,,,,"[""chocolate_truffle.png""]","[""cherry.png""]",PB18.png,,,,,,,,,,,0,6,"[""cherry.png""]","[""cherry.png""]","[""cherry.png""]","[""cherry.png""]","[""cherry.png""]","[""cherry.png""]",blank.png,PB18.png,PB16.png,"[""cherry.png""]","[""cherry.png""]","[""cherry.png""]","[""cherry.png""]","[""cherry.png""]","[""cherry.png""]","[""cherry.png""]","[""cherry.png""]","[""cherry.png""]","[""cherry.png""]","[""cherry.png""]",blank.png,1,"[""chocolate_truffle.png""]",blank.png,blank.png,blank.png,5,"[""cherry.png""]","[""cherry.png""]","[""cherry.png""]","[""cherry.png""]","[""cherry.png""]",blank.png,PB16.png,,,,,,,,,,,1,,#808080,#33ff3f,,,,,,,,,999.960000000021,,timeout,,,,,,,,,,,,,4,,,,,,,,,,,,,,,,,,,,,,,,,,,,,,,,,,,,,,,,,,,,,,,,,,,,,,,,,"[""cherry.png""]","[""chocolate_truffle.png""]",,,,4,,,false,,1,,,,,white,black,361828.76500000566,361826.191,360809.565,360817.26999999955,360842.897,361842.857,,,,
ITI_late,canvas.Screen,2_4_2_6_1_0_0_0_0_1_4,2021-01-14T18:36:30.596Z,,,blank.png,blank.png,blank.png,blank.png,blank.png,blank.png,blank.png,"[""chocolate_truffle.png""]",blank.png,blank.png,blank.png,blank.png,blank.png,,,,,,,,,,,,,,,,,,,,,,,,,,,,,"[""chocolate_truffle.png""]","[""cherry.png""]",PB18.png,,,,,,,,,,,0,6,"[""cherry.png""]","[""cherry.png""]","[""cherry.png""]","[""cherry.png""]","[""cherry.png""]","[""cherry.png""]",blank.png,PB18.png,PB16.png,"[""cherry.png""]","[""cherry.png""]","[""cherry.png""]","[""cherry.png""]","[""cherry.png""]","[""cherry.png""]","[""cherry.png""]","[""cherry.png""]","[""cherry.png""]","[""cherry.png""]","[""cherry.png""]",blank.png,1,"[""chocolate_truffle.png""]",blank.png,blank.png,blank.png,5,"[""cherry.png""]","[""cherry.png""]","[""cherry.png""]","[""cherry.png""]","[""cherry.png""]",blank.png,PB16.png,,,,,,,,,,,1,,,,,,,,,,,,499.9799999999814,,timeout,,,,,,,,,,,,white,4,,,,,,,,,,,,,,,,,,,,,,,,,,,,,,,,,,,,,,,,,,,,,,,,,,,,,,,,,"[""cherry.png""]","[""chocolate_truffle.png""]",,,,4,,,false,,1,,,,,,,362328.30000000104,362326.171,361826.191,361830.750000001,361842.857,362342.837,,,,
choice_sequence,flow.Sequence,2_4_2_6_1_0_0_0_0_1,2021-01-14T18:36:30.597Z,,,blank.png,blank.png,blank.png,blank.png,blank.png,blank.png,blank.png,"[""chocolate_truffle.png""]",blank.png,blank.png,blank.png,blank.png,blank.png,,,,,,,,,,,,,,,,,,,,,,,,,,,,,"[""chocolate_truffle.png""]","[""cherry.png""]",PB18.png,,,,,,,,,,,0,6,"[""cherry.png""]","[""cherry.png""]","[""cherry.png""]","[""cherry.png""]","[""cherry.png""]","[""cherry.png""]",blank.png,PB18.png,PB16.png,"[""cherry.png""]","[""cherry.png""]","[""cherry.png""]","[""cherry.png""]","[""cherry.png""]","[""cherry.png""]","[""cherry.png""]","[""cherry.png""]","[""cherry.png""]","[""cherry.png""]","[""cherry.png""]",blank.png,1,"[""chocolate_truffle.png""]",blank.png,blank.png,blank.png,5,"[""cherry.png""]","[""cherry.png""]","[""cherry.png""]","[""cherry.png""]","[""cherry.png""]",blank.png,PB16.png,,,,,,,,,,,1,,,,,,,,,,,,4216.497999999963,,completion,,,,,,,,,,,,,4,,,,,,,,,,,,,,,,,,,,,,,,,,,,,,,,,,,,,,,,,,,,,,,,,,,,,,,,,"[""cherry.png""]","[""chocolate_truffle.png""]",,,,4,,,false,,1,,,,,,,362328.9850000001,362326.171,358093.007,358100.1350000006,358109.673,362342.837,,,,
fixCross,canvas.Screen,2_4_2_6_1_0_0_0_0_2_0,2021-01-14T18:36:30.854Z,,,blank.png,"[""chocolate_truffle.png""]",blank.png,blank.png,blank.png,blank.png,blank.png,blank.png,blank.png,blank.png,blank.png,blank.png,blank.png,,,,,,,,,,,,,,,,,,,,,,,,,,,,,"[""chocolate_truffle.png""]","[""cherry.png""]",PB17.png,,,,,,,,,,,0,6,"[""cherry.png""]","[""cherry.png""]","[""cherry.png""]","[""cherry.png""]","[""cherry.png""]","[""cherry.png""]",blank.png,PB18.png,PB18.png,"[""cherry.png""]","[""cherry.png""]","[""cherry.png""]","[""cherry.png""]","[""cherry.png""]","[""cherry.png""]","[""cherry.png""]","[""cherry.png""]","[""cherry.png""]","[""cherry.png""]","[""cherry.png""]","[""cherry.png""]",1,"[""chocolate_truffle.png""]",blank.png,blank.png,blank.png,6,"[""cherry.png""]","[""cherry.png""]","[""cherry.png""]","[""cherry.png""]","[""cherry.png""]","[""cherry.png""]",PB17.png,,,,,,,,,,,1,,,,,,,,,,,,574.7010000000009,,timeout,,,,,,,,,,,,,3,,,,,,,,,,,,,,,,,,,,,,,,,,,,,,,,,,,,,,,,,,,,,,,,,,,,,,,,,"[""cherry.png""]","[""chocolate_truffle.png""]",,,,4,,,false,,1,,,,,,,362586.12500000163,362584.218,362326.171,362334.2899999989,362342.837,362917.538,3,,,
timeout,canvas.Screen,2_4_2_6_1_0_0_0_0_2_1,2021-01-14T18:36:31.671Z,,,blank.png,"[""chocolate_truffle.png""]",blank.png,blank.png,blank.png,blank.png,blank.png,blank.png,blank.png,blank.png,blank.png,blank.png,blank.png,,,,,,,,,,,,,,,,,,,,,,,,,,,,,"[""chocolate_truffle.png""]","[""cherry.png""]",PB17.png,,,,,,,,,,,0,6,"[""cherry.png""]","[""cherry.png""]","[""cherry.png""]","[""cherry.png""]","[""cherry.png""]","[""cherry.png""]",blank.png,PB18.png,PB18.png,"[""cherry.png""]","[""cherry.png""]","[""cherry.png""]","[""cherry.png""]","[""cherry.png""]","[""cherry.png""]","[""cherry.png""]","[""cherry.png""]","[""cherry.png""]","[""cherry.png""]","[""cherry.png""]","[""cherry.png""]",1,"[""chocolate_truffle.png""]",blank.png,blank.png,blank.png,6,"[""cherry.png""]","[""cherry.png""]","[""cherry.png""]","[""cherry.png""]","[""cherry.png""]","[""cherry.png""]",PB17.png,,,,,,,,,,,1,,,,,,,,,,,,849.9660000000149,,timeout,,,,,,,,,,,,,3,,,,,,,,,,,,,,,,,,,,,,,,,,,,,,,,,,,,,,,,,,,,,,,,,,,,,,,,,"[""cherry.png""]","[""chocolate_truffle.png""]",,,,4,,,false,,1,,,,,,,363403.3400000044,363400.852,362584.218,362922.25999999937,362917.538,363767.504,,,,
choice,canvas.Screen,2_4_2_6_1_0_0_0_0_2_2,2021-01-14T18:36:32.544Z,,,blank.png,"[""chocolate_truffle.png""]",blank.png,blank.png,blank.png,blank.png,blank.png,blank.png,blank.png,blank.png,blank.png,blank.png,blank.png,,,,,,,,,,,,,,,,,,,,,,,,,,,,,"[""chocolate_truffle.png""]","[""cherry.png""]",PB17.png,,,,,,,,,,,0,6,"[""cherry.png""]","[""cherry.png""]","[""cherry.png""]","[""cherry.png""]","[""cherry.png""]","[""cherry.png""]",blank.png,PB18.png,PB18.png,"[""cherry.png""]","[""cherry.png""]","[""cherry.png""]","[""cherry.png""]","[""cherry.png""]","[""cherry.png""]","[""cherry.png""]","[""cherry.png""]","[""cherry.png""]","[""cherry.png""]","[""cherry.png""]","[""cherry.png""]",1,"[""chocolate_truffle.png""]",blank.png,blank.png,blank.png,6,"[""cherry.png""]","[""cherry.png""]","[""cherry.png""]","[""cherry.png""]","[""cherry.png""]","[""cherry.png""]",PB17.png,,,,,,,,,,,1,,,,,,,,,,,,505.3810000057565,,response,,,,,,,,,,,,,3,,,,,,,,,,,,,,,,,,,,,,,,,,,,,,,,,,,,,,,,,,,,,,,,,,,,,,,,,"[""cherry.png""]","[""chocolate_truffle.png""]",,,,4,left,keydown(ArrowLeft),false,,1,,,,,,,364276.68500000436,364272.8850000058,363400.852,363762.50000000437,363767.504,364600.804,,3,,
square,canvas.Screen,2_4_2_6_1_0_0_0_0_2_3,2021-01-14T18:36:33.855Z,,,blank.png,"[""chocolate_truffle.png""]",blank.png,blank.png,blank.png,blank.png,blank.png,blank.png,blank.png,blank.png,blank.png,blank.png,blank.png,,,,,,,,,,,,,,,,,,,,,,,,,,,,,"[""chocolate_truffle.png""]","[""cherry.png""]",PB17.png,,,,,,,,,,,0,6,"[""cherry.png""]","[""cherry.png""]","[""cherry.png""]","[""cherry.png""]","[""cherry.png""]","[""cherry.png""]",blank.png,PB18.png,PB18.png,"[""cherry.png""]","[""cherry.png""]","[""cherry.png""]","[""cherry.png""]","[""cherry.png""]","[""cherry.png""]","[""cherry.png""]","[""cherry.png""]","[""cherry.png""]","[""cherry.png""]","[""cherry.png""]","[""cherry.png""]",1,"[""chocolate_truffle.png""]",blank.png,blank.png,blank.png,6,"[""cherry.png""]","[""cherry.png""]","[""cherry.png""]","[""cherry.png""]","[""cherry.png""]","[""cherry.png""]",PB17.png,,,,,,,,,,,1,,#33ff3f,#808080,,,,,,,,,999.960000000021,,timeout,,,,,,,,,,,,,3,,,,,,,,,,,,,,,,,,,,,,,,,,,,,,,,,,,,,,,,,,,,,,,,,,,,,,,,,"[""cherry.png""]","[""chocolate_truffle.png""]",,,,4,,,false,,1,,,,,black,white,365587.0950000026,365584.098,364584.138,364595.4650000058,364600.804,365600.764,,,,
ITI_late,canvas.Screen,2_4_2_6_1_0_0_0_0_2_4,2021-01-14T18:36:34.854Z,,,blank.png,"[""chocolate_truffle.png""]",blank.png,blank.png,blank.png,blank.png,blank.png,blank.png,blank.png,blank.png,blank.png,blank.png,blank.png,,,,,,,,,,,,,,,,,,,,,,,,,,,,,"[""chocolate_truffle.png""]","[""cherry.png""]",PB17.png,,,,,,,,,,,0,6,"[""cherry.png""]","[""cherry.png""]","[""cherry.png""]","[""cherry.png""]","[""cherry.png""]","[""cherry.png""]",blank.png,PB18.png,PB18.png,"[""cherry.png""]","[""cherry.png""]","[""cherry.png""]","[""cherry.png""]","[""cherry.png""]","[""cherry.png""]","[""cherry.png""]","[""cherry.png""]","[""cherry.png""]","[""cherry.png""]","[""cherry.png""]","[""cherry.png""]",1,"[""chocolate_truffle.png""]",blank.png,blank.png,blank.png,6,"[""cherry.png""]","[""cherry.png""]","[""cherry.png""]","[""cherry.png""]","[""cherry.png""]","[""cherry.png""]",PB17.png,,,,,,,,,,,1,,,,,,,,,,,,999.9599999999627,,timeout,,,,,,,,,,,,white,3,,,,,,,,,,,,,,,,,,,,,,,,,,,,,,,,,,,,,,,,,,,,,,,,,,,,,,,,,"[""cherry.png""]","[""chocolate_truffle.png""]",,,,4,,,false,,1,,,,,,,366586.70500000153,366584.058,365584.098,365589.0600000057,365600.764,366600.724,,,,
choice_sequence,flow.Sequence,2_4_2_6_1_0_0_0_0_2,2021-01-14T18:36:34.855Z,,,blank.png,"[""chocolate_truffle.png""]",blank.png,blank.png,blank.png,blank.png,blank.png,blank.png,blank.png,blank.png,blank.png,blank.png,blank.png,,,,,,,,,,,,,,,,,,,,,,,,,,,,,"[""chocolate_truffle.png""]","[""cherry.png""]",PB17.png,,,,,,,,,,,0,6,"[""cherry.png""]","[""cherry.png""]","[""cherry.png""]","[""cherry.png""]","[""cherry.png""]","[""cherry.png""]",blank.png,PB18.png,PB18.png,"[""cherry.png""]","[""cherry.png""]","[""cherry.png""]","[""cherry.png""]","[""cherry.png""]","[""cherry.png""]","[""cherry.png""]","[""cherry.png""]","[""cherry.png""]","[""cherry.png""]","[""cherry.png""]","[""cherry.png""]",1,"[""chocolate_truffle.png""]",blank.png,blank.png,blank.png,6,"[""cherry.png""]","[""cherry.png""]","[""cherry.png""]","[""cherry.png""]","[""cherry.png""]","[""cherry.png""]",PB17.png,,,,,,,,,,,1,,,,,,,,,,,,4241.22100000002,,completion,,,,,,,,,,,,,3,,,,,,,,,,,,,,,,,,,,,,,,,,,,,,,,,,,,,,,,,,,,,,,,,,,,,,,,,"[""cherry.png""]","[""chocolate_truffle.png""]",,,,4,,,false,,1,,,,,,,366587.42500000517,366584.058,362326.171,362332.9750000048,362342.837,366600.724,,,,
fixCross,canvas.Screen,2_4_2_6_1_0_0_0_0_3_0,2021-01-14T18:36:35.355Z,,,blank.png,"[""chocolate_truffle.png""]",blank.png,blank.png,blank.png,blank.png,blank.png,blank.png,blank.png,blank.png,blank.png,blank.png,blank.png,,,,,,,,,,,,,,,,,,,,,,,,,,,,,"[""chocolate_truffle.png""]","[""cherry.png""]",PB14.png,,,,,,,,,,,0,6,"[""cherry.png""]","[""cherry.png""]","[""cherry.png""]","[""cherry.png""]","[""cherry.png""]","[""cherry.png""]",blank.png,PB18.png,PB18.png,"[""cherry.png""]","[""cherry.png""]","[""cherry.png""]",blank.png,blank.png,blank.png,"[""cherry.png""]","[""cherry.png""]","[""cherry.png""]","[""cherry.png""]","[""cherry.png""]","[""cherry.png""]",1,"[""chocolate_truffle.png""]",blank.png,blank.png,blank.png,3,"[""cherry.png""]","[""cherry.png""]","[""cherry.png""]",blank.png,blank.png,blank.png,PB14.png,,,,,,,,,,,1,,,,,,,,,,,,766.6359999999986,,timeout,,,,,,,,,,,,,3,,,,,,,,,,,,,,,,,,,,,,,,,,,,,,,,,,,,,,,,,,,,,,,,,,,,,,,,,"[""cherry.png""]","[""chocolate_truffle.png""]",,,,4,,,false,,1,,,,,,,367087.019999999,367084.038,366584.058,366592.41000000475,366600.724,367367.36,4,,,
timeout,canvas.Screen,2_4_2_6_1_0_0_0_0_3_1,2021-01-14T18:36:36.121Z,,,blank.png,"[""chocolate_truffle.png""]",blank.png,blank.png,blank.png,blank.png,blank.png,blank.png,blank.png,blank.png,blank.png,blank.png,blank.png,,,,,,,,,,,,,,,,,,,,,,,,,,,,,"[""chocolate_truffle.png""]","[""cherry.png""]",PB14.png,,,,,,,,,,,0,6,"[""cherry.png""]","[""cherry.png""]","[""cherry.png""]","[""cherry.png""]","[""cherry.png""]","[""cherry.png""]",blank.png,PB18.png,PB18.png,"[""cherry.png""]","[""cherry.png""]","[""cherry.png""]",blank.png,blank.png,blank.png,"[""cherry.png""]","[""cherry.png""]","[""cherry.png""]","[""cherry.png""]","[""cherry.png""]","[""cherry.png""]",1,"[""chocolate_truffle.png""]",blank.png,blank.png,blank.png,3,"[""cherry.png""]","[""cherry.png""]","[""cherry.png""]",blank.png,blank.png,blank.png,PB14.png,,,,,,,,,,,1,,,,,,,,,,,,766.6359999999986,,timeout,,,,,,,,,,,,,3,,,,,,,,,,,,,,,,,,,,,,,,,,,,,,,,,,,,,,,,,,,,,,,,,,,,,,,,,"[""cherry.png""]","[""chocolate_truffle.png""]",,,,4,,,false,,1,,,,,,,367852.9150000031,367850.674,367084.038,367370.45500000386,367367.36,368133.996,,,,
choice,canvas.Screen,2_4_2_6_1_0_0_0_0_3_2,2021-01-14T18:36:37.420Z,,,blank.png,"[""chocolate_truffle.png""]",blank.png,blank.png,blank.png,blank.png,blank.png,blank.png,blank.png,blank.png,blank.png,blank.png,blank.png,,,,,,,,,,,,,,,,,,,,,,,,,,,,,"[""chocolate_truffle.png""]","[""cherry.png""]",PB14.png,,,,,,,,,,,0,6,"[""cherry.png""]","[""cherry.png""]","[""cherry.png""]","[""cherry.png""]","[""cherry.png""]","[""cherry.png""]",blank.png,PB18.png,PB18.png,"[""cherry.png""]","[""cherry.png""]","[""cherry.png""]",blank.png,blank.png,blank.png,"[""cherry.png""]","[""cherry.png""]","[""cherry.png""]","[""cherry.png""]","[""cherry.png""]","[""cherry.png""]",1,"[""chocolate_truffle.png""]",blank.png,blank.png,blank.png,3,"[""cherry.png""]","[""cherry.png""]","[""cherry.png""]",blank.png,blank.png,blank.png,PB14.png,,,,,,,,,,,1,,,,,,,,,,,,1015.0690000050818,,response,,,,,,,,,,,,,3,,,,,,,,,,,,,,,,,,,,,,,,,,,,,,,,,,,,,,,,,,,,,,,,,,,,,,,,,"[""cherry.png""]","[""chocolate_truffle.png""]",,,,4,right,keydown(ArrowRight),false,,1,,,,,,,369152.4150000041,369149.06500000507,367850.674,368139.780000005,368133.996,369433.944,,4,,
square,canvas.Screen,2_4_2_6_1_0_0_0_0_3_3,2021-01-14T18:36:38.688Z,,,blank.png,"[""chocolate_truffle.png""]",blank.png,blank.png,blank.png,blank.png,blank.png,blank.png,blank.png,blank.png,blank.png,blank.png,blank.png,,,,,,,,,,,,,,,,,,,,,,,,,,,,,"[""chocolate_truffle.png""]","[""cherry.png""]",PB14.png,,,,,,,,,,,0,6,"[""cherry.png""]","[""cherry.png""]","[""cherry.png""]","[""cherry.png""]","[""cherry.png""]","[""cherry.png""]",blank.png,PB18.png,PB18.png,"[""cherry.png""]","[""cherry.png""]","[""cherry.png""]",blank.png,blank.png,blank.png,"[""cherry.png""]","[""cherry.png""]","[""cherry.png""]","[""cherry.png""]","[""cherry.png""]","[""cherry.png""]",1,"[""chocolate_truffle.png""]",blank.png,blank.png,blank.png,3,"[""cherry.png""]","[""cherry.png""]","[""cherry.png""]",blank.png,blank.png,blank.png,PB14.png,,,,,,,,,,,1,,#808080,#33ff3f,,,,,,,,,999.9599999999627,,timeout,,,,,,,,,,,,,3,,,,,,,,,,,,,,,,,,,,,,,,,,,,,,,,,,,,,,,,,,,,,,,,,,,,,,,,,"[""cherry.png""]","[""chocolate_truffle.png""]",,,,4,,,false,,1,,,,,white,black,370420.1200000025,370417.238,369417.278,369426.1600000027,369433.944,370433.904,,,,
ITI_late,canvas.Screen,2_4_2_6_1_0_0_0_0_3_4,2021-01-14T18:36:39.936Z,,,blank.png,"[""chocolate_truffle.png""]",blank.png,blank.png,blank.png,blank.png,blank.png,blank.png,blank.png,blank.png,blank.png,blank.png,blank.png,,,,,,,,,,,,,,,,,,,,,,,,,,,,,"[""chocolate_truffle.png""]","[""cherry.png""]",PB14.png,,,,,,,,,,,0,6,"[""cherry.png""]","[""cherry.png""]","[""cherry.png""]","[""cherry.png""]","[""cherry.png""]","[""cherry.png""]",blank.png,PB18.png,PB18.png,"[""cherry.png""]","[""cherry.png""]","[""cherry.png""]",blank.png,blank.png,blank.png,"[""cherry.png""]","[""cherry.png""]","[""cherry.png""]","[""cherry.png""]","[""cherry.png""]","[""cherry.png""]",1,"[""chocolate_truffle.png""]",blank.png,blank.png,blank.png,3,"[""cherry.png""]","[""cherry.png""]","[""cherry.png""]",blank.png,blank.png,blank.png,PB14.png,,,,,,,,,,,1,,,,,,,,,,,,1249.9500000000116,,timeout,,,,,,,,,,,,white,3,,,,,,,,,,,,,,,,,,,,,,,,,,,,,,,,,,,,,,,,,,,,,,,,,,,,,,,,,"[""cherry.png""]","[""chocolate_truffle.png""]",,,,4,,,false,,1,,,,,,,371668.3899999989,371667.188,370417.238,370422.0550000027,370433.904,371683.854,,,,
choice_sequence,flow.Sequence,2_4_2_6_1_0_0_0_0_3,2021-01-14T18:36:39.937Z,,,blank.png,"[""chocolate_truffle.png""]",blank.png,blank.png,blank.png,blank.png,blank.png,blank.png,blank.png,blank.png,blank.png,blank.png,blank.png,,,,,,,,,,,,,,,,,,,,,,,,,,,,,"[""chocolate_truffle.png""]","[""cherry.png""]",PB14.png,,,,,,,,,,,0,6,"[""cherry.png""]","[""cherry.png""]","[""cherry.png""]","[""cherry.png""]","[""cherry.png""]","[""cherry.png""]",blank.png,PB18.png,PB18.png,"[""cherry.png""]","[""cherry.png""]","[""cherry.png""]",blank.png,blank.png,blank.png,"[""cherry.png""]","[""cherry.png""]","[""cherry.png""]","[""cherry.png""]","[""cherry.png""]","[""cherry.png""]",1,"[""chocolate_truffle.png""]",blank.png,blank.png,blank.png,3,"[""cherry.png""]","[""cherry.png""]","[""cherry.png""]",blank.png,blank.png,blank.png,PB14.png,,,,,,,,,,,1,,,,,,,,,,,,5066.464000000036,,completion,,,,,,,,,,,,,3,,,,,,,,,,,,,,,,,,,,,,,,,,,,,,,,,,,,,,,,,,,,,,,,,,,,,,,,,"[""cherry.png""]","[""chocolate_truffle.png""]",,,,4,,,false,,1,,,,,,,371668.995,371667.188,366584.058,366591.6350000043,366600.724,371683.854,,,,
fixCross,canvas.Screen,2_4_2_6_1_0_0_0_0_4_0,2021-01-14T18:36:40.237Z,,,blank.png,"[""chocolate_truffle.png""]",blank.png,blank.png,blank.png,blank.png,blank.png,blank.png,blank.png,blank.png,blank.png,blank.png,blank.png,,,,,,,,,,,,,,,,,,,,,,,,,,,,,"[""chocolate_truffle.png""]","[""cherry.png""]",PB01.png,,,,,,,,,,,0,6,"[""cherry.png""]","[""cherry.png""]","[""cherry.png""]","[""cherry.png""]","[""cherry.png""]","[""cherry.png""]",blank.png,PB18.png,PB18.png,blank.png,blank.png,blank.png,blank.png,blank.png,blank.png,"[""cherry.png""]","[""cherry.png""]","[""cherry.png""]","[""cherry.png""]","[""cherry.png""]","[""cherry.png""]",1,"[""chocolate_truffle.png""]",blank.png,blank.png,blank.png,0,blank.png,blank.png,blank.png,blank.png,blank.png,blank.png,PB01.png,,,,,,,,,,,1,,,,,,,,,,,,516.6460000000079,,timeout,,,,,,,,,,,,,3,,,,,,,,,,,,,,,,,,,,,,,,,,,,,,,,,,,,,,,,,,,,,,,,,,,,,,,,,"[""cherry.png""]","[""chocolate_truffle.png""]",,,,4,,,false,,1,,,,,,,371969.49000000313,371967.176,371667.188,371673.69000000326,371683.854,372200.5,5,,,
timeout,canvas.Screen,2_4_2_6_1_0_0_0_0_4_1,2021-01-14T18:36:40.953Z,,,blank.png,"[""chocolate_truffle.png""]",blank.png,blank.png,blank.png,blank.png,blank.png,blank.png,blank.png,blank.png,blank.png,blank.png,blank.png,,,,,,,,,,,,,,,,,,,,,,,,,,,,,"[""chocolate_truffle.png""]","[""cherry.png""]",PB01.png,,,,,,,,,,,0,6,"[""cherry.png""]","[""cherry.png""]","[""cherry.png""]","[""cherry.png""]","[""cherry.png""]","[""cherry.png""]",blank.png,PB18.png,PB18.png,blank.png,blank.png,blank.png,blank.png,blank.png,blank.png,"[""cherry.png""]","[""cherry.png""]","[""cherry.png""]","[""cherry.png""]","[""cherry.png""]","[""cherry.png""]",1,"[""chocolate_truffle.png""]",blank.png,blank.png,blank.png,0,blank.png,blank.png,blank.png,blank.png,blank.png,blank.png,PB01.png,,,,,,,,,,,1,,,,,,,,,,,,733.3040000000037,,timeout,,,,,,,,,,,,,3,,,,,,,,,,,,,,,,,,,,,,,,,,,,,,,,,,,,,,,,,,,,,,,,,,,,,,,,,"[""cherry.png""]","[""chocolate_truffle.png""]",,,,4,,,false,,1,,,,,,,372685.58000000485,372683.814,371967.176,372204.08000000316,372200.5,372933.804,,,,
choice,canvas.Screen,2_4_2_6_1_0_0_0_0_4_2,2021-01-14T18:36:43.115Z,,,blank.png,"[""chocolate_truffle.png""]",blank.png,blank.png,blank.png,blank.png,blank.png,blank.png,blank.png,blank.png,blank.png,blank.png,blank.png,,,,,,,,,,,,,,,,,,,,,,,,,,,,,"[""chocolate_truffle.png""]","[""cherry.png""]",PB01.png,,,,,,,,,,,0,6,"[""cherry.png""]","[""cherry.png""]","[""cherry.png""]","[""cherry.png""]","[""cherry.png""]","[""cherry.png""]",blank.png,PB18.png,PB18.png,blank.png,blank.png,blank.png,blank.png,blank.png,blank.png,"[""cherry.png""]","[""cherry.png""]","[""cherry.png""]","[""cherry.png""]","[""cherry.png""]","[""cherry.png""]",1,"[""chocolate_truffle.png""]",blank.png,blank.png,blank.png,0,blank.png,blank.png,blank.png,blank.png,blank.png,blank.png,PB01.png,,,,,,,,,,,1,,,,,,,,,,,,1908.6510000054259,,response,,,,,,,,,,,,,3,,,,,,,,,,,,,,,,,,,,,,,,,,,,,,,,,,,,,,,,,,,,,,,,,,,,,,,,,"[""cherry.png""]","[""chocolate_truffle.png""]",,,,4,left,keydown(ArrowLeft),false,,1,,,,,,,374847.1900000004,374842.45500000543,372683.814,372929.1050000029,372933.804,375091.802,,5,,
square,canvas.Screen,2_4_2_6_1_0_0_0_0_4_3,2021-01-14T18:36:44.346Z,,,blank.png,"[""chocolate_truffle.png""]",blank.png,blank.png,blank.png,blank.png,blank.png,blank.png,blank.png,blank.png,blank.png,blank.png,blank.png,,,,,,,,,,,,,,,,,,,,,,,,,,,,,"[""chocolate_truffle.png""]","[""cherry.png""]",PB01.png,,,,,,,,,,,0,6,"[""cherry.png""]","[""cherry.png""]","[""cherry.png""]","[""cherry.png""]","[""cherry.png""]","[""cherry.png""]",blank.png,PB18.png,PB18.png,blank.png,blank.png,blank.png,blank.png,blank.png,blank.png,"[""cherry.png""]","[""cherry.png""]","[""cherry.png""]","[""cherry.png""]","[""cherry.png""]","[""cherry.png""]",1,"[""chocolate_truffle.png""]",blank.png,blank.png,blank.png,0,blank.png,blank.png,blank.png,blank.png,blank.png,blank.png,PB01.png,,,,,,,,,,,1,,#33ff3f,#808080,,,,,,,,,999.9599999999627,,timeout,,,,,,,,,,,,,3,,,,,,,,,,,,,,,,,,,,,,,,,,,,,,,,,,,,,,,,,,,,,,,,,,,,,,,,,"[""cherry.png""]","[""chocolate_truffle.png""]",,,,4,,,false,,1,,,,,black,white,376077.8950000022,376075.096,375075.136,375075.1900000032,375091.802,376091.762,,,,
ITI_late,canvas.Screen,2_4_2_6_1_0_0_0_0_4_4,2021-01-14T18:36:45.595Z,,,blank.png,"[""chocolate_truffle.png""]",blank.png,blank.png,blank.png,blank.png,blank.png,blank.png,blank.png,blank.png,blank.png,blank.png,blank.png,,,,,,,,,,,,,,,,,,,,,,,,,,,,,"[""chocolate_truffle.png""]","[""cherry.png""]",PB01.png,,,,,,,,,,,0,6,"[""cherry.png""]","[""cherry.png""]","[""cherry.png""]","[""cherry.png""]","[""cherry.png""]","[""cherry.png""]",blank.png,PB18.png,PB18.png,blank.png,blank.png,blank.png,blank.png,blank.png,blank.png,"[""cherry.png""]","[""cherry.png""]","[""cherry.png""]","[""cherry.png""]","[""cherry.png""]","[""cherry.png""]",1,"[""chocolate_truffle.png""]",blank.png,blank.png,blank.png,0,blank.png,blank.png,blank.png,blank.png,blank.png,blank.png,PB01.png,,,,,,,,,,,1,,,,,,,,,,,,1249.9500000000116,,timeout,,,,,,,,,,,,white,3,,,,,,,,,,,,,,,,,,,,,,,,,,,,,,,,,,,,,,,,,,,,,,,,,,,,,,,,,"[""cherry.png""]","[""chocolate_truffle.png""]",,,,4,,,false,,1,,,,,,,377327.4850000016,377325.046,376075.096,376079.95500000106,376091.762,377341.712,,,,
choice_sequence,flow.Sequence,2_4_2_6_1_0_0_0_0_4,2021-01-14T18:36:45.596Z,,,blank.png,"[""chocolate_truffle.png""]",blank.png,blank.png,blank.png,blank.png,blank.png,blank.png,blank.png,blank.png,blank.png,blank.png,blank.png,,,,,,,,,,,,,,,,,,,,,,,,,,,,,"[""chocolate_truffle.png""]","[""cherry.png""]",PB01.png,,,,,,,,,,,0,6,"[""cherry.png""]","[""cherry.png""]","[""cherry.png""]","[""cherry.png""]","[""cherry.png""]","[""cherry.png""]",blank.png,PB18.png,PB18.png,blank.png,blank.png,blank.png,blank.png,blank.png,blank.png,"[""cherry.png""]","[""cherry.png""]","[""cherry.png""]","[""cherry.png""]","[""cherry.png""]","[""cherry.png""]",1,"[""chocolate_truffle.png""]",blank.png,blank.png,blank.png,0,blank.png,blank.png,blank.png,blank.png,blank.png,blank.png,PB01.png,,,,,,,,,,,1,,,,,,,,,,,,5641.191999999981,,completion,,,,,,,,,,,,,3,,,,,,,,,,,,,,,,,,,,,,,,,,,,,,,,,,,,,,,,,,,,,,,,,,,,,,,,,"[""cherry.png""]","[""chocolate_truffle.png""]",,,,4,,,false,,1,,,,,,,377328.085000001,377325.046,371667.188,371672.89500000334,371683.854,377341.712,,,,
fixCross,canvas.Screen,2_4_2_6_1_0_0_0_0_5_0,2021-01-14T18:36:45.996Z,,,blank.png,blank.png,blank.png,blank.png,blank.png,blank.png,blank.png,"[""chocolate_truffle.png""]",blank.png,blank.png,blank.png,blank.png,blank.png,,,,,,,,,,,,,,,,,,,,,,,,,,,,,"[""chocolate_truffle.png""]","[""cherry.png""]",PB18.png,,,,,,,,,,,0,6,"[""cherry.png""]","[""cherry.png""]","[""cherry.png""]","[""cherry.png""]","[""cherry.png""]","[""cherry.png""]",blank.png,PB18.png,PB15.png,"[""cherry.png""]","[""cherry.png""]","[""cherry.png""]","[""cherry.png""]","[""cherry.png""]","[""cherry.png""]","[""cherry.png""]","[""cherry.png""]","[""cherry.png""]","[""cherry.png""]",blank.png,blank.png,1,"[""chocolate_truffle.png""]",blank.png,blank.png,blank.png,4,"[""cherry.png""]","[""cherry.png""]","[""cherry.png""]","[""cherry.png""]",blank.png,blank.png,PB15.png,,,,,,,,,,,1,,,,,,,,,,,,683.3059999999823,,timeout,,,,,,,,,,,,,4,,,,,,,,,,,,,,,,,,,,,,,,,,,,,,,,,,,,,,,,,,,,,,,,,,,,,,,,,"[""cherry.png""]","[""chocolate_truffle.png""]",,,,4,,,false,,1,,,,,,,377727.6600000041,377725.03,377325.046,377332.90500000294,377341.712,378025.018,6,,,
timeout,canvas.Screen,2_4_2_6_1_0_0_0_0_5_1,2021-01-14T18:36:46.779Z,,,blank.png,blank.png,blank.png,blank.png,blank.png,blank.png,blank.png,"[""chocolate_truffle.png""]",blank.png,blank.png,blank.png,blank.png,blank.png,,,,,,,,,,,,,,,,,,,,,,,,,,,,,"[""chocolate_truffle.png""]","[""cherry.png""]",PB18.png,,,,,,,,,,,0,6,"[""cherry.png""]","[""cherry.png""]","[""cherry.png""]","[""cherry.png""]","[""cherry.png""]","[""cherry.png""]",blank.png,PB18.png,PB15.png,"[""cherry.png""]","[""cherry.png""]","[""cherry.png""]","[""cherry.png""]","[""cherry.png""]","[""cherry.png""]","[""cherry.png""]","[""cherry.png""]","[""cherry.png""]","[""cherry.png""]",blank.png,blank.png,1,"[""chocolate_truffle.png""]",blank.png,blank.png,blank.png,4,"[""cherry.png""]","[""cherry.png""]","[""cherry.png""]","[""cherry.png""]",blank.png,blank.png,PB15.png,,,,,,,,,,,1,,,,,,,,,,,,816.63400000002,,timeout,,,,,,,,,,,,,4,,,,,,,,,,,,,,,,,,,,,,,,,,,,,,,,,,,,,,,,,,,,,,,,,,,,,,,,,"[""cherry.png""]","[""chocolate_truffle.png""]",,,,4,,,false,,1,,,,,,,378511.5300000034,378508.332,377725.03,378028.80500000174,378025.018,378841.652,,,,
choice,canvas.Screen,2_4_2_6_1_0_0_0_0_5_2,2021-01-14T18:36:47.765Z,,,blank.png,blank.png,blank.png,blank.png,blank.png,blank.png,blank.png,"[""chocolate_truffle.png""]",blank.png,blank.png,blank.png,blank.png,blank.png,,,,,,,,,,,,,,,,,,,,,,,,,,,,,"[""chocolate_truffle.png""]","[""cherry.png""]",PB18.png,,,,,,,,,,,0,6,"[""cherry.png""]","[""cherry.png""]","[""cherry.png""]","[""cherry.png""]","[""cherry.png""]","[""cherry.png""]",blank.png,PB18.png,PB15.png,"[""cherry.png""]","[""cherry.png""]","[""cherry.png""]","[""cherry.png""]","[""cherry.png""]","[""cherry.png""]","[""cherry.png""]","[""cherry.png""]","[""cherry.png""]","[""cherry.png""]",blank.png,blank.png,1,"[""chocolate_truffle.png""]",blank.png,blank.png,blank.png,4,"[""cherry.png""]","[""cherry.png""]","[""cherry.png""]","[""cherry.png""]",blank.png,blank.png,PB15.png,,,,,,,,,,,1,,,,,,,,,,,,651.798000001756,,response,,,,,,,,,,,,,4,,,,,,,,,,,,,,,,,,,,,,,,,,,,,,,,,,,,,,,,,,,,,,,,,,,,,,,,,"[""cherry.png""]","[""chocolate_truffle.png""]",,,,4,right,keydown(ArrowRight),false,,1,,,,,,,379496.7400000023,379493.45000000176,378508.332,378838.8450000057,378841.652,379791.614,,6,,
square,canvas.Screen,2_4_2_6_1_0_0_0_0_5_3,2021-01-14T18:36:49.045Z,,,blank.png,blank.png,blank.png,blank.png,blank.png,blank.png,blank.png,"[""chocolate_truffle.png""]",blank.png,blank.png,blank.png,blank.png,blank.png,,,,,,,,,,,,,,,,,,,,,,,,,,,,,"[""chocolate_truffle.png""]","[""cherry.png""]",PB18.png,,,,,,,,,,,0,6,"[""cherry.png""]","[""cherry.png""]","[""cherry.png""]","[""cherry.png""]","[""cherry.png""]","[""cherry.png""]",blank.png,PB18.png,PB15.png,"[""cherry.png""]","[""cherry.png""]","[""cherry.png""]","[""cherry.png""]","[""cherry.png""]","[""cherry.png""]","[""cherry.png""]","[""cherry.png""]","[""cherry.png""]","[""cherry.png""]",blank.png,blank.png,1,"[""chocolate_truffle.png""]",blank.png,blank.png,blank.png,4,"[""cherry.png""]","[""cherry.png""]","[""cherry.png""]","[""cherry.png""]",blank.png,blank.png,PB15.png,,,,,,,,,,,1,,#808080,#33ff3f,,,,,,,,,999.960000000021,,timeout,,,,,,,,,,,,,4,,,,,,,,,,,,,,,,,,,,,,,,,,,,,,,,,,,,,,,,,,,,,,,,,,,,,,,,,"[""cherry.png""]","[""chocolate_truffle.png""]",,,,4,,,false,,1,,,,,white,black,380776.6950000005,380774.908,379774.948,379785.5750000017,379791.614,380791.574,,,,
ITI_late,canvas.Screen,2_4_2_6_1_0_0_0_0_5_4,2021-01-14T18:36:49.296Z,,,blank.png,blank.png,blank.png,blank.png,blank.png,blank.png,blank.png,"[""chocolate_truffle.png""]",blank.png,blank.png,blank.png,blank.png,blank.png,,,,,,,,,,,,,,,,,,,,,,,,,,,,,"[""chocolate_truffle.png""]","[""cherry.png""]",PB18.png,,,,,,,,,,,0,6,"[""cherry.png""]","[""cherry.png""]","[""cherry.png""]","[""cherry.png""]","[""cherry.png""]","[""cherry.png""]",blank.png,PB18.png,PB15.png,"[""cherry.png""]","[""cherry.png""]","[""cherry.png""]","[""cherry.png""]","[""cherry.png""]","[""cherry.png""]","[""cherry.png""]","[""cherry.png""]","[""cherry.png""]","[""cherry.png""]",blank.png,blank.png,1,"[""chocolate_truffle.png""]",blank.png,blank.png,blank.png,4,"[""cherry.png""]","[""cherry.png""]","[""cherry.png""]","[""cherry.png""]",blank.png,blank.png,PB15.png,,,,,,,,,,,1,,,,,,,,,,,,249.9899999999907,,timeout,,,,,,,,,,,,white,4,,,,,,,,,,,,,,,,,,,,,,,,,,,,,,,,,,,,,,,,,,,,,,,,,,,,,,,,,"[""cherry.png""]","[""chocolate_truffle.png""]",,,,4,,,false,,1,,,,,,,381027.62000000075,381024.898,380774.908,380778.6500000002,380791.574,381041.564,,,,
choice_sequence,flow.Sequence,2_4_2_6_1_0_0_0_0_5,2021-01-14T18:36:49.296Z,,,blank.png,blank.png,blank.png,blank.png,blank.png,blank.png,blank.png,"[""chocolate_truffle.png""]",blank.png,blank.png,blank.png,blank.png,blank.png,,,,,,,,,,,,,,,,,,,,,,,,,,,,,"[""chocolate_truffle.png""]","[""cherry.png""]",PB18.png,,,,,,,,,,,0,6,"[""cherry.png""]","[""cherry.png""]","[""cherry.png""]","[""cherry.png""]","[""cherry.png""]","[""cherry.png""]",blank.png,PB18.png,PB15.png,"[""cherry.png""]","[""cherry.png""]","[""cherry.png""]","[""cherry.png""]","[""cherry.png""]","[""cherry.png""]","[""cherry.png""]","[""cherry.png""]","[""cherry.png""]","[""cherry.png""]",blank.png,blank.png,1,"[""chocolate_truffle.png""]",blank.png,blank.png,blank.png,4,"[""cherry.png""]","[""cherry.png""]","[""cherry.png""]","[""cherry.png""]",blank.png,blank.png,PB15.png,,,,,,,,,,,1,,,,,,,,,,,,3683.185999999987,,completion,,,,,,,,,,,,,4,,,,,,,,,,,,,,,,,,,,,,,,,,,,,,,,,,,,,,,,,,,,,,,,,,,,,,,,,"[""cherry.png""]","[""chocolate_truffle.png""]",,,,4,,,false,,1,,,,,,,381028.21000000404,381024.898,377325.046,377332.1350000042,377341.712,381041.564,,,,
fixCross,canvas.Screen,2_4_2_6_1_0_0_0_0_6_0,2021-01-14T18:36:49.845Z,,,blank.png,"[""chocolate_truffle.png""]",blank.png,blank.png,blank.png,blank.png,blank.png,blank.png,blank.png,blank.png,blank.png,blank.png,blank.png,,,,,,,,,,,,,,,,,,,,,,,,,,,,,"[""chocolate_truffle.png""]","[""cherry.png""]",PB12.png,,,,,,,,,,,0,6,"[""cherry.png""]","[""cherry.png""]","[""cherry.png""]","[""cherry.png""]","[""cherry.png""]","[""cherry.png""]",blank.png,PB18.png,PB18.png,"[""cherry.png""]","[""cherry.png""]",blank.png,blank.png,blank.png,blank.png,"[""cherry.png""]","[""cherry.png""]","[""cherry.png""]","[""cherry.png""]","[""cherry.png""]","[""cherry.png""]",1,"[""chocolate_truffle.png""]",blank.png,blank.png,blank.png,2,"[""cherry.png""]","[""cherry.png""]",blank.png,blank.png,blank.png,blank.png,PB12.png,,,,,,,,,,,1,,,,,,,,,,,,799.9679999999935,,timeout,,,,,,,,,,,,,3,,,,,,,,,,,,,,,,,,,,,,,,,,,,,,,,,,,,,,,,,,,,,,,,,,,,,,,,,"[""cherry.png""]","[""chocolate_truffle.png""]",,,,4,,,false,,1,,,,,,,381577.1450000029,381574.876,381024.898,381032.75000000576,381041.564,381841.532,7,,,
timeout,canvas.Screen,2_4_2_6_1_0_0_0_0_6_1,2021-01-14T18:36:50.596Z,,,blank.png,"[""chocolate_truffle.png""]",blank.png,blank.png,blank.png,blank.png,blank.png,blank.png,blank.png,blank.png,blank.png,blank.png,blank.png,,,,,,,,,,,,,,,,,,,,,,,,,,,,,"[""chocolate_truffle.png""]","[""cherry.png""]",PB12.png,,,,,,,,,,,0,6,"[""cherry.png""]","[""cherry.png""]","[""cherry.png""]","[""cherry.png""]","[""cherry.png""]","[""cherry.png""]",blank.png,PB18.png,PB18.png,"[""cherry.png""]","[""cherry.png""]",blank.png,blank.png,blank.png,blank.png,"[""cherry.png""]","[""cherry.png""]","[""cherry.png""]","[""cherry.png""]","[""cherry.png""]","[""cherry.png""]",1,"[""chocolate_truffle.png""]",blank.png,blank.png,blank.png,2,"[""cherry.png""]","[""cherry.png""]",blank.png,blank.png,blank.png,blank.png,PB12.png,,,,,,,,,,,1,,,,,,,,,,,,783.3019999999669,,timeout,,,,,,,,,,,,,3,,,,,,,,,,,,,,,,,,,,,,,,,,,,,,,,,,,,,,,,,,,,,,,,,,,,,,,,,"[""cherry.png""]","[""chocolate_truffle.png""]",,,,4,,,false,,1,,,,,,,382327.7250000028,382324.846,381574.876,381846.77500000544,381841.532,382624.834,,,,
choice,canvas.Screen,2_4_2_6_1_0_0_0_0_6_2,2021-01-14T18:36:53.016Z,,,blank.png,"[""chocolate_truffle.png""]",blank.png,blank.png,blank.png,blank.png,blank.png,blank.png,blank.png,blank.png,blank.png,blank.png,blank.png,,,,,,,,,,,,,,,,,,,,,,,,,,,,,"[""chocolate_truffle.png""]","[""cherry.png""]",PB12.png,,,,,,,,,,,0,6,"[""cherry.png""]","[""cherry.png""]","[""cherry.png""]","[""cherry.png""]","[""cherry.png""]","[""cherry.png""]",blank.png,PB18.png,PB18.png,"[""cherry.png""]","[""cherry.png""]",blank.png,blank.png,blank.png,blank.png,"[""cherry.png""]","[""cherry.png""]","[""cherry.png""]","[""cherry.png""]","[""cherry.png""]","[""cherry.png""]",1,"[""chocolate_truffle.png""]",blank.png,blank.png,blank.png,2,"[""cherry.png""]","[""cherry.png""]",blank.png,blank.png,blank.png,blank.png,PB12.png,,,,,,,,,,,1,,,,,,,,,,,,2119.9960000033025,,response,,,,,,,,,,,,,3,,,,,,,,,,,,,,,,,,,,,,,,,,,,,,,,,,,,,,,,,,,,,,,,,,,,,,,,,"[""cherry.png""]","[""chocolate_truffle.png""]",,,,4,right,keydown(ArrowRight),false,,1,,,,,,,384748.3100000027,384744.8300000033,382324.846,382628.7400000001,382624.834,385024.738,,7,,
square,canvas.Screen,2_4_2_6_1_0_0_0_0_6_3,2021-01-14T18:36:54.286Z,,,blank.png,"[""chocolate_truffle.png""]",blank.png,blank.png,blank.png,blank.png,blank.png,blank.png,blank.png,blank.png,blank.png,blank.png,blank.png,,,,,,,,,,,,,,,,,,,,,,,,,,,,,"[""chocolate_truffle.png""]","[""cherry.png""]",PB12.png,,,,,,,,,,,0,6,"[""cherry.png""]","[""cherry.png""]","[""cherry.png""]","[""cherry.png""]","[""cherry.png""]","[""cherry.png""]",blank.png,PB18.png,PB18.png,"[""cherry.png""]","[""cherry.png""]",blank.png,blank.png,blank.png,blank.png,"[""cherry.png""]","[""cherry.png""]","[""cherry.png""]","[""cherry.png""]","[""cherry.png""]","[""cherry.png""]",1,"[""chocolate_truffle.png""]",blank.png,blank.png,blank.png,2,"[""cherry.png""]","[""cherry.png""]",blank.png,blank.png,blank.png,blank.png,PB12.png,,,,,,,,,,,1,,#808080,#33ff3f,,,,,,,,,1007.7889999999898,,timeout,,,,,,,,,,,,,3,,,,,,,,,,,,,,,,,,,,,,,,,,,,,,,,,,,,,,,,,,,,,,,,,,,,,,,,,"[""cherry.png""]","[""chocolate_truffle.png""]",,,,4,,,false,,1,,,,,white,black,386018.210000002,386015.861,385008.072,385011.66000000376,385024.738,386032.527,,,,
ITI_late,canvas.Screen,2_4_2_6_1_0_0_0_0_6_4,2021-01-14T18:36:54.786Z,,,blank.png,"[""chocolate_truffle.png""]",blank.png,blank.png,blank.png,blank.png,blank.png,blank.png,blank.png,blank.png,blank.png,blank.png,blank.png,,,,,,,,,,,,,,,,,,,,,,,,,,,,,"[""chocolate_truffle.png""]","[""cherry.png""]",PB12.png,,,,,,,,,,,0,6,"[""cherry.png""]","[""cherry.png""]","[""cherry.png""]","[""cherry.png""]","[""cherry.png""]","[""cherry.png""]",blank.png,PB18.png,PB18.png,"[""cherry.png""]","[""cherry.png""]",blank.png,blank.png,blank.png,blank.png,"[""cherry.png""]","[""cherry.png""]","[""cherry.png""]","[""cherry.png""]","[""cherry.png""]","[""cherry.png""]",1,"[""chocolate_truffle.png""]",blank.png,blank.png,blank.png,2,"[""cherry.png""]","[""cherry.png""]",blank.png,blank.png,blank.png,blank.png,PB12.png,,,,,,,,,,,1,,,,,,,,,,,,499.9799999999814,,timeout,,,,,,,,,,,,white,3,,,,,,,,,,,,,,,,,,,,,,,,,,,,,,,,,,,,,,,,,,,,,,,,,,,,,,,,,"[""cherry.png""]","[""chocolate_truffle.png""]",,,,4,,,false,,1,,,,,,,386517.6849999989,386515.841,386015.861,386020.1550000056,386032.527,386532.507,,,,
choice_sequence,flow.Sequence,2_4_2_6_1_0_0_0_0_6,2021-01-14T18:36:54.786Z,,,blank.png,"[""chocolate_truffle.png""]",blank.png,blank.png,blank.png,blank.png,blank.png,blank.png,blank.png,blank.png,blank.png,blank.png,blank.png,,,,,,,,,,,,,,,,,,,,,,,,,,,,,"[""chocolate_truffle.png""]","[""cherry.png""]",PB12.png,,,,,,,,,,,0,6,"[""cherry.png""]","[""cherry.png""]","[""cherry.png""]","[""cherry.png""]","[""cherry.png""]","[""cherry.png""]",blank.png,PB18.png,PB18.png,"[""cherry.png""]","[""cherry.png""]",blank.png,blank.png,blank.png,blank.png,"[""cherry.png""]","[""cherry.png""]","[""cherry.png""]","[""cherry.png""]","[""cherry.png""]","[""cherry.png""]",1,"[""chocolate_truffle.png""]",blank.png,blank.png,blank.png,2,"[""cherry.png""]","[""cherry.png""]",blank.png,blank.png,blank.png,blank.png,PB12.png,,,,,,,,,,,1,,,,,,,,,,,,5474.277000000002,,completion,,,,,,,,,,,,,3,,,,,,,,,,,,,,,,,,,,,,,,,,,,,,,,,,,,,,,,,,,,,,,,,,,,,,,,,"[""cherry.png""]","[""chocolate_truffle.png""]",,,,4,,,false,,1,,,,,,,386518.2649999988,386515.841,381024.898,381031.9950000048,381041.564,386532.507,,,,
choice_loop,flow.Loop,2_4_2_6_1_0_0_0_0,2021-01-14T18:36:54.787Z,,,,,,,,,,,,,,,,,,,,,,,,,,,,,,,,,,,,,,,,,,,,"[""chocolate_truffle.png""]","[""cherry.png""]",,,,,,,,,,,,,,,,,,,,,,,,,,,,,,,,,,,,,,,,,,,,,,,,,,,,,,,,,,,,,,,,,,,,,,33516.35500000004,,completion,,,,,,,,,,,,,,,,,,,,,,,,,,,,,,,,,,,,,,,,,,,,,,,,,,,,,,,,,,,,,,,,,,,,,,"[""cherry.png""]","[""chocolate_truffle.png""]",,,,4,,,false,,,,,,,,,386518.60000000306,386515.841,352966.154,352995.8900000056,352999.486,386532.507,,,,
choice_frame,html.Frame,2_4_2_6_1_0_0_0,2021-01-14T18:36:54.787Z,,,,,,,,,,,,,,,,,,,,,,,,,,,,,,,,,,,,,,,,,,,,,,,,,,,,,,,,,,,,,,,,,,,,,,,,,,,,,,,,,,,,,,,,,,,,,,,,,,,,,,,,,,,,,,,,,,,33519.224000003946,,,,,,,,,,,,,,,,,,,,,,,,,,,,,,,,,,,,,,,,,,,,,,,,,,,,,,,,,,,,,,,,,,,,,,,,,,,,,4,,,false,,,,,,,,,386518.84500000597,386518.7100000039,352966.154,352968.9750000034,352999.486,386549.173,,,,
sublock_1,flow.Sequence,2_4_2_6_1_0_0,2021-01-14T18:36:54.787Z,,,,,,,,,,,,,,,,,,,,,,,,,,,,,,,,,,,,,,,,,,,,,,,,,,,,,,,,,,,,,,,,,,,,,,,,,,,,,,,,,,,,,,,,,,,,,,,,,,,,,,,,,,,,,,,,,,,33519.224000003946,,completion,,,,,,,,,,,,,,,,,,,,,,,,,,,,,,,,,,,,,,,,,,,,,,,,,,,,,,,,,,,,,,,,,,,,,,,,,,,4,,,false,,,,,,,,,386518.98000000074,386518.7100000039,352966.154,352968.9350000044,352999.486,386549.173,,,,
fixCross,canvas.Screen,2_4_2_6_1_0_1_0_0_0_0,2021-01-14T18:36:55.302Z,,,blank.png,blank.png,blank.png,blank.png,blank.png,blank.png,blank.png,"[""chocolate_truffle.png""]",blank.png,blank.png,blank.png,blank.png,blank.png,,,,,,,,,,,,,,,,,,,,,,,,,,,,,"[""chocolate_truffle.png""]","[""cherry.png""]",PB18.png,,,,,,,,,,,0,6,"[""cherry.png""]","[""cherry.png""]","[""cherry.png""]","[""cherry.png""]","[""cherry.png""]","[""cherry.png""]",blank.png,PB18.png,PB14.png,"[""cherry.png""]","[""cherry.png""]","[""cherry.png""]","[""cherry.png""]","[""cherry.png""]","[""cherry.png""]","[""cherry.png""]","[""cherry.png""]","[""cherry.png""]",blank.png,blank.png,blank.png,1,"[""chocolate_truffle.png""]",blank.png,blank.png,blank.png,3,"[""cherry.png""]","[""cherry.png""]","[""cherry.png""]",blank.png,blank.png,blank.png,PB14.png,,,,,,,,,,,1,,,,,,,,,,,,749.9699999999721,,timeout,,,,,,,,,,,,,4,,,,,,,,,,,,,,,,,,,,,,,,,,,,,,,,,,,,,,,,,,,,,,,,,,,,,,,,,"[""cherry.png""]","[""chocolate_truffle.png""]",,,,5,,,false,,1,,,,,,,387034.3350000039,387032.487,386532.507,386542.1900000001,386549.173,387299.143,8,,,
timeout,canvas.Screen,2_4_2_6_1_0_1_0_0_0_1,2021-01-14T18:36:56.053Z,,,blank.png,blank.png,blank.png,blank.png,blank.png,blank.png,blank.png,"[""chocolate_truffle.png""]",blank.png,blank.png,blank.png,blank.png,blank.png,,,,,,,,,,,,,,,,,,,,,,,,,,,,,"[""chocolate_truffle.png""]","[""cherry.png""]",PB18.png,,,,,,,,,,,0,6,"[""cherry.png""]","[""cherry.png""]","[""cherry.png""]","[""cherry.png""]","[""cherry.png""]","[""cherry.png""]",blank.png,PB18.png,PB14.png,"[""cherry.png""]","[""cherry.png""]","[""cherry.png""]","[""cherry.png""]","[""cherry.png""]","[""cherry.png""]","[""cherry.png""]","[""cherry.png""]","[""cherry.png""]",blank.png,blank.png,blank.png,1,"[""chocolate_truffle.png""]",blank.png,blank.png,blank.png,3,"[""cherry.png""]","[""cherry.png""]","[""cherry.png""]",blank.png,blank.png,blank.png,PB14.png,,,,,,,,,,,1,,,,,,,,,,,,783.3020000000251,,timeout,,,,,,,,,,,,,4,,,,,,,,,,,,,,,,,,,,,,,,,,,,,,,,,,,,,,,,,,,,,,,,,,,,,,,,,"[""cherry.png""]","[""chocolate_truffle.png""]",,,,5,,,false,,1,,,,,,,387785.18500000064,387782.457,387032.487,387307.885000002,387299.143,388082.445,,,,
choice,canvas.Screen,2_4_2_6_1_0_1_0_0_0_2,2021-01-14T18:36:56.876Z,,,blank.png,blank.png,blank.png,blank.png,blank.png,blank.png,blank.png,"[""chocolate_truffle.png""]",blank.png,blank.png,blank.png,blank.png,blank.png,,,,,,,,,,,,,,,,,,,,,,,,,,,,,"[""chocolate_truffle.png""]","[""cherry.png""]",PB18.png,,,,,,,,,,,0,6,"[""cherry.png""]","[""cherry.png""]","[""cherry.png""]","[""cherry.png""]","[""cherry.png""]","[""cherry.png""]",blank.png,PB18.png,PB14.png,"[""cherry.png""]","[""cherry.png""]","[""cherry.png""]","[""cherry.png""]","[""cherry.png""]","[""cherry.png""]","[""cherry.png""]","[""cherry.png""]","[""cherry.png""]",blank.png,blank.png,blank.png,1,"[""chocolate_truffle.png""]",blank.png,blank.png,blank.png,3,"[""cherry.png""]","[""cherry.png""]","[""cherry.png""]",blank.png,blank.png,blank.png,PB14.png,,,,,,,,,,,1,,,,,,,,,,,,521.4950000008685,,response,,,,,,,,,,,,,4,,,,,,,,,,,,,,,,,,,,,,,,,,,,,,,,,,,,,,,,,,,,,,,,,,,,,,,,,"[""cherry.png""]","[""chocolate_truffle.png""]",,,,5,right,keydown(ArrowRight),false,,1,,,,,,,388607.83000000083,388603.9400000009,387782.457,388086.7800000051,388082.445,388882.413,,8,,
square,canvas.Screen,2_4_2_6_1_0_1_0_0_0_3,2021-01-14T18:36:58.136Z,,,blank.png,blank.png,blank.png,blank.png,blank.png,blank.png,blank.png,"[""chocolate_truffle.png""]",blank.png,blank.png,blank.png,blank.png,blank.png,,,,,,,,,,,,,,,,,,,,,,,,,,,,,"[""chocolate_truffle.png""]","[""cherry.png""]",PB18.png,,,,,,,,,,,0,6,"[""cherry.png""]","[""cherry.png""]","[""cherry.png""]","[""cherry.png""]","[""cherry.png""]","[""cherry.png""]",blank.png,PB18.png,PB14.png,"[""cherry.png""]","[""cherry.png""]","[""cherry.png""]","[""cherry.png""]","[""cherry.png""]","[""cherry.png""]","[""cherry.png""]","[""cherry.png""]","[""cherry.png""]",blank.png,blank.png,blank.png,1,"[""chocolate_truffle.png""]",blank.png,blank.png,blank.png,3,"[""cherry.png""]","[""cherry.png""]","[""cherry.png""]",blank.png,blank.png,blank.png,PB14.png,,,,,,,,,,,1,,#808080,#33ff3f,,,,,,,,,999.960000000021,,timeout,,,,,,,,,,,,,4,,,,,,,,,,,,,,,,,,,,,,,,,,,,,,,,,,,,,,,,,,,,,,,,,,,,,,,,,"[""cherry.png""]","[""chocolate_truffle.png""]",,,,5,,,false,,1,,,,,white,black,389868.3850000016,389865.707,388865.747,388881.84000000183,388882.413,389882.373,,,,
ITI_late,canvas.Screen,2_4_2_6_1_0_1_0_0_0_4,2021-01-14T18:36:58.387Z,,,blank.png,blank.png,blank.png,blank.png,blank.png,blank.png,blank.png,"[""chocolate_truffle.png""]",blank.png,blank.png,blank.png,blank.png,blank.png,,,,,,,,,,,,,,,,,,,,,,,,,,,,,"[""chocolate_truffle.png""]","[""cherry.png""]",PB18.png,,,,,,,,,,,0,6,"[""cherry.png""]","[""cherry.png""]","[""cherry.png""]","[""cherry.png""]","[""cherry.png""]","[""cherry.png""]",blank.png,PB18.png,PB14.png,"[""cherry.png""]","[""cherry.png""]","[""cherry.png""]","[""cherry.png""]","[""cherry.png""]","[""cherry.png""]","[""cherry.png""]","[""cherry.png""]","[""cherry.png""]",blank.png,blank.png,blank.png,1,"[""chocolate_truffle.png""]",blank.png,blank.png,blank.png,3,"[""cherry.png""]","[""cherry.png""]","[""cherry.png""]",blank.png,blank.png,blank.png,PB14.png,,,,,,,,,,,1,,,,,,,,,,,,249.9899999999907,,timeout,,,,,,,,,,,,white,4,,,,,,,,,,,,,,,,,,,,,,,,,,,,,,,,,,,,,,,,,,,,,,,,,,,,,,,,,"[""cherry.png""]","[""chocolate_truffle.png""]",,,,5,,,false,,1,,,,,,,390118.9000000013,390115.697,389865.707,389870.28999999893,389882.373,390132.363,,,,
choice_sequence,flow.Sequence,2_4_2_6_1_0_1_0_0_0,2021-01-14T18:36:58.387Z,,,blank.png,blank.png,blank.png,blank.png,blank.png,blank.png,blank.png,"[""chocolate_truffle.png""]",blank.png,blank.png,blank.png,blank.png,blank.png,,,,,,,,,,,,,,,,,,,,,,,,,,,,,"[""chocolate_truffle.png""]","[""cherry.png""]",PB18.png,,,,,,,,,,,0,6,"[""cherry.png""]","[""cherry.png""]","[""cherry.png""]","[""cherry.png""]","[""cherry.png""]","[""cherry.png""]",blank.png,PB18.png,PB14.png,"[""cherry.png""]","[""cherry.png""]","[""cherry.png""]","[""cherry.png""]","[""cherry.png""]","[""cherry.png""]","[""cherry.png""]","[""cherry.png""]","[""cherry.png""]",blank.png,blank.png,blank.png,1,"[""chocolate_truffle.png""]",blank.png,blank.png,blank.png,3,"[""cherry.png""]","[""cherry.png""]","[""cherry.png""]",blank.png,blank.png,blank.png,PB14.png,,,,,,,,,,,1,,,,,,,,,,,,3566.523999999976,,completion,,,,,,,,,,,,,4,,,,,,,,,,,,,,,,,,,,,,,,,,,,,,,,,,,,,,,,,,,,,,,,,,,,,,,,,"[""cherry.png""]","[""chocolate_truffle.png""]",,,,5,,,false,,1,,,,,,,390119.4650000034,390115.697,386532.507,386541.6499999992,386549.173,390132.363,,,,
fixCross,canvas.Screen,2_4_2_6_1_0_1_0_0_1_0,2021-01-14T18:36:58.936Z,,,blank.png,blank.png,blank.png,blank.png,blank.png,blank.png,blank.png,"[""chocolate_truffle.png""]",blank.png,blank.png,blank.png,blank.png,blank.png,,,,,,,,,,,,,,,,,,,,,,,,,,,,,"[""chocolate_truffle.png""]","[""cherry.png""]",PB18.png,,,,,,,,,,,0,6,"[""cherry.png""]","[""cherry.png""]","[""cherry.png""]","[""cherry.png""]","[""cherry.png""]","[""cherry.png""]",blank.png,PB18.png,PB07.png,"[""cherry.png""]","[""cherry.png""]","[""cherry.png""]","[""cherry.png""]","[""cherry.png""]","[""cherry.png""]","[""cherry.png""]",blank.png,blank.png,blank.png,blank.png,blank.png,1,"[""chocolate_truffle.png""]",blank.png,blank.png,blank.png,1,"[""cherry.png""]",blank.png,blank.png,blank.png,blank.png,blank.png,PB07.png,,,,,,,,,,,1,,,,,,,,,,,,783.3019999999669,,timeout,,,,,,,,,,,,,4,,,,,,,,,,,,,,,,,,,,,,,,,,,,,,,,,,,,,,,,,,,,,,,,,,,,,,,,,"[""cherry.png""]","[""chocolate_truffle.png""]",,,,5,,,false,,1,,,,,,,390667.87000000477,390665.675,390115.697,390123.8200000007,390132.363,390915.665,9,,,
timeout,canvas.Screen,2_4_2_6_1_0_1_0_0_1_1,2021-01-14T18:36:59.670Z,,,blank.png,blank.png,blank.png,blank.png,blank.png,blank.png,blank.png,"[""chocolate_truffle.png""]",blank.png,blank.png,blank.png,blank.png,blank.png,,,,,,,,,,,,,,,,,,,,,,,,,,,,,"[""chocolate_truffle.png""]","[""cherry.png""]",PB18.png,,,,,,,,,,,0,6,"[""cherry.png""]","[""cherry.png""]","[""cherry.png""]","[""cherry.png""]","[""cherry.png""]","[""cherry.png""]",blank.png,PB18.png,PB07.png,"[""cherry.png""]","[""cherry.png""]","[""cherry.png""]","[""cherry.png""]","[""cherry.png""]","[""cherry.png""]","[""cherry.png""]",blank.png,blank.png,blank.png,blank.png,blank.png,1,"[""chocolate_truffle.png""]",blank.png,blank.png,blank.png,1,"[""cherry.png""]",blank.png,blank.png,blank.png,blank.png,blank.png,PB07.png,,,,,,,,,,,1,,,,,,,,,,,,749.9700000000303,,timeout,,,,,,,,,,,,,4,,,,,,,,,,,,,,,,,,,,,,,,,,,,,,,,,,,,,,,,,,,,,,,,,,,,,,,,,"[""cherry.png""]","[""chocolate_truffle.png""]",,,,5,,,false,,1,,,,,,,391401.6400000037,391398.979,390665.675,390911.30500000145,390915.665,391665.635,,,,
choice,canvas.Screen,2_4_2_6_1_0_1_0_0_1_2,2021-01-14T18:37:01.546Z,,,blank.png,blank.png,blank.png,blank.png,blank.png,blank.png,blank.png,"[""chocolate_truffle.png""]",blank.png,blank.png,blank.png,blank.png,blank.png,,,,,,,,,,,,,,,,,,,,,,,,,,,,,"[""chocolate_truffle.png""]","[""cherry.png""]",PB18.png,,,,,,,,,,,0,6,"[""cherry.png""]","[""cherry.png""]","[""cherry.png""]","[""cherry.png""]","[""cherry.png""]","[""cherry.png""]",blank.png,PB18.png,PB07.png,"[""cherry.png""]","[""cherry.png""]","[""cherry.png""]","[""cherry.png""]","[""cherry.png""]","[""cherry.png""]","[""cherry.png""]",blank.png,blank.png,blank.png,blank.png,blank.png,1,"[""chocolate_truffle.png""]",blank.png,blank.png,blank.png,1,"[""cherry.png""]",blank.png,blank.png,blank.png,blank.png,blank.png,PB07.png,,,,,,,,,,,1,,,,,,,,,,,,1608.9150000019,,response,,,,,,,,,,,,,4,,,,,,,,,,,,,,,,,,,,,,,,,,,,,,,,,,,,,,,,,,,,,,,,,,,,,,,,,"[""cherry.png""]","[""chocolate_truffle.png""]",,,,5,left,keydown(ArrowLeft),false,,1,,,,,,,393277.88500000315,393274.5500000019,391398.979,391670.3899999993,391665.635,393532.227,,9,,
square,canvas.Screen,2_4_2_6_1_0_1_0_0_1_3,2021-01-14T18:37:02.786Z,,,blank.png,blank.png,blank.png,blank.png,blank.png,blank.png,blank.png,"[""chocolate_truffle.png""]",blank.png,blank.png,blank.png,blank.png,blank.png,,,,,,,,,,,,,,,,,,,,,,,,,,,,,"[""chocolate_truffle.png""]","[""cherry.png""]",PB18.png,,,,,,,,,,,0,6,"[""cherry.png""]","[""cherry.png""]","[""cherry.png""]","[""cherry.png""]","[""cherry.png""]","[""cherry.png""]",blank.png,PB18.png,PB07.png,"[""cherry.png""]","[""cherry.png""]","[""cherry.png""]","[""cherry.png""]","[""cherry.png""]","[""cherry.png""]","[""cherry.png""]",blank.png,blank.png,blank.png,blank.png,blank.png,1,"[""chocolate_truffle.png""]",blank.png,blank.png,blank.png,1,"[""cherry.png""]",blank.png,blank.png,blank.png,blank.png,blank.png,PB07.png,,,,,,,,,,,1,,#33ff3f,#808080,,,,,,,,,999.9599999999627,,timeout,,,,,,,,,,,,,4,,,,,,,,,,,,,,,,,,,,,,,,,,,,,,,,,,,,,,,,,,,,,,,,,,,,,,,,,"[""cherry.png""]","[""chocolate_truffle.png""]",,,,5,,,false,,1,,,,,black,white,394518.1799999991,394515.521,393515.561,393519.44500000536,393532.227,394532.187,,,,
ITI_late,canvas.Screen,2_4_2_6_1_0_1_0_0_1_4,2021-01-14T18:37:03.033Z,,,blank.png,blank.png,blank.png,blank.png,blank.png,blank.png,blank.png,"[""chocolate_truffle.png""]",blank.png,blank.png,blank.png,blank.png,blank.png,,,,,,,,,,,,,,,,,,,,,,,,,,,,,"[""chocolate_truffle.png""]","[""cherry.png""]",PB18.png,,,,,,,,,,,0,6,"[""cherry.png""]","[""cherry.png""]","[""cherry.png""]","[""cherry.png""]","[""cherry.png""]","[""cherry.png""]",blank.png,PB18.png,PB07.png,"[""cherry.png""]","[""cherry.png""]","[""cherry.png""]","[""cherry.png""]","[""cherry.png""]","[""cherry.png""]","[""cherry.png""]",blank.png,blank.png,blank.png,blank.png,blank.png,1,"[""chocolate_truffle.png""]",blank.png,blank.png,blank.png,1,"[""cherry.png""]",blank.png,blank.png,blank.png,blank.png,blank.png,PB07.png,,,,,,,,,,,1,,,,,,,,,,,,246.89400000002934,,timeout,,,,,,,,,,,,white,4,,,,,,,,,,,,,,,,,,,,,,,,,,,,,,,,,,,,,,,,,,,,,,,,,,,,,,,,,"[""cherry.png""]","[""chocolate_truffle.png""]",,,,5,,,false,,1,,,,,,,394764.9750000055,394762.415,394515.521,394520.10000000155,394532.187,394779.081,,,,
choice_sequence,flow.Sequence,2_4_2_6_1_0_1_0_0_1,2021-01-14T18:37:03.034Z,,,blank.png,blank.png,blank.png,blank.png,blank.png,blank.png,blank.png,"[""chocolate_truffle.png""]",blank.png,blank.png,blank.png,blank.png,blank.png,,,,,,,,,,,,,,,,,,,,,,,,,,,,,"[""chocolate_truffle.png""]","[""cherry.png""]",PB18.png,,,,,,,,,,,0,6,"[""cherry.png""]","[""cherry.png""]","[""cherry.png""]","[""cherry.png""]","[""cherry.png""]","[""cherry.png""]",blank.png,PB18.png,PB07.png,"[""cherry.png""]","[""cherry.png""]","[""cherry.png""]","[""cherry.png""]","[""cherry.png""]","[""cherry.png""]","[""cherry.png""]",blank.png,blank.png,blank.png,blank.png,blank.png,1,"[""chocolate_truffle.png""]",blank.png,blank.png,blank.png,1,"[""cherry.png""]",blank.png,blank.png,blank.png,blank.png,blank.png,PB07.png,,,,,,,,,,,1,,,,,,,,,,,,4630.051999999967,,completion,,,,,,,,,,,,,4,,,,,,,,,,,,,,,,,,,,,,,,,,,,,,,,,,,,,,,,,,,,,,,,,,,,,,,,,"[""cherry.png""]","[""chocolate_truffle.png""]",,,,5,,,false,,1,,,,,,,394765.6100000022,394762.415,390115.697,390123.05500000366,390132.363,394779.081,,,,
fixCross,canvas.Screen,2_4_2_6_1_0_1_0_0_2_0,2021-01-14T18:37:03.383Z,,,blank.png,blank.png,blank.png,blank.png,blank.png,blank.png,blank.png,"[""chocolate_truffle.png""]",blank.png,blank.png,blank.png,blank.png,blank.png,,,,,,,,,,,,,,,,,,,,,,,,,,,,,"[""chocolate_truffle.png""]","[""cherry.png""]",PB18.png,,,,,,,,,,,0,6,"[""cherry.png""]","[""cherry.png""]","[""cherry.png""]","[""cherry.png""]","[""cherry.png""]","[""cherry.png""]",blank.png,PB18.png,PB17.png,"[""cherry.png""]","[""cherry.png""]","[""cherry.png""]","[""cherry.png""]","[""cherry.png""]","[""cherry.png""]","[""cherry.png""]","[""cherry.png""]","[""cherry.png""]","[""cherry.png""]","[""cherry.png""]","[""cherry.png""]",1,"[""chocolate_truffle.png""]",blank.png,blank.png,blank.png,6,"[""cherry.png""]","[""cherry.png""]","[""cherry.png""]","[""cherry.png""]","[""cherry.png""]","[""cherry.png""]",PB17.png,,,,,,,,,,,1,,,,,,,,,,,,649.9739999999874,,timeout,,,,,,,,,,,,,4,,,,,,,,,,,,,,,,,,,,,,,,,,,,,,,,,,,,,,,,,,,,,,,,,,,,,,,,,"[""cherry.png""]","[""chocolate_truffle.png""]",,,,5,,,false,,1,,,,,,,395114.77000000014,395112.401,394762.415,394770.41000000463,394779.081,395429.055,10,,,
timeout,canvas.Screen,2_4_2_6_1_0_1_0_0_2_1,2021-01-14T18:37:04.183Z,,,blank.png,blank.png,blank.png,blank.png,blank.png,blank.png,blank.png,"[""chocolate_truffle.png""]",blank.png,blank.png,blank.png,blank.png,blank.png,,,,,,,,,,,,,,,,,,,,,,,,,,,,,"[""chocolate_truffle.png""]","[""cherry.png""]",PB18.png,,,,,,,,,,,0,6,"[""cherry.png""]","[""cherry.png""]","[""cherry.png""]","[""cherry.png""]","[""cherry.png""]","[""cherry.png""]",blank.png,PB18.png,PB17.png,"[""cherry.png""]","[""cherry.png""]","[""cherry.png""]","[""cherry.png""]","[""cherry.png""]","[""cherry.png""]","[""cherry.png""]","[""cherry.png""]","[""cherry.png""]","[""cherry.png""]","[""cherry.png""]","[""cherry.png""]",1,"[""chocolate_truffle.png""]",blank.png,blank.png,blank.png,6,"[""cherry.png""]","[""cherry.png""]","[""cherry.png""]","[""cherry.png""]","[""cherry.png""]","[""cherry.png""]",PB17.png,,,,,,,,,,,1,,,,,,,,,,,,816.63400000002,,timeout,,,,,,,,,,,,,4,,,,,,,,,,,,,,,,,,,,,,,,,,,,,,,,,,,,,,,,,,,,,,,,,,,,,,,,,"[""cherry.png""]","[""chocolate_truffle.png""]",,,,5,,,false,,1,,,,,,,395915.02500000206,395912.369,395112.401,395435.92000000353,395429.055,396245.689,,,,
