sender,sender_type,sender_id,timestamp,meta,,Blank,DownLeft1,DownLeft2,DownLeft3,DownLeft4,DownLeft5,DownLeft6,DownRight1,DownRight2,DownRight3,DownRight4,DownRight5,DownRight6,FoodHabits_Fru_item1,FoodHabits_Fru_item2,FoodHabits_Fru_item3,FoodHabits_Fru_item4,FoodHabits_Fru_item5,FoodHabits_Fru_item6,FoodHabits_Fru_item7,FoodHabits_Meat_item1,FoodHabits_Meat_item2,FoodHabits_Meat_item3,FoodHabits_Meat_item4,FoodHabits_Meat_item5,FoodHabits_Meat_item6,FoodHabits_Meat_item7,FoodHabits_Swe_item1,FoodHabits_Swe_item2,FoodHabits_Swe_item3,FoodHabits_Swe_item4,FoodHabits_Swe_item5,FoodHabits_Swe_item6,FoodHabits_Swe_item7,FoodHabits_Veg_item1,FoodHabits_Veg_item2,FoodHabits_Veg_item3,FoodHabits_Veg_item4,FoodHabits_Veg_item5,FoodHabits_Veg_item6,FoodHabits_Veg_item7,ImgA,ImgB,LeftBar,PSS_item01,PSS_item02,PSS_item03,PSS_item04,PSS_item05,PSS_item06,PSS_item07,PSS_item08,PSS_item09,PSS_item10,RefA,RefB,RefB1,RefB2,RefB3,RefB4,RefB5,RefB6,RefB7,Ref_PB,RightBar,UpLeft1,UpLeft2,UpLeft3,UpLeft4,UpLeft5,UpLeft6,UpRight1,UpRight2,UpRight3,UpRight4,UpRight5,UpRight6,VarA,VarA1,VarA2,VarA3,VarA4,VarB,VarB1,VarB2,VarB3,VarB4,VarB5,VarB6,Var_PB,attCheck_fileA,attCheck_fileB,attCheck_fileC,attCheck_fileD,attCheck_options,attCheck_valueA,attCheck_valueB,attCheck_valueC,attCheck_valueD,attention_check,block,browser_name,choseL,choseR,consent_form1,consent_form2,consentconfirmation_form1,consentconfirmation_form2,correct,correctResponse,diet,disorder,duration,edu,ended_on,enjoy,full_version,gender,group,hunger,img,imgTask,input_age,input_meal,input_occ,input_remark,lateRespFeed,list,major_version,message,mixQ_item1,mixQ_item2,mixQ_item3,mixQ_item4,mixQ_item5,name,navigator_appName,navigator_userAgent,os,pracQ1_IDa,pracQ1_IDb,pracQ1_IDc,pracQ1_IDd,pracQ1_optionA,pracQ1_optionB,pracQ1_optionC,pracQ1_optionD,pracQ1_valueA,pracQ1_valueB,pracQ1_valueC,pracQ1_valueD,pracQ2_IDa,pracQ2_IDb,pracQ2_IDc,pracQ2_optionA,pracQ2_optionB,pracQ2_optionC,pracQ2_valueA,pracQ2_valueB,pracQ2_valueC,pracQ4_IDa,pracQ4_IDb,pracQ4_IDc,pracQ4_IDd,pracQ4_optionA,pracQ4_optionB,pracQ4_optionC,pracQ4_optionD,pracQ4_valueA,pracQ4_valueB,pracQ4_valueC,pracQ4_valueD,pracQ5_IDa,pracQ5_IDb,pracQ5_IDc,pracQ5_IDd,pracQ5_optionA,pracQ5_optionB,pracQ5_optionC,pracQ5_optionD,pracQ5_valueA,pracQ5_valueB,pracQ5_valueC,pracQ5_valueD,prefHealty,prefUnhealthy,prolific_ID,psessionID,pstudyID,rep,response,response_action,skip,snack,sublock,subtitle,task_difficulty,task_engagement,task_focus,textL,textR,time_commit,time_end,time_render,time_run,time_show,time_switch,trial_count,trial_countO,url,valence
Title,html.Page,0,2021-01-14T18:41:36.992Z,"{""labjs_version"":""20.1.1"",""labjs_build"":{""flavor"":""production"",""commit"":""c48ac4ada3769e8d34489594ab03097d5f256ac7""},""location"":""https://run.pavlovia.org/E3lab/rebund/html/?PROLIFIC_PID={{%PROLIFIC_PID%}}&STUDY_ID={{%STUDY_ID%}}&SESSION_ID={{%SESSION_ID%}}"",""userAgent"":""Mozilla/5.0 (Windows NT 10.0; Win64; x64) AppleWebKit/537.36 (KHTML, like Gecko) Chrome/87.0.4280.141 Safari/537.36"",""platform"":""Win32"",""language"":""es-ES"",""locale"":""es-ES"",""timeZone"":""America/Mexico_City"",""timezoneOffset"":360,""screen_width"":1366,""screen_height"":768,""scroll_width"":1366,""scroll_height"":613,""window_innerWidth"":1366,""window_innerHeight"":661,""devicePixelRatio"":1}",,,,,,,,,,,,,,,,,,,,,,,,,,,,,,,,,,,,,,,,,,,,,,,,,,,,,,,,,,,,,,,,,,,,,,,,,,,,,,,,,,,,,,,,,,,,,,,,,,,,,,,,,,,,,,,,,,9054.181999999902,,form submission,,,,,,,,,,,,,,,,,,,,,,,,,,,,,,,,,,,,,,,,,,,,,,,,,,,,,,,,,,,,,,,,,,,,,,,,,,,,,,,,,,,,,,,27832.119999999577,27830.774999999903,18759.922,18757.94999999971,18776.593,27850.839,,,"{""PROLIFIC_PID"":""{{%PROLIFIC_PID%}}"",""STUDY_ID"":""{{%STUDY_ID%}}"",""SESSION_ID"":""{{%SESSION_ID%}}""}",
get_systemInfo,canvas.Screen,1,2021-01-14T18:41:37.039Z,,,,,,,,,,,,,,,,,,,,,,,,,,,,,,,,,,,,,,,,,,,,,,,,,,,,,,,,,,,,,,,,,,,,,,,,,,,,,,,,,,,,,,,,,,,,,,,,,,,,,,,,Chrome,,,,,,,,,,,5328.112000000001,,timeout,,87.0.4280.141,,,,,,,,,,,,87,,,,,,,,Netscape,"Mozilla/5.0 (Windows NT 10.0; Win64; x64) AppleWebKit/537.36 (KHTML, like Gecko) Chrome/87.0.4280.141 Safari/537.36",Windows,,,,,,,,,,,,,,,,,,,,,,,,,,,,,,,,,,,,,,,,,,,,,,,,{{%PROLIFIC_PID%}},,{{%STUDY_ID%}},,,,,,,,,,,,,27879.38499999973,27878.079999999954,27834.242,27833.94999999973,27850.839,33178.951,,,,
ConsentForm,html.Form,2_0,2021-01-14T18:42:34.649Z,,,,,,,,,,,,,,,,,,,,,,,,,,,,,,,,,,,,,,,,,,,,,,,,,,,,,,,,,,,,,,,,,,,,,,,,,,,,,,,,,,,,,,,,,,,,,,,,,,,,,,,,,,,true,true,,,,,,,52309.15399999991,,form submission,,,,,,,,,,,,,,,,,,,,,,,,,,,,,,,,,,,,,,,,,,,,,,,,,,,,,,,,,,,,,,,,,,,,,,,,,,,,,,,,,,,,,,,85489.29999999973,85488.10499999991,27878.079999999954,33199.084999999744,33178.951,85510.318,,,,
PepTalk,html.Page,2_1,2021-01-14T18:43:02.601Z,,,,,,,,,,,,,,,,,,,,,,,,,,,,,,,,,,,,,,,,,,,,,,,,,,,,,,,,,,,,,,,,,,,,,,,,,,,,,,,,,,,,,,,,,,,,,,,,,,,,,,,,,,,,,,,,,,,27929.856999999727,,form submission,,,,,,,,,,,,,,,,,,,,,,,,,,,,,,,,,,,,,,,,,,,,,,,,,,,,,,,,,,,,,,,,,,,,,,,,,,,,,,,,,,,,,,,113441.17499999993,113440.17499999973,85477.321,85492.81999999993,85510.318,113449.458,,,,
Demographics,html.Form,2_2,2021-01-14T18:43:22.578Z,,,,,,,,,,,,,,,,,,,,,,,,,,,,,,,,,,,,,,,,,,,,,,,,,,,,,,,,,,,,,,,,,,,,,,,,,,,,,,,,,,,,,,,,,,,,,,,,,,,,,,,,,,,,,,,,,,,19967.151999999754,4,form submission,,,1,,,,,26,,PhD student,,,,,,,,,,,,,,,,,,,,,,,,,,,,,,,,,,,,,,,,,,,,,,,,,,,,,,,,,,,,,,,,,,,,,,,,,,,,,133417.8999999999,133416.60999999975,113433.212,113441.50499999977,113449.458,133429.439,,,,
InclusionCrit,html.Form,2_3,2021-01-14T18:43:36.706Z,,,,,,,,,,,,,,,,,,,,,,,,,,,,,,,,,,,,,,,,,,,,,,,,,,,,,,,,,,,,,,,,,,,,,,,,,,,,,,,,,,,,,,,,,,,,,,,,,,,,,,,,,,,,,,,,,1,1,14117.150999999896,,form submission,1,,,,,,,,,,,,,,,,,,,,,,,,,,,,,,,,,,,,,,,,,,,,,,,,,,,,,,,,,,,,,,,,,,,,,,,,,,,,,,,,,,,,,,147547.59999999986,147546.5899999999,133412.752,133418.29499999995,133429.439,147548.748,,,,
Selection,html.Page,2_4_0,2021-01-14T18:43:51.503Z,,,,,,,,,,,,,,,,,,,,,,,,,,,,,,,,,,,,,,,,,,,,,,,,,,,,,,,,,,,,,,,,,,,,,,,,,,,,,,,,,,,,,,,,,,,,,,,,,,,,,,,,,,,,,,,,,,,14794.96199999965,,form submission,,,,,,,,,,,,,,,,,,,,,,,,,,,,,,,,,,,,,,,,,,,,,,,,,,,,,,,,,,,,,,,,,,,,,,,,,,,,,,,1,,,,,,,,162344.87999999966,162343.70999999964,147532.097,147548.0399999997,147548.748,162350.71,,,,
Load,html.Page,2_4_1,2021-01-14T18:43:51.514Z,,,,,,,,,,,,,,,,,,,,,,,,,,,,,,,,,,,,,,,,,,,,,,,,,,,,,,,,,,,,,,,,,,,,,,,,,,,,,,,,,,,,,,,,,,,,,,,,,,,,,,,,,,,,,,,,,,,22361.199000000022,,timeout,,,,,,,,,,,,,,,,,,,,,,,,,,,,,,,,,,,,,,,,,,,,,,,,,,,,,,,,,,,,,,,,,,,,,,,,,,,,,,,,,,,,,,,162356.15999999983,162355.46499999965,162334.109,162345.33499999996,162350.71,184711.909,,,,
SequenceSweet,flow.Sequence,2_4_2,2021-01-14T18:44:06.521Z,,,,,,,,,,,,,,,,,,,,,,,,,,,,,,,,,,,,,,,,,,,,,,,,,,,,,,,,,,,,,,,,,,,,,,,,,,,,,,,,,,,,,,,,,,,,,,,,,,,,,,,,,,,,,,,,,,,NaN,,skipped,,,,,,,,,,,,,,,,,,,,,,,,,,,,,,,,,,,,,,,,,,,,,,,,,,,,,,,,,,,,,,,,,,,,,,,,,,,,,,true,,,,,,,,,177363.16999999963,162355.46499999965,,177361.32499999984,,184711.909,0,0,,
ratings_instructions,html.Screen,2_4_3_0,2021-01-14T18:44:34.683Z,,,,,,,,,,,,,,,,,,,,,,,,,,,,,,,,,,,,,,,,,,,,,,,,,,,,,,,,,,,,,,,,,,,,,,,,,,,,,,,,,,,,,,,,,,,,,,,,,,,,,,,,,,,,,,,,,,,20807.46099999998,,response,,,,,,,,,,,,,,,,,,,,,,,,,,,,,,,,,,,,,,,,,,,,,,,,,,,,,,,,,,,,,,,,,,,,,,,,,,,,continue,keypress(Space),false,,,,,,,,,205524.48499999993,205519.37,162355.46499999965,184768.00999999978,184711.909,205524.543,0,0,,
fixCross,canvas.Screen,2_4_3_1_0_0,2021-01-14T18:44:35.167Z,,,,,,,,,,,,,,,,,,,,,,,,,,,,,,,,,,,,,,,,,,,,,,,,,,,,,,,,,,,,,,,,,,,,,,,,,,,,,,,,,,,,,,,,,,,,,,,,,,,,,,,,,,,,,,,,,,,499.5130000000063,,timeout,,,,healthy,,radish.png,,,,,,,,,,,,,,,radish,,,,,,,,,,,,,,,,,,,,,,,,,,,,,,,,,,,,,,,,,,,,,,,,,,,,,,,,,false,,,,,,,,,206009.24499999973,206007.441,205507.925,205526.74499999968,205524.543,206024.056,,,,
Rating,html.Form,2_4_3_1_0_1,2021-01-14T18:44:56.341Z,,,,,,,,,,,,,,,,,,,,,,,,,,,,,,,,,,,,,,,,,,,,,,,,,,,,,,,,,,,,,,,,,,,,,,,,,,,,,,,,,,,,,,,,,,,,,,,,,,,,,,,,,,,,,,,,,,,21157.403999999777,,form submission,,,,healthy,,radish.png,,,,,,,,,,,,,,,radish,,,,,,,,,,,,,,,,,,,,,,,,,,,,,,,,,,,,,,,,,,,,,,,,,,,,,,,,,false,,,,,,,,,227182.4399999996,227181.4599999998,206007.441,206009.55999999997,206024.056,227186.417,,,,62
rating_sequence,flow.Sequence,2_4_3_1_0,2021-01-14T18:44:56.341Z,,,,,,,,,,,,,,,,,,,,,,,,,,,,,,,,,,,,,,,,,,,,,,,,,,,,,,,,,,,,,,,,,,,,,,,,,,,,,,,,,,,,,,,,,,,,,,,,,,,,,,,,,,,,,,,,,,,21656.916999999783,,completion,,,,healthy,,radish.png,,,,,,,,,,,,,,,radish,,,,,,,,,,,,,,,,,,,,,,,,,,,,,,,,,,,,,,,,,,,,,,,,,,,,,,,,,false,,,,,,,,,227183,227181.4599999998,205507.925,205526.61999999965,205524.543,227186.417,,,,
fixCross,canvas.Screen,2_4_3_1_1_0,2021-01-14T18:44:56.829Z,,,,,,,,,,,,,,,,,,,,,,,,,,,,,,,,,,,,,,,,,,,,,,,,,,,,,,,,,,,,,,,,,,,,,,,,,,,,,,,,,,,,,,,,,,,,,,,,,,,,,,,,,,,,,,,,,,,499.4900000000198,,timeout,,,,healthy,,edamame.png,,,,,,,,,,,,,,,edamame,,,,,,,,,,,,,,,,,,,,,,,,,,,,,,,,,,,,,,,,,,,,,,,,,,,,,,,,,false,,,,,,,,,227670.53999999963,227669.272,227169.763,227183.27999999974,227186.417,227685.907,,,,
Rating,html.Form,2_4_3_1_1_1,2021-01-14T18:45:06.119Z,,,,,,,,,,,,,,,,,,,,,,,,,,,,,,,,,,,,,,,,,,,,,,,,,,,,,,,,,,,,,,,,,,,,,,,,,,,,,,,,,,,,,,,,,,,,,,,,,,,,,,,,,,,,,,,,,,,9273.562999999791,,form submission,,,,healthy,,edamame.png,,,,,,,,,,,,,,,edamame,,,,,,,,,,,,,,,,,,,,,,,,,,,,,,,,,,,,,,,,,,,,,,,,,,,,,,,,,false,,,,,,,,,236961.01999999973,236959.4699999998,227669.272,227670.85499999984,227685.907,236960.03,,,,74
rating_sequence,flow.Sequence,2_4_3_1_1,2021-01-14T18:45:06.120Z,,,,,,,,,,,,,,,,,,,,,,,,,,,,,,,,,,,,,,,,,,,,,,,,,,,,,,,,,,,,,,,,,,,,,,,,,,,,,,,,,,,,,,,,,,,,,,,,,,,,,,,,,,,,,,,,,,,9773.05299999981,,completion,,,,healthy,,edamame.png,,,,,,,,,,,,,,,edamame,,,,,,,,,,,,,,,,,,,,,,,,,,,,,,,,,,,,,,,,,,,,,,,,,,,,,,,,,false,,,,,,,,,236961.60499999995,236959.4699999998,227169.763,227183.1949999996,227186.417,236960.03,,,,
fixCross,canvas.Screen,2_4_3_1_2_0,2021-01-14T18:45:06.603Z,,,,,,,,,,,,,,,,,,,,,,,,,,,,,,,,,,,,,,,,,,,,,,,,,,,,,,,,,,,,,,,,,,,,,,,,,,,,,,,,,,,,,,,,,,,,,,,,,,,,,,,,,,,,,,,,,,,499.47299999999814,,timeout,,,,healthy,,tomato.png,,,,,,,,,,,,,,,cherry tomato,,,,,,,,,,,,,,,,,,,,,,,,,,,,,,,,,,,,,,,,,,,,,,,,,,,,,,,,,false,,,,,,,,,237444.50499999995,237443.167,236943.973,236961.8999999998,236960.03,237459.503,,,,
Rating,html.Form,2_4_3_1_2_1,2021-01-14T18:45:12.439Z,,,,,,,,,,,,,,,,,,,,,,,,,,,,,,,,,,,,,,,,,,,,,,,,,,,,,,,,,,,,,,,,,,,,,,,,,,,,,,,,,,,,,,,,,,,,,,,,,,,,,,,,,,,,,,,,,,,5819.89699999991,,form submission,,,,healthy,,tomato.png,,,,,,,,,,,,,,,cherry tomato,,,,,,,,,,,,,,,,,,,,,,,,,,,,,,,,,,,,,,,,,,,,,,,,,,,,,,,,,false,,,,,,,,,243280.46999999968,243279.3999999999,237443.167,237444.75999999986,237459.503,243287.066,,,,87
rating_sequence,flow.Sequence,2_4_3_1_2,2021-01-14T18:45:12.439Z,,,,,,,,,,,,,,,,,,,,,,,,,,,,,,,,,,,,,,,,,,,,,,,,,,,,,,,,,,,,,,,,,,,,,,,,,,,,,,,,,,,,,,,,,,,,,,,,,,,,,,,,,,,,,,,,,,,6319.369999999908,,completion,,,,healthy,,tomato.png,,,,,,,,,,,,,,,cherry tomato,,,,,,,,,,,,,,,,,,,,,,,,,,,,,,,,,,,,,,,,,,,,,,,,,,,,,,,,,false,,,,,,,,,243280.98,243279.3999999999,236943.973,236961.81999999998,236960.03,243287.066,,,,
fixCross,canvas.Screen,2_4_3_1_3_0,2021-01-14T18:45:12.929Z,,,,,,,,,,,,,,,,,,,,,,,,,,,,,,,,,,,,,,,,,,,,,,,,,,,,,,,,,,,,,,,,,,,,,,,,,,,,,,,,,,,,,,,,,,,,,,,,,,,,,,,,,,,,,,,,,,,499.4910000000091,,timeout,,,,unhealthy,,ham.png,,,,,,,,,,,,,,,ham,,,,,,,,,,,,,,,,,,,,,,,,,,,,,,,,,,,,,,,,,,,,,,,,,,,,,,,,,false,,,,,,,,,243771.21499999976,243769.965,243270.421,243281.28500000003,243287.066,243786.557,,,,
Rating,html.Form,2_4_3_1_3_1,2021-01-14T18:45:18.553Z,,,,,,,,,,,,,,,,,,,,,,,,,,,,,,,,,,,,,,,,,,,,,,,,,,,,,,,,,,,,,,,,,,,,,,,,,,,,,,,,,,,,,,,,,,,,,,,,,,,,,,,,,,,,,,,,,,,5606.742999999726,,form submission,,,,unhealthy,,ham.png,,,,,,,,,,,,,,,ham,,,,,,,,,,,,,,,,,,,,,,,,,,,,,,,,,,,,,,,,,,,,,,,,,,,,,,,,,false,,,,,,,,,249394.39999999967,249393.29999999973,243769.965,243771.53999999975,243786.557,249397.685,,,,39
rating_sequence,flow.Sequence,2_4_3_1_3,2021-01-14T18:45:18.553Z,,,,,,,,,,,,,,,,,,,,,,,,,,,,,,,,,,,,,,,,,,,,,,,,,,,,,,,,,,,,,,,,,,,,,,,,,,,,,,,,,,,,,,,,,,,,,,,,,,,,,,,,,,,,,,,,,,,6106.233999999735,,completion,,,,unhealthy,,ham.png,,,,,,,,,,,,,,,ham,,,,,,,,,,,,,,,,,,,,,,,,,,,,,,,,,,,,,,,,,,,,,,,,,,,,,,,,,false,,,,,,,,,249394.8499999997,249393.29999999973,243270.421,243281.20499999978,243287.066,249397.685,,,,
fixCross,canvas.Screen,2_4_3_1_4_0,2021-01-14T18:45:19.041Z,,,,,,,,,,,,,,,,,,,,,,,,,,,,,,,,,,,,,,,,,,,,,,,,,,,,,,,,,,,,,,,,,,,,,,,,,,,,,,,,,,,,,,,,,,,,,,,,,,,,,,,,,,,,,,,,,,,499.50400000001537,,timeout,,,,unhealthy,,frie.png,,,,,,,,,,,,,,,frie,,,,,,,,,,,,,,,,,,,,,,,,,,,,,,,,,,,,,,,,,,,,,,,,,,,,,,,,,false,,,,,,,,,249882.525,249881.1,249381.638,249395.14499999996,249397.685,249897.189,,,,
Rating,html.Form,2_4_3_1_4_1,2021-01-14T18:45:24.549Z,,,,,,,,,,,,,,,,,,,,,,,,,,,,,,,,,,,,,,,,,,,,,,,,,,,,,,,,,,,,,,,,,,,,,,,,,,,,,,,,,,,,,,,,,,,,,,,,,,,,,,,,,,,,,,,,,,,5492.751000000018,,form submission,,,,unhealthy,,frie.png,,,,,,,,,,,,,,,frie,,,,,,,,,,,,,,,,,,,,,,,,,,,,,,,,,,,,,,,,,,,,,,,,,,,,,,,,,false,,,,,,,,,255390.9699999999,255389.94000000003,249881.1,249882.8599999997,249897.189,255391.73,,,,74
rating_sequence,flow.Sequence,2_4_3_1_4,2021-01-14T18:45:24.550Z,,,,,,,,,,,,,,,,,,,,,,,,,,,,,,,,,,,,,,,,,,,,,,,,,,,,,,,,,,,,,,,,,,,,,,,,,,,,,,,,,,,,,,,,,,,,,,,,,,,,,,,,,,,,,,,,,,,5992.255000000034,,completion,,,,unhealthy,,frie.png,,,,,,,,,,,,,,,frie,,,,,,,,,,,,,,,,,,,,,,,,,,,,,,,,,,,,,,,,,,,,,,,,,,,,,,,,,false,,,,,,,,,255391.38999999978,255389.94000000003,249381.638,249395.05499999996,249397.685,255391.73,,,,
fixCross,canvas.Screen,2_4_3_1_5_0,2021-01-14T18:45:25.034Z,,,,,,,,,,,,,,,,,,,,,,,,,,,,,,,,,,,,,,,,,,,,,,,,,,,,,,,,,,,,,,,,,,,,,,,,,,,,,,,,,,,,,,,,,,,,,,,,,,,,,,,,,,,,,,,,,,,499.487999999983,,timeout,,,,unhealthy,,bretzel.png,,,,,,,,,,,,,,,bretzel,,,,,,,,,,,,,,,,,,,,,,,,,,,,,,,,,,,,,,,,,,,,,,,,,,,,,,,,,false,,,,,,,,,255875.91999999995,255874.613,255375.559,255391.67999999973,255391.73,255891.218,,,,
Rating,html.Form,2_4_3_1_5_1,2021-01-14T18:45:30.445Z,,,,,,,,,,,,,,,,,,,,,,,,,,,,,,,,,,,,,,,,,,,,,,,,,,,,,,,,,,,,,,,,,,,,,,,,,,,,,,,,,,,,,,,,,,,,,,,,,,,,,,,,,,,,,,,,,,,5392.061999999656,,form submission,,,,unhealthy,,bretzel.png,,,,,,,,,,,,,,,bretzel,,,,,,,,,,,,,,,,,,,,,,,,,,,,,,,,,,,,,,,,,,,,,,,,,,,,,,,,,false,,,,,,,,,261284.21499999968,261283.27999999965,255874.613,255876.1499999996,255891.218,261285.878,,,,74
rating_sequence,flow.Sequence,2_4_3_1_5,2021-01-14T18:45:30.446Z,,,,,,,,,,,,,,,,,,,,,,,,,,,,,,,,,,,,,,,,,,,,,,,,,,,,,,,,,,,,,,,,,,,,,,,,,,,,,,,,,,,,,,,,,,,,,,,,,,,,,,,,,,,,,,,,,,,5891.549999999639,,completion,,,,unhealthy,,bretzel.png,,,,,,,,,,,,,,,bretzel,,,,,,,,,,,,,,,,,,,,,,,,,,,,,,,,,,,,,,,,,,,,,,,,,,,,,,,,,false,,,,,,,,,261284.64999999962,261283.27999999965,255375.559,255391.5949999996,255391.73,261285.878,,,,
fixCross,canvas.Screen,2_4_3_1_6_0,2021-01-14T18:45:30.932Z,,,,,,,,,,,,,,,,,,,,,,,,,,,,,,,,,,,,,,,,,,,,,,,,,,,,,,,,,,,,,,,,,,,,,,,,,,,,,,,,,,,,,,,,,,,,,,,,,,,,,,,,,,,,,,,,,,,499.4990000000107,,timeout,,,,healthy,,cashew.png,,,,,,,,,,,,,,,cashew,,,,,,,,,,,,,,,,,,,,,,,,,,,,,,,,,,,,,,,,,,,,,,,,,,,,,,,,,false,,,,,,,,,261770.6199999998,261768.734,261269.462,261284.96499999982,261285.878,261785.377,,,,
Rating,html.Form,2_4_3_1_6_1,2021-01-14T18:45:36.593Z,,,,,,,,,,,,,,,,,,,,,,,,,,,,,,,,,,,,,,,,,,,,,,,,,,,,,,,,,,,,,,,,,,,,,,,,,,,,,,,,,,,,,,,,,,,,,,,,,,,,,,,,,,,,,,,,,,,5645.36299999975,,form submission,,,,healthy,,cashew.png,,,,,,,,,,,,,,,cashew,,,,,,,,,,,,,,,,,,,,,,,,,,,,,,,,,,,,,,,,,,,,,,,,,,,,,,,,,false,,,,,,,,,267432.1699999996,267430.73999999976,261768.734,261770.90999999974,261785.377,267429.781,,,,77
rating_sequence,flow.Sequence,2_4_3_1_6,2021-01-14T18:45:36.596Z,,,,,,,,,,,,,,,,,,,,,,,,,,,,,,,,,,,,,,,,,,,,,,,,,,,,,,,,,,,,,,,,,,,,,,,,,,,,,,,,,,,,,,,,,,,,,,,,,,,,,,,,,,,,,,,,,,,6144.861999999761,,completion,,,,healthy,,cashew.png,,,,,,,,,,,,,,,cashew,,,,,,,,,,,,,,,,,,,,,,,,,,,,,,,,,,,,,,,,,,,,,,,,,,,,,,,,,false,,,,,,,,,267434.84499999974,267430.73999999976,261269.462,261284.87499999983,261285.878,267429.781,,,,
fixCross,canvas.Screen,2_4_3_1_7_0,2021-01-14T18:45:37.078Z,,,,,,,,,,,,,,,,,,,,,,,,,,,,,,,,,,,,,,,,,,,,,,,,,,,,,,,,,,,,,,,,,,,,,,,,,,,,,,,,,,,,,,,,,,,,,,,,,,,,,,,,,,,,,,,,,,,499.570000000007,,timeout,,,,healthy,,cucumber.png,,,,,,,,,,,,,,,cucumber,,,,,,,,,,,,,,,,,,,,,,,,,,,,,,,,,,,,,,,,,,,,,,,,,,,,,,,,,false,,,,,,,,,267916.70999999996,267912.618,267413.15,267435.3599999999,267429.781,267929.351,,,,
Rating,html.Form,2_4_3_1_7_1,2021-01-14T18:45:47.132Z,,,,,,,,,,,,,,,,,,,,,,,,,,,,,,,,,,,,,,,,,,,,,,,,,,,,,,,,,,,,,,,,,,,,,,,,,,,,,,,,,,,,,,,,,,,,,,,,,,,,,,,,,,,,,,,,,,,10039.738999999594,,form submission,,,,healthy,,cucumber.png,,,,,,,,,,,,,,,cucumber,,,,,,,,,,,,,,,,,,,,,,,,,,,,,,,,,,,,,,,,,,,,,,,,,,,,,,,,,false,,,,,,,,,277970.8349999996,277969.0899999996,267912.618,267916.98499999987,267929.351,277969.363,,,,96
rating_sequence,flow.Sequence,2_4_3_1_7,2021-01-14T18:45:47.133Z,,,,,,,,,,,,,,,,,,,,,,,,,,,,,,,,,,,,,,,,,,,,,,,,,,,,,,,,,,,,,,,,,,,,,,,,,,,,,,,,,,,,,,,,,,,,,,,,,,,,,,,,,,,,,,,,,,,10539.308999999601,,completion,,,,healthy,,cucumber.png,,,,,,,,,,,,,,,cucumber,,,,,,,,,,,,,,,,,,,,,,,,,,,,,,,,,,,,,,,,,,,,,,,,,,,,,,,,,false,,,,,,,,,277971.49999999965,277969.0899999996,267413.15,267435.21999999986,267429.781,277969.363,,,,
fixCross,canvas.Screen,2_4_3_1_8_0,2021-01-14T18:45:47.615Z,,,,,,,,,,,,,,,,,,,,,,,,,,,,,,,,,,,,,,,,,,,,,,,,,,,,,,,,,,,,,,,,,,,,,,,,,,,,,,,,,,,,,,,,,,,,,,,,,,,,,,,,,,,,,,,,,,,499.42599999997765,,timeout,,,,healthy,,pickle.png,,,,,,,,,,,,,,,pickle,,,,,,,,,,,,,,,,,,,,,,,,,,,,,,,,,,,,,,,,,,,,,,,,,,,,,,,,,false,,,,,,,,,278453.575,278452.411,277952.706,277971.9,277969.363,278468.789,,,,
Rating,html.Form,2_4_3_1_8_1,2021-01-14T18:45:52.193Z,,,,,,,,,,,,,,,,,,,,,,,,,,,,,,,,,,,,,,,,,,,,,,,,,,,,,,,,,,,,,,,,,,,,,,,,,,,,,,,,,,,,,,,,,,,,,,,,,,,,,,,,,,,,,,,,,,,4561.940999999933,,form submission,,,,healthy,,pickle.png,,,,,,,,,,,,,,,pickle,,,,,,,,,,,,,,,,,,,,,,,,,,,,,,,,,,,,,,,,,,,,,,,,,,,,,,,,,false,,,,,,,,,283032.33999999973,283030.7299999999,278452.411,278453.85499999975,278468.789,283030.95,,,,31
rating_sequence,flow.Sequence,2_4_3_1_8,2021-01-14T18:45:52.194Z,,,,,,,,,,,,,,,,,,,,,,,,,,,,,,,,,,,,,,,,,,,,,,,,,,,,,,,,,,,,,,,,,,,,,,,,,,,,,,,,,,,,,,,,,,,,,,,,,,,,,,,,,,,,,,,,,,,5061.366999999911,,completion,,,,healthy,,pickle.png,,,,,,,,,,,,,,,pickle,,,,,,,,,,,,,,,,,,,,,,,,,,,,,,,,,,,,,,,,,,,,,,,,,,,,,,,,,false,,,,,,,,,283032.72500000003,283030.7299999999,277952.706,277971.78499999974,277969.363,283030.95,,,,
fixCross,canvas.Screen,2_4_3_1_9_0,2021-01-14T18:45:52.676Z,,,,,,,,,,,,,,,,,,,,,,,,,,,,,,,,,,,,,,,,,,,,,,,,,,,,,,,,,,,,,,,,,,,,,,,,,,,,,,,,,,,,,,,,,,,,,,,,,,,,,,,,,,,,,,,,,,,499.4649999999674,,timeout,,,,unhealthy,,sausage.png,,,,,,,,,,,,,,,salami,,,,,,,,,,,,,,,,,,,,,,,,,,,,,,,,,,,,,,,,,,,,,,,,,,,,,,,,,false,,,,,,,,,283514.98999999964,283513.826,283014.353,283032.96999999974,283030.95,283530.415,,,,
Rating,html.Form,2_4_3_1_9_1,2021-01-14T18:45:58.413Z,,,,,,,,,,,,,,,,,,,,,,,,,,,,,,,,,,,,,,,,,,,,,,,,,,,,,,,,,,,,,,,,,,,,,,,,,,,,,,,,,,,,,,,,,,,,,,,,,,,,,,,,,,,,,,,,,,,5720.819999999774,,form submission,,,,unhealthy,,sausage.png,,,,,,,,,,,,,,,salami,,,,,,,,,,,,,,,,,,,,,,,,,,,,,,,,,,,,,,,,,,,,,,,,,,,,,,,,,false,,,,,,,,,289252.38999999966,289251.23499999975,283513.826,283515.2899999998,283530.415,289258.097,,,,44
rating_sequence,flow.Sequence,2_4_3_1_9,2021-01-14T18:45:58.414Z,,,,,,,,,,,,,,,,,,,,,,,,,,,,,,,,,,,,,,,,,,,,,,,,,,,,,,,,,,,,,,,,,,,,,,,,,,,,,,,,,,,,,,,,,,,,,,,,,,,,,,,,,,,,,,,,,,,6220.284999999742,,completion,,,,unhealthy,,sausage.png,,,,,,,,,,,,,,,salami,,,,,,,,,,,,,,,,,,,,,,,,,,,,,,,,,,,,,,,,,,,,,,,,,,,,,,,,,false,,,,,,,,,289252.8599999996,289251.23499999975,283014.353,283032.89499999984,283030.95,289258.097,,,,
fixCross,canvas.Screen,2_4_3_1_10_0,2021-01-14T18:45:58.903Z,,,,,,,,,,,,,,,,,,,,,,,,,,,,,,,,,,,,,,,,,,,,,,,,,,,,,,,,,,,,,,,,,,,,,,,,,,,,,,,,,,,,,,,,,,,,,,,,,,,,,,,,,,,,,,,,,,,499.5229999999865,,timeout,,,,unhealthy,,peanut_cracker.png,,,,,,,,,,,,,,,peanut chip,,,,,,,,,,,,,,,,,,,,,,,,,,,,,,,,,,,,,,,,,,,,,,,,,,,,,,,,,false,,,,,,,,,289742.33,289741.003,289241.472,289253.15999999974,289258.097,289757.62,,,,
Rating,html.Form,2_4_3_1_10_1,2021-01-14T18:46:07.543Z,,,,,,,,,,,,,,,,,,,,,,,,,,,,,,,,,,,,,,,,,,,,,,,,,,,,,,,,,,,,,,,,,,,,,,,,,,,,,,,,,,,,,,,,,,,,,,,,,,,,,,,,,,,,,,,,,,,8623.024999999732,,form submission,,,,unhealthy,,peanut_cracker.png,,,,,,,,,,,,,,,peanut chip,,,,,,,,,,,,,,,,,,,,,,,,,,,,,,,,,,,,,,,,,,,,,,,,,,,,,,,,,false,,,,,,,,,298381.9199999998,298380.6449999997,289741.003,289742.98,289757.62,298382.418,,,,7
rating_sequence,flow.Sequence,2_4_3_1_10,2021-01-14T18:46:07.544Z,,,,,,,,,,,,,,,,,,,,,,,,,,,,,,,,,,,,,,,,,,,,,,,,,,,,,,,,,,,,,,,,,,,,,,,,,,,,,,,,,,,,,,,,,,,,,,,,,,,,,,,,,,,,,,,,,,,9122.547999999719,,completion,,,,unhealthy,,peanut_cracker.png,,,,,,,,,,,,,,,peanut chip,,,,,,,,,,,,,,,,,,,,,,,,,,,,,,,,,,,,,,,,,,,,,,,,,,,,,,,,,false,,,,,,,,,298383.39999999973,298380.6449999997,289241.472,289253.0699999998,289258.097,298382.418,,,,
fixCross,canvas.Screen,2_4_3_1_11_0,2021-01-14T18:46:08.028Z,,,,,,,,,,,,,,,,,,,,,,,,,,,,,,,,,,,,,,,,,,,,,,,,,,,,,,,,,,,,,,,,,,,,,,,,,,,,,,,,,,,,,,,,,,,,,,,,,,,,,,,,,,,,,,,,,,,499.4349999999977,,timeout,,,,healthy,,celery.png,,,,,,,,,,,,,,,celery,,,,,,,,,,,,,,,,,,,,,,,,,,,,,,,,,,,,,,,,,,,,,,,,,,,,,,,,,false,,,,,,,,,298866.5149999997,298865.294,298365.788,298383.92999999993,298382.418,298881.853,,,,
Rating,html.Form,2_4_3_1_11_1,2021-01-14T18:46:12.068Z,,,,,,,,,,,,,,,,,,,,,,,,,,,,,,,,,,,,,,,,,,,,,,,,,,,,,,,,,,,,,,,,,,,,,,,,,,,,,,,,,,,,,,,,,,,,,,,,,,,,,,,,,,,,,,,,,,,4024.381999999925,,form submission,,,,healthy,,celery.png,,,,,,,,,,,,,,,celery,,,,,,,,,,,,,,,,,,,,,,,,,,,,,,,,,,,,,,,,,,,,,,,,,,,,,,,,,false,,,,,,,,,302907.2849999998,302906.2349999999,298865.294,298866.8399999997,298881.853,302911.364,,,,100
rating_sequence,flow.Sequence,2_4_3_1_11,2021-01-14T18:46:12.069Z,,,,,,,,,,,,,,,,,,,,,,,,,,,,,,,,,,,,,,,,,,,,,,,,,,,,,,,,,,,,,,,,,,,,,,,,,,,,,,,,,,,,,,,,,,,,,,,,,,,,,,,,,,,,,,,,,,,4523.816999999923,,completion,,,,healthy,,celery.png,,,,,,,,,,,,,,,celery,,,,,,,,,,,,,,,,,,,,,,,,,,,,,,,,,,,,,,,,,,,,,,,,,,,,,,,,,false,,,,,,,,,302907.7549999997,302906.2349999999,298365.788,298383.78999999986,298382.418,302911.364,,,,
fixCross,canvas.Screen,2_4_3_1_12_0,2021-01-14T18:46:12.557Z,,,,,,,,,,,,,,,,,,,,,,,,,,,,,,,,,,,,,,,,,,,,,,,,,,,,,,,,,,,,,,,,,,,,,,,,,,,,,,,,,,,,,,,,,,,,,,,,,,,,,,,,,,,,,,,,,,,499.33399999997346,,timeout,,,,unhealthy,,nacho.png,,,,,,,,,,,,,,,nacho,,,,,,,,,,,,,,,,,,,,,,,,,,,,,,,,,,,,,,,,,,,,,,,,,,,,,,,,,false,,,,,,,,,303395.9749999999,303394.724,302894.625,302908.0399999998,302911.364,303410.698,,,,
Rating,html.Form,2_4_3_1_12_1,2021-01-14T18:46:18.177Z,,,,,,,,,,,,,,,,,,,,,,,,,,,,,,,,,,,,,,,,,,,,,,,,,,,,,,,,,,,,,,,,,,,,,,,,,,,,,,,,,,,,,,,,,,,,,,,,,,,,,,,,,,,,,,,,,,,5603.946999999753,,form submission,,,,unhealthy,,nacho.png,,,,,,,,,,,,,,,nacho,,,,,,,,,,,,,,,,,,,,,,,,,,,,,,,,,,,,,,,,,,,,,,,,,,,,,,,,,false,,,,,,,,,309015.64999999985,309014.6449999997,303394.724,303396.2899999997,303410.698,309021.845,,,,86
rating_sequence,flow.Sequence,2_4_3_1_12,2021-01-14T18:46:18.177Z,,,,,,,,,,,,,,,,,,,,,,,,,,,,,,,,,,,,,,,,,,,,,,,,,,,,,,,,,,,,,,,,,,,,,,,,,,,,,,,,,,,,,,,,,,,,,,,,,,,,,,,,,,,,,,,,,,,6103.280999999726,,completion,,,,unhealthy,,nacho.png,,,,,,,,,,,,,,,nacho,,,,,,,,,,,,,,,,,,,,,,,,,,,,,,,,,,,,,,,,,,,,,,,,,,,,,,,,,false,,,,,,,,,309016.2049999999,309014.6449999997,302894.625,302907.96,302911.364,309021.845,,,,
fixCross,canvas.Screen,2_4_3_1_13_0,2021-01-14T18:46:18.667Z,,,,,,,,,,,,,,,,,,,,,,,,,,,,,,,,,,,,,,,,,,,,,,,,,,,,,,,,,,,,,,,,,,,,,,,,,,,,,,,,,,,,,,,,,,,,,,,,,,,,,,,,,,,,,,,,,,,499.4750000000349,,timeout,,,,healthy,,walnut.png,,,,,,,,,,,,,,,walnut,,,,,,,,,,,,,,,,,,,,,,,,,,,,,,,,,,,,,,,,,,,,,,,,,,,,,,,,,false,,,,,,,,,309506.1049999999,309504.731,309005.163,309016.5499999998,309021.845,309521.32,,,,
Rating,html.Form,2_4_3_1_13_1,2021-01-14T18:46:23.847Z,,,,,,,,,,,,,,,,,,,,,,,,,,,,,,,,,,,,,,,,,,,,,,,,,,,,,,,,,,,,,,,,,,,,,,,,,,,,,,,,,,,,,,,,,,,,,,,,,,,,,,,,,,,,,,,,,,,5163.419999999693,,form submission,,,,healthy,,walnut.png,,,,,,,,,,,,,,,walnut,,,,,,,,,,,,,,,,,,,,,,,,,,,,,,,,,,,,,,,,,,,,,,,,,,,,,,,,,false,,,,,,,,,314685.7,314684.7399999997,309504.731,309506.3399999999,309521.32,314699.478,,,,78
rating_sequence,flow.Sequence,2_4_3_1_13,2021-01-14T18:46:23.847Z,,,,,,,,,,,,,,,,,,,,,,,,,,,,,,,,,,,,,,,,,,,,,,,,,,,,,,,,,,,,,,,,,,,,,,,,,,,,,,,,,,,,,,,,,,,,,,,,,,,,,,,,,,,,,,,,,,,5662.894999999728,,completion,,,,healthy,,walnut.png,,,,,,,,,,,,,,,walnut,,,,,,,,,,,,,,,,,,,,,,,,,,,,,,,,,,,,,,,,,,,,,,,,,,,,,,,,,false,,,,,,,,,314686.10999999964,314684.7399999997,309005.163,309016.45999999985,309021.845,314699.478,,,,
fixCross,canvas.Screen,2_4_3_1_14_0,2021-01-14T18:46:24.345Z,,,,,,,,,,,,,,,,,,,,,,,,,,,,,,,,,,,,,,,,,,,,,,,,,,,,,,,,,,,,,,,,,,,,,,,,,,,,,,,,,,,,,,,,,,,,,,,,,,,,,,,,,,,,,,,,,,,499.5470000000205,,timeout,,,,healthy,,carrot.png,,,,,,,,,,,,,,,carrot,,,,,,,,,,,,,,,,,,,,,,,,,,,,,,,,,,,,,,,,,,,,,,,,,,,,,,,,,false,,,,,,,,,315183.7499999997,315182.431,314682.876,314686.37999999966,314699.478,315199.025,,,,
Rating,html.Form,2_4_3_1_14_1,2021-01-14T18:46:32.907Z,,,,,,,,,,,,,,,,,,,,,,,,,,,,,,,,,,,,,,,,,,,,,,,,,,,,,,,,,,,,,,,,,,,,,,,,,,,,,,,,,,,,,,,,,,,,,,,,,,,,,,,,,,,,,,,,,,,8548.51999999967,,form submission,,,,healthy,,carrot.png,,,,,,,,,,,,,,,carrot,,,,,,,,,,,,,,,,,,,,,,,,,,,,,,,,,,,,,,,,,,,,,,,,,,,,,,,,,false,,,,,,,,,323748.8599999997,323747.5449999997,315182.431,315184.0699999998,315199.025,323757.185,,,,65
rating_sequence,flow.Sequence,2_4_3_1_14,2021-01-14T18:46:32.907Z,,,,,,,,,,,,,,,,,,,,,,,,,,,,,,,,,,,,,,,,,,,,,,,,,,,,,,,,,,,,,,,,,,,,,,,,,,,,,,,,,,,,,,,,,,,,,,,,,,,,,,,,,,,,,,,,,,,9048.06699999969,,completion,,,,healthy,,carrot.png,,,,,,,,,,,,,,,carrot,,,,,,,,,,,,,,,,,,,,,,,,,,,,,,,,,,,,,,,,,,,,,,,,,,,,,,,,,false,,,,,,,,,323749.41499999975,323747.5449999997,314682.876,314686.2999999999,314699.478,323757.185,,,,
fixCross,canvas.Screen,2_4_3_1_15_0,2021-01-14T18:46:33.399Z,,,,,,,,,,,,,,,,,,,,,,,,,,,,,,,,,,,,,,,,,,,,,,,,,,,,,,,,,,,,,,,,,,,,,,,,,,,,,,,,,,,,,,,,,,,,,,,,,,,,,,,,,,,,,,,,,,,516.1479999999865,,timeout,,,,unhealthy,,chips.png,,,,,,,,,,,,,,,potato chip,,,,,,,,,,,,,,,,,,,,,,,,,,,,,,,,,,,,,,,,,,,,,,,,,,,,,,,,,false,,,,,,,,,324241.45499999984,324240.08,323740.595,323749.8099999998,323757.185,324273.333,,,,
Rating,html.Form,2_4_3_1_15_1,2021-01-14T18:46:39.512Z,,,,,,,,,,,,,,,,,,,,,,,,,,,,,,,,,,,,,,,,,,,,,,,,,,,,,,,,,,,,,,,,,,,,,,,,,,,,,,,,,,,,,,,,,,,,,,,,,,,,,,,,,,,,,,,,,,,6079.3319999998785,,form submission,,,,unhealthy,,chips.png,,,,,,,,,,,,,,,potato chip,,,,,,,,,,,,,,,,,,,,,,,,,,,,,,,,,,,,,,,,,,,,,,,,,,,,,,,,,false,,,,,,,,,330353.6049999998,330352.66499999986,324240.08,324241.7099999998,324273.333,330350.673,,,,63
rating_sequence,flow.Sequence,2_4_3_1_15,2021-01-14T18:46:39.512Z,,,,,,,,,,,,,,,,,,,,,,,,,,,,,,,,,,,,,,,,,,,,,,,,,,,,,,,,,,,,,,,,,,,,,,,,,,,,,,,,,,,,,,,,,,,,,,,,,,,,,,,,,,,,,,,,,,,6595.479999999865,,completion,,,,unhealthy,,chips.png,,,,,,,,,,,,,,,potato chip,,,,,,,,,,,,,,,,,,,,,,,,,,,,,,,,,,,,,,,,,,,,,,,,,,,,,,,,,false,,,,,,,,,330354.01,330352.66499999986,323740.595,323749.6699999997,323757.185,330350.673,,,,
fixCross,canvas.Screen,2_4_3_1_16_0,2021-01-14T18:46:39.993Z,,,,,,,,,,,,,,,,,,,,,,,,,,,,,,,,,,,,,,,,,,,,,,,,,,,,,,,,,,,,,,,,,,,,,,,,,,,,,,,,,,,,,,,,,,,,,,,,,,,,,,,,,,,,,,,,,,,499.51600000000326,,timeout,,,,unhealthy,,ritz.png,,,,,,,,,,,,,,,cracker,,,,,,,,,,,,,,,,,,,,,,,,,,,,,,,,,,,,,,,,,,,,,,,,,,,,,,,,,false,,,,,,,,,330834.97499999974,330833.561,330334.058,330354.2749999997,330350.673,330850.189,,,,
Rating,html.Form,2_4_3_1_16_1,2021-01-14T18:46:45.212Z,,,,,,,,,,,,,,,,,,,,,,,,,,,,,,,,,,,,,,,,,,,,,,,,,,,,,,,,,,,,,,,,,,,,,,,,,,,,,,,,,,,,,,,,,,,,,,,,,,,,,,,,,,,,,,,,,,,5203.355999999738,,form submission,,,,unhealthy,,ritz.png,,,,,,,,,,,,,,,cracker,,,,,,,,,,,,,,,,,,,,,,,,,,,,,,,,,,,,,,,,,,,,,,,,,,,,,,,,,false,,,,,,,,,336054.53999999963,336053.54499999975,330833.561,330838.01999999967,330850.189,336061.666,,,,69
rating_sequence,flow.Sequence,2_4_3_1_16,2021-01-14T18:46:45.213Z,,,,,,,,,,,,,,,,,,,,,,,,,,,,,,,,,,,,,,,,,,,,,,,,,,,,,,,,,,,,,,,,,,,,,,,,,,,,,,,,,,,,,,,,,,,,,,,,,,,,,,,,,,,,,,,,,,,5702.871999999741,,completion,,,,unhealthy,,ritz.png,,,,,,,,,,,,,,,cracker,,,,,,,,,,,,,,,,,,,,,,,,,,,,,,,,,,,,,,,,,,,,,,,,,,,,,,,,,false,,,,,,,,,336055.02999999997,336053.54499999975,330334.058,330354.2049999996,330350.673,336061.666,,,,
fixCross,canvas.Screen,2_4_3_1_17_0,2021-01-14T18:46:45.704Z,,,,,,,,,,,,,,,,,,,,,,,,,,,,,,,,,,,,,,,,,,,,,,,,,,,,,,,,,,,,,,,,,,,,,,,,,,,,,,,,,,,,,,,,,,,,,,,,,,,,,,,,,,,,,,,,,,,499.49199999996927,,timeout,,,,unhealthy,,dried_meat.png,,,,,,,,,,,,,,,dried meat,,,,,,,,,,,,,,,,,,,,,,,,,,,,,,,,,,,,,,,,,,,,,,,,,,,,,,,,,false,,,,,,,,,336545.93999999994,336544.563,336045.045,336055.29499999963,336061.666,336561.158,,,,
Rating,html.Form,2_4_3_1_17_1,2021-01-14T18:46:50.968Z,,,,,,,,,,,,,,,,,,,,,,,,,,,,,,,,,,,,,,,,,,,,,,,,,,,,,,,,,,,,,,,,,,,,,,,,,,,,,,,,,,,,,,,,,,,,,,,,,,,,,,,,,,,,,,,,,,,5248.131999999692,,form submission,,,,unhealthy,,dried_meat.png,,,,,,,,,,,,,,,dried meat,,,,,,,,,,,,,,,,,,,,,,,,,,,,,,,,,,,,,,,,,,,,,,,,,,,,,,,,,false,,,,,,,,,341810.125,341809.2899999997,336544.563,336546.3049999998,336561.158,341905.85,,,,29
rating_sequence,flow.Sequence,2_4_3_1_17,2021-01-14T18:46:50.968Z,,,,,,,,,,,,,,,,,,,,,,,,,,,,,,,,,,,,,,,,,,,,,,,,,,,,,,,,,,,,,,,,,,,,,,,,,,,,,,,,,,,,,,,,,,,,,,,,,,,,,,,,,,,,,,,,,,,5747.6239999996615,,completion,,,,unhealthy,,dried_meat.png,,,,,,,,,,,,,,,dried meat,,,,,,,,,,,,,,,,,,,,,,,,,,,,,,,,,,,,,,,,,,,,,,,,,,,,,,,,,false,,,,,,,,,341810.4599999997,341809.2899999997,336045.045,336055.21999999974,336061.666,341905.85,,,,
rating_loop,flow.Loop,2_4_3_1,2021-01-14T18:46:50.969Z,,,,,,,,,,,,,,,,,,,,,,,,,,,,,,,,,,,,,,,,,,,,,,,,,,,,,,,,,,,,,,,,,,,,,,,,,,,,,,,,,,,,,,,,,,,,,,,,,,,,,,,,,,,,,,,,,,,136284.74699999968,,completion,,,,,,,,,,,,,,,,,,,,,,,,,,,,,,,,,,,,,,,,,,,,,,,,,,,,,,,,,,,,,,,,,,,,,,,,,,,,,,false,,,,,,,,,341810.80499999964,341809.2899999997,205507.925,205526.4649999999,205524.543,341905.85,,,,
data_transmission,html.Screen,2_4_3_2,2021-01-14T18:46:50.984Z,,,,,,,,,,,,,,,,,,,,,,,,,,,,,,,,,,,,,,,,,,,,,,,,,,,,,,,,,,,,,,,,,,,,,,,,,,,,,,,,,,,,,,,,,,,,,,,,,,,,,,,,,,,,,,,,,,,NaN,,no compatible backend,,,,,,,,,,,,,,,Transferring data,,,,,,,,,,,,,,,,,,,,,,,,,,,,,,,,,,,,,,,,,,,,,,,,,,,,,,,,,,,,,,,false,,,Please wait a second…,,,,,,341825.75,341824.9649999998,,341811.0149999998,,341905.85,,,,
instructions,html.Screen,2_4_3_3,2021-01-14T18:48:35.815Z,,,,,,,,,,,,,,,,,,,,,,,,,,,,,,,,,,,,,,,,,,,,,,,,,,,,,,,,,,,,,,,,,,,,,,,,,,,,,,,,,,,,,,,,,,,,,,,,,,,,,,,,,,,,,,,,,,,104747.27999999974,,done,,,,,,,,,,,,,,,,,,,,,,,,,,,,,,,,,,,,,,,,,,,,,,,,,,,,,,,,,,,,,,,,,,,,,,,,,,,,,,false,,,,,,,,,446653.55999999976,446653.1299999997,341806.012,341826.20499999984,341905.85,446668.565,,,,
Q1,html.Screen,2_4_3_4_0,2021-01-14T18:48:46.971Z,,,,,,,,,,,,,,,,,,,,,,,,,,,,,,,,,,,,,,,,,,,,,,,,,,,,,,,,,,,,,,,,,,,,,,,,,,,,,,,,,,,,,,,,,,,,,,,,,,,,,,,,,,,,,,,false,input_Q1==3,,,11136.64499999996,,response,,,,,,,,,,,,,,,,,,,,,,,,,Q1_i1,Q1_i3,Q1_i4,Q1_i2,1,3,4,2,false,correct,false,false,,,,,,,,,,,,,,,,,,,,,,,,,,,,,,,,,,,,,,,,,click #Q1_i3,false,,,,,,,,,457810.87499999965,457805.20999999996,446651.942,446653.85999999987,446668.565,457807.523,,,,
Q1_correct,html.Screen,2_4_3_4_1,2021-01-14T18:48:48.566Z,,,,,,,,,,,,,,,,,,,,,,,,,,,,,,,,,,,,,,,,,,,,,,,,,,,,,,,,,,,,,,,,,,,,,,,,,,,,,,,,,,,,,,,,,,,,,,,,,,,,,,,,,,,,,,,,,,,1596.9919999997364,,response,,,,,,,,,,,,,,,,,,,,,,,,,,,,,,,,,,,,,,,,,,,,,,,,,,,,,,,,,,,,,,,,,,,,,,,,,,,,,keypress,false,,,,,,,,,459405.7349999998,459404.5149999997,457791.509,457811.3199999998,457807.523,459405.906,,,,
Q2,html.Screen,2_4_3_4_2,2021-01-14T18:48:54.575Z,,,,,,,,,,,,,,,,,,,,,,,,,,,,,,,,,,,,,,,,,,,,,,,,,,,,,,,,,,,,,,,,,,,,,,,,,,,,,,,,,,,,,,,,,,,,,,,,,,,,,,,,,,,,,,,,,,,6007.698999999731,,response,,,,,,,,,,,,,,,,,,,,,,,,,,,,,,,,,,,,,Q2_i2,Q2_i1,Q2_i3,Option 2,Option 1,Same amount,opt2,correct,same,,,,,,,,,,,,,,,,,,,,,,,,,,,,,,,,click #Q2_i1,false,,,,,,,,,465415.1549999997,465413.60499999975,459389.328,459406.6599999996,459405.906,465416.629,,,,
Q2_correct,html.Screen,2_4_3_4_3,2021-01-14T18:48:56.639Z,,,,,,,,,,,,,,,,,,,,,,,,,,,,,,,,,,,,,,,,,,,,,,,,,,,,,,,,,,,,,,,,,,,,,,,,,,,,,,,,,,,,,,,,,,,,,,,,,,,,,,,,,,,,,,,,,,,2060.9259999999194,,response,,,,,,,,,,,,,,,,,,,,,,,,,,,,,,,,,,,,,,,,,,,,,,,,,,,,,,,,,,,,,,,,,,,,,,,,,,,,,keypress,false,,,,,,,,,467478.74,467477.55499999993,465400.026,465415.52999999974,465416.629,467481.566,,,,
Q4,html.Screen,2_4_3_4_4,2021-01-14T18:49:11.628Z,,,,,,,,,,,,,,,,,,,,,,,,,,,,,,,,,,,,,,,,,,,,,,,,,,,,,,,,,,,,,,,,,,,,,,,,,,,,,,,,,,,,,,,,,,,,,,,,,,,,,,,,,,,,,,,,,,,14984.928999999654,,response,,,,,,,,,,,,,,,,,,,,,,,,,,,,,,,,,,,,,,,,,,,,,,Q4_i4,Q4_i1,Q4_i2,Q4_i3,Press the space key,Press the arrow key that corresponds with the snack option I prefer,Indicate the number of food items in each snack option,Press the arrow key that corresponds with the snack option with more food items,pressspace,correct,indicate,morefood,,,,,,,,,,,,,,,,,,,,click #Q4_i1,false,,,,,,,,,482468.175,482466.49499999965,467464.732,467478.93499999965,467481.566,482483.032,,,,
Q4_correct,html.Screen,2_4_3_4_5,2021-01-14T18:49:12.984Z,,,,,,,,,,,,,,,,,,,,,,,,,,,,,,,,,,,,,,,,,,,,,,,,,,,,,,,,,,,,,,,,,,,,,,,,,,,,,,,,,,,,,,,,,,,,,,,,,,,,,,,,,,,,,,,,,,,1339.3929999998072,,response,,,,,,,,,,,,,,,,,,,,,,,,,,,,,,,,,,,,,,,,,,,,,,,,,,,,,,,,,,,,,,,,,,,,,,,,,,,,,keypress,false,,,,,,,,,483823.895,483822.4249999998,482466.402,482468.55499999993,482483.032,483831.703,,,,
Q5,html.Screen,2_4_3_4_6,2021-01-14T18:49:46.537Z,,,,,,,,,,,,,,,,,,,,,,,,,,,,,,,,,,,,,,,,,,,,,,,,,,,,,,,,,,,,,,,,,,,,,,,,,,,,,,,,,,,,,,,,,,,,,,,,,,,,,,,,,,,,,,,,,,,33542.67699999979,,response,,,,,,,,,,,,,,,,,,,,,,,,,,,,,,,,,,,,,,,,,,,,,,,,,,,,,,,,,,Q5_i3,Q5_i4,Q5_i2,Q5_i1,There are more slices of kiwi in snack Option 1,Snack Option 1 has been chosen,There are more pieces of chocolate in snack Option 2,Snack Option 2 has been chosen,morekiwi1,chose1,morechoc2,correct,,,,,,,,click #Q5_i1,false,,,,,,,,,517376.1549999999,517374.3799999998,483815.065,483824.18499999994,483831.703,517381.774,,,,
Q5_correct,html.Screen,2_4_3_4_7,2021-01-14T18:49:50.064Z,,,,,,,,,,,,,,,,,,,,,,,,,,,,,,,,,,,,,,,,,,,,,,,,,,,,,,,,,,,,,,,,,,,,,,,,,,,,,,,,,,,,,,,,,,,,,,,,,,,,,,,,,,,,,,,,,,,3520.4159999997937,,response,,,,,,,,,,,,,,,,,,,,,,,,,,,,,,,,,,,,,,,,,,,,,,,,,,,,,,,,,,,,,,,,,,,,,,,,,,,,,keypress,false,,,,,,,,,520903.605,520902.18999999977,517365.123,517376.58499999996,517381.774,520911.73,,,,
practice_sequence,flow.Sequence,2_4_3_4,2021-01-14T18:49:50.064Z,,,,,,,,,,,,,,,,,,,,,,,,,,,,,,,,,,,,,,,,,,,,,,,,,,,,,,,,,,,,,,,,,,,,,,,,,,,,,,,,,,,,,,,,,,,,,,,,,,,,,,,,,,,,,,,,,,,74233.62499999977,,completion,,,,,,,,,,,,,,,,,,,,,,,,,,,,,,,,,,,,,,,,,,,,,,,,,,,,,,,,,,,,,,,,,,,,,,,,,,,,,,false,,,,,,,,,520903.8999999998,520902.18999999977,446651.942,446653.78999999986,446668.565,520911.73,,,,
final_instru,html.Screen,2_4_3_5,2021-01-14T18:50:18.146Z,,,,,,,,,,,,,,,,,,,,,,,,,,,,,,,,,,,,,,,,,,,,,,,,,,,,,,,,,,,,,,,,,,,,,,,,,,,,,,,,,,,,,,,,,,,,,,,,,,,,,,,,,,,,,,,,,,,28073.894999999786,,done,,,,,,,,,,,,,,,,,,,,,,,,,,,,,,,,,,,,,,,,,,,,,,,,,,,,,,,,,,,,,,,,,,,,,,,,,,,,,,false,,,,,,,,,548986.0349999999,548985.6249999998,520894.898,520904.0399999999,520911.73,549000.32,,,,
blank_screen,canvas.Screen,2_4_3_6_0,2021-01-14T18:50:20.143Z,,,,,,,,,,,,,,,,,,,,,,,,,,,,,,,,,,,,,,,,,,,,,,,,,,,,,,,,,,,,,,,,,,,,,,,,,,,,,,,,,,,,,,,,,,,,,,,,,,,,,,,,,,,,,,,,,,,2081.2810000000754,,timeout,,,,,,,,,,,,,,,,,,,,,,,,,,,,,,,,,,,,,,,,,,,,,,,,,,,,,,,,,,,,,,,,,,,,,,,,,,,,,,false,,,,,,,,,550982.8749999997,550981.756,548983.709,548986.3949999999,549000.32,551081.601,,,,
fixCross,canvas.Screen,2_4_3_6_1_0_0_0_0_0_0,2021-01-14T18:50:20.476Z,,,blank.png,"[""nacho.png""]",blank.png,blank.png,blank.png,blank.png,blank.png,blank.png,blank.png,blank.png,blank.png,blank.png,blank.png,,,,,,,,,,,,,,,,,,,,,,,,,,,,,"[""nacho.png""]","[""celery.png""]",PB01.png,,,,,,,,,,,0,6,"[""celery.png""]","[""celery.png""]","[""celery.png""]","[""celery.png""]","[""celery.png""]","[""celery.png""]",blank.png,PB18.png,PB18.png,blank.png,blank.png,blank.png,blank.png,blank.png,blank.png,"[""celery.png""]","[""celery.png""]","[""celery.png""]","[""celery.png""]","[""celery.png""]","[""celery.png""]",1,"[""nacho.png""]",blank.png,blank.png,blank.png,0,blank.png,blank.png,blank.png,blank.png,blank.png,blank.png,PB01.png,,,,,,,,,,,1,,,,,,,,,,,,1548.5,,timeout,,,,,,,,,,,,,3,,,,,,,,,,,,,,,,,,,,,,,,,,,,,,,,,,,,,,,,,,,,,,,,,,,,,,,,,"[""celery.png""]","[""nacho.png""]",,,,2,,,false,,1,,,,,,,551315.9799999999,551314.76,550981.756,551086.3749999999,551081.601,552630.101,1,,,
timeout,canvas.Screen,2_4_3_6_1_0_0_0_0_0_1,2021-01-14T18:50:22.275Z,,,blank.png,"[""nacho.png""]",blank.png,blank.png,blank.png,blank.png,blank.png,blank.png,blank.png,blank.png,blank.png,blank.png,blank.png,,,,,,,,,,,,,,,,,,,,,,,,,,,,,"[""nacho.png""]","[""celery.png""]",PB01.png,,,,,,,,,,,0,6,"[""celery.png""]","[""celery.png""]","[""celery.png""]","[""celery.png""]","[""celery.png""]","[""celery.png""]",blank.png,PB18.png,PB18.png,blank.png,blank.png,blank.png,blank.png,blank.png,blank.png,"[""celery.png""]","[""celery.png""]","[""celery.png""]","[""celery.png""]","[""celery.png""]","[""celery.png""]",1,"[""nacho.png""]",blank.png,blank.png,blank.png,0,blank.png,blank.png,blank.png,blank.png,blank.png,blank.png,PB01.png,,,,,,,,,,,1,,,,,,,,,,,,1282.076999999932,,timeout,,,,,,,,,,,,,3,,,,,,,,,,,,,,,,,,,,,,,,,,,,,,,,,,,,,,,,,,,,,,,,,,,,,,,,,"[""celery.png""]","[""nacho.png""]",,,,2,,,false,,1,,,,,,,553114.3649999999,553112.977,551314.76,552639.615,552630.101,553912.178,,,,
choice,canvas.Screen,2_4_3_6_1_0_0_0_0_0_2,2021-01-14T18:50:23.505Z,,,blank.png,"[""nacho.png""]",blank.png,blank.png,blank.png,blank.png,blank.png,blank.png,blank.png,blank.png,blank.png,blank.png,blank.png,,,,,,,,,,,,,,,,,,,,,,,,,,,,,"[""nacho.png""]","[""celery.png""]",PB01.png,,,,,,,,,,,0,6,"[""celery.png""]","[""celery.png""]","[""celery.png""]","[""celery.png""]","[""celery.png""]","[""celery.png""]",blank.png,PB18.png,PB18.png,blank.png,blank.png,blank.png,blank.png,blank.png,blank.png,"[""celery.png""]","[""celery.png""]","[""celery.png""]","[""celery.png""]","[""celery.png""]","[""celery.png""]",1,"[""nacho.png""]",blank.png,blank.png,blank.png,0,blank.png,blank.png,blank.png,blank.png,blank.png,blank.png,PB01.png,,,,,,,,,,,1,,,,,,,,,,,,429.87699999962933,,response,,,,,,,,,,,,,3,,,,,,,,,,,,,,,,,,,,,,,,,,,,,,,,,,,,,,,,,,,,,,,,,,,,,,,,,"[""celery.png""]","[""nacho.png""]",,,,2,right,keydown(ArrowRight),false,,1,,,,,,,554344.3149999998,554342.0549999996,553112.977,553947.7499999998,553912.178,555127.645,,1,,
square,canvas.Screen,2_4_3_6_1_0_0_0_0_0_3,2021-01-14T18:50:25.272Z,,,blank.png,"[""nacho.png""]",blank.png,blank.png,blank.png,blank.png,blank.png,blank.png,blank.png,blank.png,blank.png,blank.png,blank.png,,,,,,,,,,,,,,,,,,,,,,,,,,,,,"[""nacho.png""]","[""celery.png""]",PB01.png,,,,,,,,,,,0,6,"[""celery.png""]","[""celery.png""]","[""celery.png""]","[""celery.png""]","[""celery.png""]","[""celery.png""]",blank.png,PB18.png,PB18.png,blank.png,blank.png,blank.png,blank.png,blank.png,blank.png,"[""celery.png""]","[""celery.png""]","[""celery.png""]","[""celery.png""]","[""celery.png""]","[""celery.png""]",1,"[""nacho.png""]",blank.png,blank.png,blank.png,0,blank.png,blank.png,blank.png,blank.png,blank.png,blank.png,PB01.png,,,,,,,,,,,1,,#808080,#33ff3f,,,,,,,,,998.9449999999488,,timeout,,,,,,,,,,,,,3,,,,,,,,,,,,,,,,,,,,,,,,,,,,,,,,,,,,,,,,,,,,,,,,,,,,,,,,,"[""celery.png""]","[""nacho.png""]",,,,2,,,false,,1,,,,,white,black,556111.7399999999,556110.002,555094.39,555095.9249999996,555127.645,556126.59,,,,
ITI_late,canvas.Screen,2_4_3_6_1_0_0_0_0_0_4,2021-01-14T18:50:25.771Z,,,blank.png,"[""nacho.png""]",blank.png,blank.png,blank.png,blank.png,blank.png,blank.png,blank.png,blank.png,blank.png,blank.png,blank.png,,,,,,,,,,,,,,,,,,,,,,,,,,,,,"[""nacho.png""]","[""celery.png""]",PB01.png,,,,,,,,,,,0,6,"[""celery.png""]","[""celery.png""]","[""celery.png""]","[""celery.png""]","[""celery.png""]","[""celery.png""]",blank.png,PB18.png,PB18.png,blank.png,blank.png,blank.png,blank.png,blank.png,blank.png,"[""celery.png""]","[""celery.png""]","[""celery.png""]","[""celery.png""]","[""celery.png""]","[""celery.png""]",1,"[""nacho.png""]",blank.png,blank.png,blank.png,0,blank.png,blank.png,blank.png,blank.png,blank.png,blank.png,PB01.png,,,,,,,,,,,1,,,,,,,,,,,,499.5350000000326,,timeout,,,,,,,,,,,,white,3,,,,,,,,,,,,,,,,,,,,,,,,,,,,,,,,,,,,,,,,,,,,,,,,,,,,,,,,,"[""celery.png""]","[""nacho.png""]",,,,2,,,false,,1,,,,,,,556611.0349999999,556609.517,556110.002,556115.7899999998,556126.59,556626.125,,,,
choice_sequence,flow.Sequence,2_4_3_6_1_0_0_0_0_0,2021-01-14T18:50:25.772Z,,,blank.png,"[""nacho.png""]",blank.png,blank.png,blank.png,blank.png,blank.png,blank.png,blank.png,blank.png,blank.png,blank.png,blank.png,,,,,,,,,,,,,,,,,,,,,,,,,,,,,"[""nacho.png""]","[""celery.png""]",PB01.png,,,,,,,,,,,0,6,"[""celery.png""]","[""celery.png""]","[""celery.png""]","[""celery.png""]","[""celery.png""]","[""celery.png""]",blank.png,PB18.png,PB18.png,blank.png,blank.png,blank.png,blank.png,blank.png,blank.png,"[""celery.png""]","[""celery.png""]","[""celery.png""]","[""celery.png""]","[""celery.png""]","[""celery.png""]",1,"[""nacho.png""]",blank.png,blank.png,blank.png,0,blank.png,blank.png,blank.png,blank.png,blank.png,blank.png,PB01.png,,,,,,,,,,,1,,,,,,,,,,,,5527.915999999968,,completion,,,,,,,,,,,,,3,,,,,,,,,,,,,,,,,,,,,,,,,,,,,,,,,,,,,,,,,,,,,,,,,,,,,,,,,"[""celery.png""]","[""nacho.png""]",,,,2,,,false,,1,,,,,,,556612.0899999996,556609.517,550981.756,551083.7149999997,551081.601,556626.125,,,,
fixCross,canvas.Screen,2_4_3_6_1_0_0_0_0_1_0,2021-01-14T18:50:26.021Z,,,blank.png,blank.png,blank.png,blank.png,blank.png,blank.png,blank.png,"[""nacho.png""]",blank.png,blank.png,blank.png,blank.png,blank.png,,,,,,,,,,,,,,,,,,,,,,,,,,,,,"[""nacho.png""]","[""celery.png""]",PB18.png,,,,,,,,,,,0,6,"[""celery.png""]","[""celery.png""]","[""celery.png""]","[""celery.png""]","[""celery.png""]","[""celery.png""]",blank.png,PB18.png,PB17.png,"[""celery.png""]","[""celery.png""]","[""celery.png""]","[""celery.png""]","[""celery.png""]","[""celery.png""]","[""celery.png""]","[""celery.png""]","[""celery.png""]","[""celery.png""]","[""celery.png""]","[""celery.png""]",1,"[""nacho.png""]",blank.png,blank.png,blank.png,6,"[""celery.png""]","[""celery.png""]","[""celery.png""]","[""celery.png""]","[""celery.png""]","[""celery.png""]",PB17.png,,,,,,,,,,,1,,,,,,,,,,,,1215.5010000000475,,timeout,,,,,,,,,,,,,4,,,,,,,,,,,,,,,,,,,,,,,,,,,,,,,,,,,,,,,,,,,,,,,,,,,,,,,,,"[""celery.png""]","[""nacho.png""]",,,,2,,,false,,1,,,,,,,556860.6999999997,556859.26,556609.517,556625.9799999997,556626.125,557841.626,2,,,
timeout,canvas.Screen,2_4_3_6_1_0_0_0_0_1_1,2021-01-14T18:50:27.486Z,,,blank.png,blank.png,blank.png,blank.png,blank.png,blank.png,blank.png,"[""nacho.png""]",blank.png,blank.png,blank.png,blank.png,blank.png,,,,,,,,,,,,,,,,,,,,,,,,,,,,,"[""nacho.png""]","[""celery.png""]",PB18.png,,,,,,,,,,,0,6,"[""celery.png""]","[""celery.png""]","[""celery.png""]","[""celery.png""]","[""celery.png""]","[""celery.png""]",blank.png,PB18.png,PB17.png,"[""celery.png""]","[""celery.png""]","[""celery.png""]","[""celery.png""]","[""celery.png""]","[""celery.png""]","[""celery.png""]","[""celery.png""]","[""celery.png""]","[""celery.png""]","[""celery.png""]","[""celery.png""]",1,"[""nacho.png""]",blank.png,blank.png,blank.png,6,"[""celery.png""]","[""celery.png""]","[""celery.png""]","[""celery.png""]","[""celery.png""]","[""celery.png""]",PB17.png,,,,,,,,,,,1,,,,,,,,,,,,1515.2289999999339,,timeout,,,,,,,,,,,,,4,,,,,,,,,,,,,,,,,,,,,,,,,,,,,,,,,,,,,,,,,,,,,,,,,,,,,,,,,"[""celery.png""]","[""nacho.png""]",,,,2,,,false,,1,,,,,,,558325.9749999997,558324.48,556859.26,557851.24,557841.626,559356.855,,,,
choice,canvas.Screen,2_4_3_6_1_0_0_0_0_1_2,2021-01-14T18:50:29.513Z,,,blank.png,blank.png,blank.png,blank.png,blank.png,blank.png,blank.png,"[""nacho.png""]",blank.png,blank.png,blank.png,blank.png,blank.png,,,,,,,,,,,,,,,,,,,,,,,,,,,,,"[""nacho.png""]","[""celery.png""]",PB18.png,,,,,,,,,,,0,6,"[""celery.png""]","[""celery.png""]","[""celery.png""]","[""celery.png""]","[""celery.png""]","[""celery.png""]",blank.png,PB18.png,PB17.png,"[""celery.png""]","[""celery.png""]","[""celery.png""]","[""celery.png""]","[""celery.png""]","[""celery.png""]","[""celery.png""]","[""celery.png""]","[""celery.png""]","[""celery.png""]","[""celery.png""]","[""celery.png""]",1,"[""nacho.png""]",blank.png,blank.png,blank.png,6,"[""celery.png""]","[""celery.png""]","[""celery.png""]","[""celery.png""]","[""celery.png""]","[""celery.png""]",PB17.png,,,,,,,,,,,1,,,,,,,,,,,,992.2950000000419,,response,,,,,,,,,,,,,4,,,,,,,,,,,,,,,,,,,,,,,,,,,,,,,,,,,,,,,,,,,,,,,,,,,,,,,,,"[""celery.png""]","[""nacho.png""]",,,,2,right,keydown(ArrowRight),false,,1,,,,,,,560352.5649999997,560349.15,558324.48,559346.3849999998,559356.855,561421.451,,2,,
square,canvas.Screen,2_4_3_6_1_0_0_0_0_1_3,2021-01-14T18:50:31.566Z,,,blank.png,blank.png,blank.png,blank.png,blank.png,blank.png,blank.png,"[""nacho.png""]",blank.png,blank.png,blank.png,blank.png,blank.png,,,,,,,,,,,,,,,,,,,,,,,,,,,,,"[""nacho.png""]","[""celery.png""]",PB18.png,,,,,,,,,,,0,6,"[""celery.png""]","[""celery.png""]","[""celery.png""]","[""celery.png""]","[""celery.png""]","[""celery.png""]",blank.png,PB18.png,PB17.png,"[""celery.png""]","[""celery.png""]","[""celery.png""]","[""celery.png""]","[""celery.png""]","[""celery.png""]","[""celery.png""]","[""celery.png""]","[""celery.png""]","[""celery.png""]","[""celery.png""]","[""celery.png""]",1,"[""nacho.png""]",blank.png,blank.png,blank.png,6,"[""celery.png""]","[""celery.png""]","[""celery.png""]","[""celery.png""]","[""celery.png""]","[""celery.png""]",PB17.png,,,,,,,,,,,1,,#808080,#33ff3f,,,,,,,,,998.8880000000354,,timeout,,,,,,,,,,,,,4,,,,,,,,,,,,,,,,,,,,,,,,,,,,,,,,,,,,,,,,,,,,,,,,,,,,,,,,,"[""celery.png""]","[""nacho.png""]",,,,2,,,false,,1,,,,,white,black,562405.4999999999,562403.761,561404.859,561415.7999999998,561421.451,562420.339,,,,
ITI_late,canvas.Screen,2_4_3_6_1_0_0_0_0_1_4,2021-01-14T18:50:32.315Z,,,blank.png,blank.png,blank.png,blank.png,blank.png,blank.png,blank.png,"[""nacho.png""]",blank.png,blank.png,blank.png,blank.png,blank.png,,,,,,,,,,,,,,,,,,,,,,,,,,,,,"[""nacho.png""]","[""celery.png""]",PB18.png,,,,,,,,,,,0,6,"[""celery.png""]","[""celery.png""]","[""celery.png""]","[""celery.png""]","[""celery.png""]","[""celery.png""]",blank.png,PB18.png,PB17.png,"[""celery.png""]","[""celery.png""]","[""celery.png""]","[""celery.png""]","[""celery.png""]","[""celery.png""]","[""celery.png""]","[""celery.png""]","[""celery.png""]","[""celery.png""]","[""celery.png""]","[""celery.png""]",1,"[""nacho.png""]",blank.png,blank.png,blank.png,6,"[""celery.png""]","[""celery.png""]","[""celery.png""]","[""celery.png""]","[""celery.png""]","[""celery.png""]",PB17.png,,,,,,,,,,,1,,,,,,,,,,,,765.9299999999348,,timeout,,,,,,,,,,,,white,4,,,,,,,,,,,,,,,,,,,,,,,,,,,,,,,,,,,,,,,,,,,,,,,,,,,,,,,,,"[""celery.png""]","[""nacho.png""]",,,,2,,,false,,1,,,,,,,563154.4799999997,563153.016,562403.761,562409.3149999998,562420.339,563186.269,,,,
choice_sequence,flow.Sequence,2_4_3_6_1_0_0_0_0_1,2021-01-14T18:50:32.317Z,,,blank.png,blank.png,blank.png,blank.png,blank.png,blank.png,blank.png,"[""nacho.png""]",blank.png,blank.png,blank.png,blank.png,blank.png,,,,,,,,,,,,,,,,,,,,,,,,,,,,,"[""nacho.png""]","[""celery.png""]",PB18.png,,,,,,,,,,,0,6,"[""celery.png""]","[""celery.png""]","[""celery.png""]","[""celery.png""]","[""celery.png""]","[""celery.png""]",blank.png,PB18.png,PB17.png,"[""celery.png""]","[""celery.png""]","[""celery.png""]","[""celery.png""]","[""celery.png""]","[""celery.png""]","[""celery.png""]","[""celery.png""]","[""celery.png""]","[""celery.png""]","[""celery.png""]","[""celery.png""]",1,"[""nacho.png""]",blank.png,blank.png,blank.png,6,"[""celery.png""]","[""celery.png""]","[""celery.png""]","[""celery.png""]","[""celery.png""]","[""celery.png""]",PB17.png,,,,,,,,,,,1,,,,,,,,,,,,6526.890999999945,,completion,,,,,,,,,,,,,4,,,,,,,,,,,,,,,,,,,,,,,,,,,,,,,,,,,,,,,,,,,,,,,,,,,,,,,,,"[""celery.png""]","[""nacho.png""]",,,,2,,,false,,1,,,,,,,563156.1199999996,563153.016,556609.517,556623.81,556626.125,563186.269,,,,
fixCross,canvas.Screen,2_4_3_6_1_0_0_0_0_2_0,2021-01-14T18:50:32.681Z,,,blank.png,"[""nacho.png""]",blank.png,blank.png,blank.png,blank.png,blank.png,blank.png,blank.png,blank.png,blank.png,blank.png,blank.png,,,,,,,,,,,,,,,,,,,,,,,,,,,,,"[""nacho.png""]","[""celery.png""]",PB07.png,,,,,,,,,,,0,6,"[""celery.png""]","[""celery.png""]","[""celery.png""]","[""celery.png""]","[""celery.png""]","[""celery.png""]",blank.png,PB18.png,PB18.png,"[""celery.png""]",blank.png,blank.png,blank.png,blank.png,blank.png,"[""celery.png""]","[""celery.png""]","[""celery.png""]","[""celery.png""]","[""celery.png""]","[""celery.png""]",1,"[""nacho.png""]",blank.png,blank.png,blank.png,1,"[""celery.png""]",blank.png,blank.png,blank.png,blank.png,blank.png,PB07.png,,,,,,,,,,,1,,,,,,,,,,,,1299.3300000000745,,timeout,,,,,,,,,,,,,3,,,,,,,,,,,,,,,,,,,,,,,,,,,,,,,,,,,,,,,,,,,,,,,,,,,,,,,,,"[""celery.png""]","[""nacho.png""]",,,,2,,,false,,1,,,,,,,563521.0699999998,563519.311,563153.016,563180.4999999999,563186.269,564485.599,3,,,
timeout,canvas.Screen,2_4_3_6_1_0_0_0_0_2_1,2021-01-14T18:50:34.133Z,,,blank.png,"[""nacho.png""]",blank.png,blank.png,blank.png,blank.png,blank.png,blank.png,blank.png,blank.png,blank.png,blank.png,blank.png,,,,,,,,,,,,,,,,,,,,,,,,,,,,,"[""nacho.png""]","[""celery.png""]",PB07.png,,,,,,,,,,,0,6,"[""celery.png""]","[""celery.png""]","[""celery.png""]","[""celery.png""]","[""celery.png""]","[""celery.png""]",blank.png,PB18.png,PB18.png,"[""celery.png""]",blank.png,blank.png,blank.png,blank.png,blank.png,"[""celery.png""]","[""celery.png""]","[""celery.png""]","[""celery.png""]","[""celery.png""]","[""celery.png""]",1,"[""nacho.png""]",blank.png,blank.png,blank.png,1,"[""celery.png""]",blank.png,blank.png,blank.png,blank.png,blank.png,PB07.png,,,,,,,,,,,1,,,,,,,,,,,,1547.9259999999776,,timeout,,,,,,,,,,,,,3,,,,,,,,,,,,,,,,,,,,,,,,,,,,,,,,,,,,,,,,,,,,,,,,,,,,,,,,,"[""celery.png""]","[""nacho.png""]",,,,2,,,false,,1,,,,,,,564972.42,564967.99,563519.311,564492.475,564485.599,566033.525,,,,
choice,canvas.Screen,2_4_3_6_1_0_0_0_0_2_2,2021-01-14T18:50:35.204Z,,,blank.png,"[""nacho.png""]",blank.png,blank.png,blank.png,blank.png,blank.png,blank.png,blank.png,blank.png,blank.png,blank.png,blank.png,,,,,,,,,,,,,,,,,,,,,,,,,,,,,"[""nacho.png""]","[""celery.png""]",PB07.png,,,,,,,,,,,0,6,"[""celery.png""]","[""celery.png""]","[""celery.png""]","[""celery.png""]","[""celery.png""]","[""celery.png""]",blank.png,PB18.png,PB18.png,"[""celery.png""]",blank.png,blank.png,blank.png,blank.png,blank.png,"[""celery.png""]","[""celery.png""]","[""celery.png""]","[""celery.png""]","[""celery.png""]","[""celery.png""]",1,"[""nacho.png""]",blank.png,blank.png,blank.png,1,"[""celery.png""]",blank.png,blank.png,blank.png,blank.png,blank.png,PB07.png,,,,,,,,,,,1,,,,,,,,,,,,825.6699999998091,,response,,,,,,,,,,,,,3,,,,,,,,,,,,,,,,,,,,,,,,,,,,,,,,,,,,,,,,,,,,,,,,,,,,,,,,,"[""celery.png""]","[""nacho.png""]",,,,2,right,keydown(ArrowRight),false,,1,,,,,,,566043.8399999999,565793.6599999998,564967.99,566009,,566832.677,,3,,
square,canvas.Screen,2_4_3_6_1_0_0_0_0_2_3,2021-01-14T18:50:36.977Z,,,blank.png,"[""nacho.png""]",blank.png,blank.png,blank.png,blank.png,blank.png,blank.png,blank.png,blank.png,blank.png,blank.png,blank.png,,,,,,,,,,,,,,,,,,,,,,,,,,,,,"[""nacho.png""]","[""celery.png""]",PB07.png,,,,,,,,,,,0,6,"[""celery.png""]","[""celery.png""]","[""celery.png""]","[""celery.png""]","[""celery.png""]","[""celery.png""]",blank.png,PB18.png,PB18.png,"[""celery.png""]",blank.png,blank.png,blank.png,blank.png,blank.png,"[""celery.png""]","[""celery.png""]","[""celery.png""]","[""celery.png""]","[""celery.png""]","[""celery.png""]",1,"[""nacho.png""]",blank.png,blank.png,blank.png,1,"[""celery.png""]",blank.png,blank.png,blank.png,blank.png,blank.png,PB07.png,,,,,,,,,,,1,,#808080,#33ff3f,,,,,,,,,999.5009999999311,,timeout,,,,,,,,,,,,,3,,,,,,,,,,,,,,,,,,,,,,,,,,,,,,,,,,,,,,,,,,,,,,,,,,,,,,,,,"[""celery.png""]","[""nacho.png""]",,,,2,,,false,,1,,,,,white,black,567816.7249999996,567815.065,566033.525,566811.5599999996,566832.677,567832.178,,,,
ITI_late,canvas.Screen,2_4_3_6_1_0_0_0_0_2_4,2021-01-14T18:50:37.726Z,,,blank.png,"[""nacho.png""]",blank.png,blank.png,blank.png,blank.png,blank.png,blank.png,blank.png,blank.png,blank.png,blank.png,blank.png,,,,,,,,,,,,,,,,,,,,,,,,,,,,,"[""nacho.png""]","[""celery.png""]",PB07.png,,,,,,,,,,,0,6,"[""celery.png""]","[""celery.png""]","[""celery.png""]","[""celery.png""]","[""celery.png""]","[""celery.png""]",blank.png,PB18.png,PB18.png,"[""celery.png""]",blank.png,blank.png,blank.png,blank.png,blank.png,"[""celery.png""]","[""celery.png""]","[""celery.png""]","[""celery.png""]","[""celery.png""]","[""celery.png""]",1,"[""nacho.png""]",blank.png,blank.png,blank.png,1,"[""celery.png""]",blank.png,blank.png,blank.png,blank.png,blank.png,PB07.png,,,,,,,,,,,1,,,,,,,,,,,,748.7630000000354,,timeout,,,,,,,,,,,,white,3,,,,,,,,,,,,,,,,,,,,,,,,,,,,,,,,,,,,,,,,,,,,,,,,,,,,,,,,,"[""celery.png""]","[""nacho.png""]",,,,2,,,false,,1,,,,,,,568565.9249999999,568564.317,567815.065,567822.2249999999,567832.178,568580.941,,,,
choice_sequence,flow.Sequence,2_4_3_6_1_0_0_0_0_2,2021-01-14T18:50:37.728Z,,,blank.png,"[""nacho.png""]",blank.png,blank.png,blank.png,blank.png,blank.png,blank.png,blank.png,blank.png,blank.png,blank.png,blank.png,,,,,,,,,,,,,,,,,,,,,,,,,,,,,"[""nacho.png""]","[""celery.png""]",PB07.png,,,,,,,,,,,0,6,"[""celery.png""]","[""celery.png""]","[""celery.png""]","[""celery.png""]","[""celery.png""]","[""celery.png""]",blank.png,PB18.png,PB18.png,"[""celery.png""]",blank.png,blank.png,blank.png,blank.png,blank.png,"[""celery.png""]","[""celery.png""]","[""celery.png""]","[""celery.png""]","[""celery.png""]","[""celery.png""]",1,"[""nacho.png""]",blank.png,blank.png,blank.png,1,"[""celery.png""]",blank.png,blank.png,blank.png,blank.png,blank.png,PB07.png,,,,,,,,,,,1,,,,,,,,,,,,5378.048000000068,,completion,,,,,,,,,,,,,3,,,,,,,,,,,,,,,,,,,,,,,,,,,,,,,,,,,,,,,,,,,,,,,,,,,,,,,,,"[""celery.png""]","[""nacho.png""]",,,,2,,,false,,1,,,,,,,568567.5649999998,568564.317,563153.016,563177.4199999999,563186.269,568580.941,,,,
fixCross,canvas.Screen,2_4_3_6_1_0_0_0_0_3_0,2021-01-14T18:50:38.076Z,,,blank.png,blank.png,blank.png,blank.png,blank.png,blank.png,blank.png,"[""nacho.png""]",blank.png,blank.png,blank.png,blank.png,blank.png,,,,,,,,,,,,,,,,,,,,,,,,,,,,,"[""nacho.png""]","[""celery.png""]",PB18.png,,,,,,,,,,,0,6,"[""celery.png""]","[""celery.png""]","[""celery.png""]","[""celery.png""]","[""celery.png""]","[""celery.png""]",blank.png,PB18.png,PB15.png,"[""celery.png""]","[""celery.png""]","[""celery.png""]","[""celery.png""]","[""celery.png""]","[""celery.png""]","[""celery.png""]","[""celery.png""]","[""celery.png""]","[""celery.png""]",blank.png,blank.png,1,"[""nacho.png""]",blank.png,blank.png,blank.png,4,"[""celery.png""]","[""celery.png""]","[""celery.png""]","[""celery.png""]",blank.png,blank.png,PB15.png,,,,,,,,,,,1,,,,,,,,,,,,1198.8040000000037,,timeout,,,,,,,,,,,,,4,,,,,,,,,,,,,,,,,,,,,,,,,,,,,,,,,,,,,,,,,,,,,,,,,,,,,,,,,"[""celery.png""]","[""nacho.png""]",,,,2,,,false,,1,,,,,,,568915.3149999997,568913.899,568564.317,568584.7249999997,568580.941,569779.745,4,,,
timeout,canvas.Screen,2_4_3_6_1_0_0_0_0_3_1,2021-01-14T18:50:39.425Z,,,blank.png,blank.png,blank.png,blank.png,blank.png,blank.png,blank.png,"[""nacho.png""]",blank.png,blank.png,blank.png,blank.png,blank.png,,,,,,,,,,,,,,,,,,,,,,,,,,,,,"[""nacho.png""]","[""celery.png""]",PB18.png,,,,,,,,,,,0,6,"[""celery.png""]","[""celery.png""]","[""celery.png""]","[""celery.png""]","[""celery.png""]","[""celery.png""]",blank.png,PB18.png,PB15.png,"[""celery.png""]","[""celery.png""]","[""celery.png""]","[""celery.png""]","[""celery.png""]","[""celery.png""]","[""celery.png""]","[""celery.png""]","[""celery.png""]","[""celery.png""]",blank.png,blank.png,1,"[""nacho.png""]",blank.png,blank.png,blank.png,4,"[""celery.png""]","[""celery.png""]","[""celery.png""]","[""celery.png""]",blank.png,blank.png,PB15.png,,,,,,,,,,,1,,,,,,,,,,,,1332.0400000000373,,timeout,,,,,,,,,,,,,4,,,,,,,,,,,,,,,,,,,,,,,,,,,,,,,,,,,,,,,,,,,,,,,,,,,,,,,,,"[""celery.png""]","[""nacho.png""]",,,,2,,,false,,1,,,,,,,570264.1749999998,570262.628,568913.899,569787.4849999999,569779.745,571111.785,,,,
choice,canvas.Screen,2_4_3_6_1_0_0_0_0_3_2,2021-01-14T18:50:41.589Z,,,blank.png,blank.png,blank.png,blank.png,blank.png,blank.png,blank.png,"[""nacho.png""]",blank.png,blank.png,blank.png,blank.png,blank.png,,,,,,,,,,,,,,,,,,,,,,,,,,,,,"[""nacho.png""]","[""celery.png""]",PB18.png,,,,,,,,,,,0,6,"[""celery.png""]","[""celery.png""]","[""celery.png""]","[""celery.png""]","[""celery.png""]","[""celery.png""]",blank.png,PB18.png,PB15.png,"[""celery.png""]","[""celery.png""]","[""celery.png""]","[""celery.png""]","[""celery.png""]","[""celery.png""]","[""celery.png""]","[""celery.png""]","[""celery.png""]","[""celery.png""]",blank.png,blank.png,1,"[""nacho.png""]",blank.png,blank.png,blank.png,4,"[""celery.png""]","[""celery.png""]","[""celery.png""]","[""celery.png""]",blank.png,blank.png,PB15.png,,,,,,,,,,,1,,,,,,,,,,,,1312.7550000000047,,response,,,,,,,,,,,,,4,,,,,,,,,,,,,,,,,,,,,,,,,,,,,,,,,,,,,,,,,,,,,,,,,,,,,,,,,"[""celery.png""]","[""nacho.png""]",,,,2,left,keydown(ArrowLeft),false,,1,,,,,,,572428.7749999999,572424.54,570262.628,571099.8299999996,571111.785,573409.412,,4,,
square,canvas.Screen,2_4_3_6_1_0_0_0_0_3_3,2021-01-14T18:50:43.555Z,,,blank.png,blank.png,blank.png,blank.png,blank.png,blank.png,blank.png,"[""nacho.png""]",blank.png,blank.png,blank.png,blank.png,blank.png,,,,,,,,,,,,,,,,,,,,,,,,,,,,,"[""nacho.png""]","[""celery.png""]",PB18.png,,,,,,,,,,,0,6,"[""celery.png""]","[""celery.png""]","[""celery.png""]","[""celery.png""]","[""celery.png""]","[""celery.png""]",blank.png,PB18.png,PB15.png,"[""celery.png""]","[""celery.png""]","[""celery.png""]","[""celery.png""]","[""celery.png""]","[""celery.png""]","[""celery.png""]","[""celery.png""]","[""celery.png""]","[""celery.png""]",blank.png,blank.png,1,"[""nacho.png""]",blank.png,blank.png,blank.png,4,"[""celery.png""]","[""celery.png""]","[""celery.png""]","[""celery.png""]",blank.png,blank.png,PB15.png,,,,,,,,,,,1,,#33ff3f,#808080,,,,,,,,,999.0450000000419,,timeout,,,,,,,,,,,,,4,,,,,,,,,,,,,,,,,,,,,,,,,,,,,,,,,,,,,,,,,,,,,,,,,,,,,,,,,"[""celery.png""]","[""nacho.png""]",,,,2,,,false,,1,,,,,black,white,574393.8349999998,574391.867,573392.828,573395.7699999997,573409.412,574408.457,,,,
ITI_late,canvas.Screen,2_4_3_6_1_0_0_0_0_3_4,2021-01-14T18:50:44.304Z,,,blank.png,blank.png,blank.png,blank.png,blank.png,blank.png,blank.png,"[""nacho.png""]",blank.png,blank.png,blank.png,blank.png,blank.png,,,,,,,,,,,,,,,,,,,,,,,,,,,,,"[""nacho.png""]","[""celery.png""]",PB18.png,,,,,,,,,,,0,6,"[""celery.png""]","[""celery.png""]","[""celery.png""]","[""celery.png""]","[""celery.png""]","[""celery.png""]",blank.png,PB18.png,PB15.png,"[""celery.png""]","[""celery.png""]","[""celery.png""]","[""celery.png""]","[""celery.png""]","[""celery.png""]","[""celery.png""]","[""celery.png""]","[""celery.png""]","[""celery.png""]",blank.png,blank.png,1,"[""nacho.png""]",blank.png,blank.png,blank.png,4,"[""celery.png""]","[""celery.png""]","[""celery.png""]","[""celery.png""]",blank.png,blank.png,PB15.png,,,,,,,,,,,1,,,,,,,,,,,,749.265999999945,,timeout,,,,,,,,,,,,white,4,,,,,,,,,,,,,,,,,,,,,,,,,,,,,,,,,,,,,,,,,,,,,,,,,,,,,,,,,"[""celery.png""]","[""nacho.png""]",,,,2,,,false,,1,,,,,,,575142.7549999999,575141.124,574391.867,574397.5449999998,574408.457,575157.723,,,,
choice_sequence,flow.Sequence,2_4_3_6_1_0_0_0_0_3,2021-01-14T18:50:44.306Z,,,blank.png,blank.png,blank.png,blank.png,blank.png,blank.png,blank.png,"[""nacho.png""]",blank.png,blank.png,blank.png,blank.png,blank.png,,,,,,,,,,,,,,,,,,,,,,,,,,,,,"[""nacho.png""]","[""celery.png""]",PB18.png,,,,,,,,,,,0,6,"[""celery.png""]","[""celery.png""]","[""celery.png""]","[""celery.png""]","[""celery.png""]","[""celery.png""]",blank.png,PB18.png,PB15.png,"[""celery.png""]","[""celery.png""]","[""celery.png""]","[""celery.png""]","[""celery.png""]","[""celery.png""]","[""celery.png""]","[""celery.png""]","[""celery.png""]","[""celery.png""]",blank.png,blank.png,1,"[""nacho.png""]",blank.png,blank.png,blank.png,4,"[""celery.png""]","[""celery.png""]","[""celery.png""]","[""celery.png""]",blank.png,blank.png,PB15.png,,,,,,,,,,,1,,,,,,,,,,,,6560.182999999961,,completion,,,,,,,,,,,,,4,,,,,,,,,,,,,,,,,,,,,,,,,,,,,,,,,,,,,,,,,,,,,,,,,,,,,,,,,"[""celery.png""]","[""nacho.png""]",,,,2,,,false,,1,,,,,,,575144.6899999996,575141.124,568564.317,568579.26,568580.941,575157.723,,,,
fixCross,canvas.Screen,2_4_3_6_1_0_0_0_0_4_0,2021-01-14T18:50:44.557Z,,,blank.png,"[""nacho.png""]",blank.png,blank.png,blank.png,blank.png,blank.png,blank.png,blank.png,blank.png,blank.png,blank.png,blank.png,,,,,,,,,,,,,,,,,,,,,,,,,,,,,"[""nacho.png""]","[""celery.png""]",PB16.png,,,,,,,,,,,0,6,"[""celery.png""]","[""celery.png""]","[""celery.png""]","[""celery.png""]","[""celery.png""]","[""celery.png""]",blank.png,PB18.png,PB18.png,"[""celery.png""]","[""celery.png""]","[""celery.png""]","[""celery.png""]","[""celery.png""]",blank.png,"[""celery.png""]","[""celery.png""]","[""celery.png""]","[""celery.png""]","[""celery.png""]","[""celery.png""]",1,"[""nacho.png""]",blank.png,blank.png,blank.png,5,"[""celery.png""]","[""celery.png""]","[""celery.png""]","[""celery.png""]","[""celery.png""]",blank.png,PB16.png,,,,,,,,,,,1,,,,,,,,,,,,1348.6820000000298,,timeout,,,,,,,,,,,,,3,,,,,,,,,,,,,,,,,,,,,,,,,,,,,,,,,,,,,,,,,,,,,,,,,,,,,,,,,"[""celery.png""]","[""nacho.png""]",,,,2,,,false,,1,,,,,,,575396.4349999997,575390.879,575141.124,575168.0649999998,575157.723,576506.405,5,,,
timeout,canvas.Screen,2_4_3_6_1_0_0_0_0_4_1,2021-01-14T18:50:46.152Z,,,blank.png,"[""nacho.png""]",blank.png,blank.png,blank.png,blank.png,blank.png,blank.png,blank.png,blank.png,blank.png,blank.png,blank.png,,,,,,,,,,,,,,,,,,,,,,,,,,,,,"[""nacho.png""]","[""celery.png""]",PB16.png,,,,,,,,,,,0,6,"[""celery.png""]","[""celery.png""]","[""celery.png""]","[""celery.png""]","[""celery.png""]","[""celery.png""]",blank.png,PB18.png,PB18.png,"[""celery.png""]","[""celery.png""]","[""celery.png""]","[""celery.png""]","[""celery.png""]",blank.png,"[""celery.png""]","[""celery.png""]","[""celery.png""]","[""celery.png""]","[""celery.png""]","[""celery.png""]",1,"[""nacho.png""]",blank.png,blank.png,blank.png,5,"[""celery.png""]","[""celery.png""]","[""celery.png""]","[""celery.png""]","[""celery.png""]",blank.png,PB16.png,,,,,,,,,,,1,,,,,,,,,,,,1348.8850000000093,,timeout,,,,,,,,,,,,,3,,,,,,,,,,,,,,,,,,,,,,,,,,,,,,,,,,,,,,,,,,,,,,,,,,,,,,,,,"[""celery.png""]","[""nacho.png""]",,,,2,,,false,,1,,,,,,,576990.7599999997,576989.284,575390.879,576519.5499999999,576506.405,577855.29,,,,
choice,canvas.Screen,2_4_3_6_1_0_0_0_0_4_2,2021-01-14T18:50:47.808Z,,,blank.png,"[""nacho.png""]",blank.png,blank.png,blank.png,blank.png,blank.png,blank.png,blank.png,blank.png,blank.png,blank.png,blank.png,,,,,,,,,,,,,,,,,,,,,,,,,,,,,"[""nacho.png""]","[""celery.png""]",PB16.png,,,,,,,,,,,0,6,"[""celery.png""]","[""celery.png""]","[""celery.png""]","[""celery.png""]","[""celery.png""]","[""celery.png""]",blank.png,PB18.png,PB18.png,"[""celery.png""]","[""celery.png""]","[""celery.png""]","[""celery.png""]","[""celery.png""]",blank.png,"[""celery.png""]","[""celery.png""]","[""celery.png""]","[""celery.png""]","[""celery.png""]","[""celery.png""]",1,"[""nacho.png""]",blank.png,blank.png,blank.png,5,"[""celery.png""]","[""celery.png""]","[""celery.png""]","[""celery.png""]","[""celery.png""]",blank.png,PB16.png,,,,,,,,,,,1,,,,,,,,,,,,789.8449999997392,,response,,,,,,,,,,,,,3,,,,,,,,,,,,,,,,,,,,,,,,,,,,,,,,,,,,,,,,,,,,,,,,,,,,,,,,,"[""celery.png""]","[""nacho.png""]",,,,2,right,keydown(ArrowRight),false,,1,,,,,,,578647.2899999999,578645.1349999998,576989.284,577849.06,577855.29,579586.924,,5,,
square,canvas.Screen,2_4_3_6_1_0_0_0_0_4_3,2021-01-14T18:50:49.733Z,,,blank.png,"[""nacho.png""]",blank.png,blank.png,blank.png,blank.png,blank.png,blank.png,blank.png,blank.png,blank.png,blank.png,blank.png,,,,,,,,,,,,,,,,,,,,,,,,,,,,,"[""nacho.png""]","[""celery.png""]",PB16.png,,,,,,,,,,,0,6,"[""celery.png""]","[""celery.png""]","[""celery.png""]","[""celery.png""]","[""celery.png""]","[""celery.png""]",blank.png,PB18.png,PB18.png,"[""celery.png""]","[""celery.png""]","[""celery.png""]","[""celery.png""]","[""celery.png""]",blank.png,"[""celery.png""]","[""celery.png""]","[""celery.png""]","[""celery.png""]","[""celery.png""]","[""celery.png""]",1,"[""nacho.png""]",blank.png,blank.png,blank.png,5,"[""celery.png""]","[""celery.png""]","[""celery.png""]","[""celery.png""]","[""celery.png""]",blank.png,PB16.png,,,,,,,,,,,1,,#808080,#33ff3f,,,,,,,,,998.7360000000335,,timeout,,,,,,,,,,,,,3,,,,,,,,,,,,,,,,,,,,,,,,,,,,,,,,,,,,,,,,,,,,,,,,,,,,,,,,,"[""celery.png""]","[""nacho.png""]",,,,2,,,false,,1,,,,,white,black,580571.8849999999,580569.61,579570.127,579577.875,579586.924,580585.66,,,,
ITI_late,canvas.Screen,2_4_3_6_1_0_0_0_0_4_4,2021-01-14T18:50:49.982Z,,,blank.png,"[""nacho.png""]",blank.png,blank.png,blank.png,blank.png,blank.png,blank.png,blank.png,blank.png,blank.png,blank.png,blank.png,,,,,,,,,,,,,,,,,,,,,,,,,,,,,"[""nacho.png""]","[""celery.png""]",PB16.png,,,,,,,,,,,0,6,"[""celery.png""]","[""celery.png""]","[""celery.png""]","[""celery.png""]","[""celery.png""]","[""celery.png""]",blank.png,PB18.png,PB18.png,"[""celery.png""]","[""celery.png""]","[""celery.png""]","[""celery.png""]","[""celery.png""]",blank.png,"[""celery.png""]","[""celery.png""]","[""celery.png""]","[""celery.png""]","[""celery.png""]","[""celery.png""]",1,"[""nacho.png""]",blank.png,blank.png,blank.png,5,"[""celery.png""]","[""celery.png""]","[""celery.png""]","[""celery.png""]","[""celery.png""]",blank.png,PB16.png,,,,,,,,,,,1,,,,,,,,,,,,266.41399999998976,,timeout,,,,,,,,,,,,white,3,,,,,,,,,,,,,,,,,,,,,,,,,,,,,,,,,,,,,,,,,,,,,,,,,,,,,,,,,"[""celery.png""]","[""nacho.png""]",,,,2,,,false,,1,,,,,,,580820.78,580819.36,580569.61,580576.9249999998,580585.66,580852.074,,,,
choice_sequence,flow.Sequence,2_4_3_6_1_0_0_0_0_4,2021-01-14T18:50:49.983Z,,,blank.png,"[""nacho.png""]",blank.png,blank.png,blank.png,blank.png,blank.png,blank.png,blank.png,blank.png,blank.png,blank.png,blank.png,,,,,,,,,,,,,,,,,,,,,,,,,,,,,"[""nacho.png""]","[""celery.png""]",PB16.png,,,,,,,,,,,0,6,"[""celery.png""]","[""celery.png""]","[""celery.png""]","[""celery.png""]","[""celery.png""]","[""celery.png""]",blank.png,PB18.png,PB18.png,"[""celery.png""]","[""celery.png""]","[""celery.png""]","[""celery.png""]","[""celery.png""]",blank.png,"[""celery.png""]","[""celery.png""]","[""celery.png""]","[""celery.png""]","[""celery.png""]","[""celery.png""]",1,"[""nacho.png""]",blank.png,blank.png,blank.png,5,"[""celery.png""]","[""celery.png""]","[""celery.png""]","[""celery.png""]","[""celery.png""]",blank.png,PB16.png,,,,,,,,,,,1,,,,,,,,,,,,5661.636999999988,,completion,,,,,,,,,,,,,3,,,,,,,,,,,,,,,,,,,,,,,,,,,,,,,,,,,,,,,,,,,,,,,,,,,,,,,,,"[""celery.png""]","[""nacho.png""]",,,,2,,,false,,1,,,,,,,580822.3249999996,580819.36,575141.124,575165.0199999999,575157.723,580852.074,,,,
fixCross,canvas.Screen,2_4_3_6_1_0_0_0_0_5_0,2021-01-14T18:50:50.398Z,,,blank.png,"[""nacho.png""]",blank.png,blank.png,blank.png,blank.png,blank.png,blank.png,blank.png,blank.png,blank.png,blank.png,blank.png,,,,,,,,,,,,,,,,,,,,,,,,,,,,,"[""nacho.png""]","[""celery.png""]",PB12.png,,,,,,,,,,,0,6,"[""celery.png""]","[""celery.png""]","[""celery.png""]","[""celery.png""]","[""celery.png""]","[""celery.png""]",blank.png,PB18.png,PB18.png,"[""celery.png""]","[""celery.png""]",blank.png,blank.png,blank.png,blank.png,"[""celery.png""]","[""celery.png""]","[""celery.png""]","[""celery.png""]","[""celery.png""]","[""celery.png""]",1,"[""nacho.png""]",blank.png,blank.png,blank.png,2,"[""celery.png""]","[""celery.png""]",blank.png,blank.png,blank.png,blank.png,PB12.png,,,,,,,,,,,1,,,,,,,,,,,,1198.8049999999348,,timeout,,,,,,,,,,,,,3,,,,,,,,,,,,,,,,,,,,,,,,,,,,,,,,,,,,,,,,,,,,,,,,,,,,,,,,,"[""celery.png""]","[""nacho.png""]",,,,2,,,false,,1,,,,,,,581236.6149999998,581235.073,580819.36,580846.7299999997,580852.074,582050.879,6,,,
timeout,canvas.Screen,2_4_3_6_1_0_0_0_0_5_1,2021-01-14T18:50:51.696Z,,,blank.png,"[""nacho.png""]",blank.png,blank.png,blank.png,blank.png,blank.png,blank.png,blank.png,blank.png,blank.png,blank.png,blank.png,,,,,,,,,,,,,,,,,,,,,,,,,,,,,"[""nacho.png""]","[""celery.png""]",PB12.png,,,,,,,,,,,0,6,"[""celery.png""]","[""celery.png""]","[""celery.png""]","[""celery.png""]","[""celery.png""]","[""celery.png""]",blank.png,PB18.png,PB18.png,"[""celery.png""]","[""celery.png""]",blank.png,blank.png,blank.png,blank.png,"[""celery.png""]","[""celery.png""]","[""celery.png""]","[""celery.png""]","[""celery.png""]","[""celery.png""]",1,"[""nacho.png""]",blank.png,blank.png,blank.png,2,"[""celery.png""]","[""celery.png""]",blank.png,blank.png,blank.png,blank.png,PB12.png,,,,,,,,,,,1,,,,,,,,,,,,1398.6460000000661,,timeout,,,,,,,,,,,,,3,,,,,,,,,,,,,,,,,,,,,,,,,,,,,,,,,,,,,,,,,,,,,,,,,,,,,,,,,"[""celery.png""]","[""nacho.png""]",,,,2,,,false,,1,,,,,,,582535.12,582533.783,581235.073,582059.6649999998,582050.879,583449.525,,,,
choice,canvas.Screen,2_4_3_6_1_0_0_0_0_5_2,2021-01-14T18:50:53.154Z,,,blank.png,"[""nacho.png""]",blank.png,blank.png,blank.png,blank.png,blank.png,blank.png,blank.png,blank.png,blank.png,blank.png,blank.png,,,,,,,,,,,,,,,,,,,,,,,,,,,,,"[""nacho.png""]","[""celery.png""]",PB12.png,,,,,,,,,,,0,6,"[""celery.png""]","[""celery.png""]","[""celery.png""]","[""celery.png""]","[""celery.png""]","[""celery.png""]",blank.png,PB18.png,PB18.png,"[""celery.png""]","[""celery.png""]",blank.png,blank.png,blank.png,blank.png,"[""celery.png""]","[""celery.png""]","[""celery.png""]","[""celery.png""]","[""celery.png""]","[""celery.png""]",1,"[""nacho.png""]",blank.png,blank.png,blank.png,2,"[""celery.png""]","[""celery.png""]",blank.png,blank.png,blank.png,blank.png,PB12.png,,,,,,,,,,,1,,,,,,,,,,,,540.0099999996601,,response,,,,,,,,,,,,,3,,,,,,,,,,,,,,,,,,,,,,,,,,,,,,,,,,,,,,,,,,,,,,,,,,,,,,,,,"[""celery.png""]","[""nacho.png""]",,,,2,right,keydown(ArrowRight),false,,1,,,,,,,583992.9549999997,583989.5349999997,582533.783,583440.885,583449.525,584881.448,,6,,
square,canvas.Screen,2_4_3_6_1_0_0_0_0_5_3,2021-01-14T18:50:55.028Z,,,blank.png,"[""nacho.png""]",blank.png,blank.png,blank.png,blank.png,blank.png,blank.png,blank.png,blank.png,blank.png,blank.png,blank.png,,,,,,,,,,,,,,,,,,,,,,,,,,,,,"[""nacho.png""]","[""celery.png""]",PB12.png,,,,,,,,,,,0,6,"[""celery.png""]","[""celery.png""]","[""celery.png""]","[""celery.png""]","[""celery.png""]","[""celery.png""]",blank.png,PB18.png,PB18.png,"[""celery.png""]","[""celery.png""]",blank.png,blank.png,blank.png,blank.png,"[""celery.png""]","[""celery.png""]","[""celery.png""]","[""celery.png""]","[""celery.png""]","[""celery.png""]",1,"[""nacho.png""]",blank.png,blank.png,blank.png,2,"[""celery.png""]","[""celery.png""]",blank.png,blank.png,blank.png,blank.png,PB12.png,,,,,,,,,,,1,,#808080,#33ff3f,,,,,,,,,999.0990000000456,,timeout,,,,,,,,,,,,,3,,,,,,,,,,,,,,,,,,,,,,,,,,,,,,,,,,,,,,,,,,,,,,,,,,,,,,,,,"[""celery.png""]","[""nacho.png""]",,,,2,,,false,,1,,,,,white,black,585866.7249999999,585864.359,584864.844,584876.51,584881.448,585880.547,,,,
ITI_late,canvas.Screen,2_4_3_6_1_0_0_0_0_5_4,2021-01-14T18:50:55.776Z,,,blank.png,"[""nacho.png""]",blank.png,blank.png,blank.png,blank.png,blank.png,blank.png,blank.png,blank.png,blank.png,blank.png,blank.png,,,,,,,,,,,,,,,,,,,,,,,,,,,,,"[""nacho.png""]","[""celery.png""]",PB12.png,,,,,,,,,,,0,6,"[""celery.png""]","[""celery.png""]","[""celery.png""]","[""celery.png""]","[""celery.png""]","[""celery.png""]",blank.png,PB18.png,PB18.png,"[""celery.png""]","[""celery.png""]",blank.png,blank.png,blank.png,blank.png,"[""celery.png""]","[""celery.png""]","[""celery.png""]","[""celery.png""]","[""celery.png""]","[""celery.png""]",1,"[""nacho.png""]",blank.png,blank.png,blank.png,2,"[""celery.png""]","[""celery.png""]",blank.png,blank.png,blank.png,blank.png,PB12.png,,,,,,,,,,,1,,,,,,,,,,,,749.1770000000251,,timeout,,,,,,,,,,,,white,3,,,,,,,,,,,,,,,,,,,,,,,,,,,,,,,,,,,,,,,,,,,,,,,,,,,,,,,,,"[""celery.png""]","[""nacho.png""]",,,,2,,,false,,1,,,,,,,586615.2899999997,586613.676,585864.359,585872.0650000001,585880.547,586629.724,,,,
choice_sequence,flow.Sequence,2_4_3_6_1_0_0_0_0_5,2021-01-14T18:50:55.778Z,,,blank.png,"[""nacho.png""]",blank.png,blank.png,blank.png,blank.png,blank.png,blank.png,blank.png,blank.png,blank.png,blank.png,blank.png,,,,,,,,,,,,,,,,,,,,,,,,,,,,,"[""nacho.png""]","[""celery.png""]",PB12.png,,,,,,,,,,,0,6,"[""celery.png""]","[""celery.png""]","[""celery.png""]","[""celery.png""]","[""celery.png""]","[""celery.png""]",blank.png,PB18.png,PB18.png,"[""celery.png""]","[""celery.png""]",blank.png,blank.png,blank.png,blank.png,"[""celery.png""]","[""celery.png""]","[""celery.png""]","[""celery.png""]","[""celery.png""]","[""celery.png""]",1,"[""nacho.png""]",blank.png,blank.png,blank.png,2,"[""celery.png""]","[""celery.png""]",blank.png,blank.png,blank.png,blank.png,PB12.png,,,,,,,,,,,1,,,,,,,,,,,,5761.601999999955,,completion,,,,,,,,,,,,,3,,,,,,,,,,,,,,,,,,,,,,,,,,,,,,,,,,,,,,,,,,,,,,,,,,,,,,,,,"[""celery.png""]","[""nacho.png""]",,,,2,,,false,,1,,,,,,,586616.8599999996,586613.676,580819.36,580843.5799999997,580852.074,586629.724,,,,
fixCross,canvas.Screen,2_4_3_6_1_0_0_0_0_6_0,2021-01-14T18:50:56.375Z,,,blank.png,"[""nacho.png""]",blank.png,blank.png,blank.png,blank.png,blank.png,blank.png,blank.png,blank.png,blank.png,blank.png,blank.png,,,,,,,,,,,,,,,,,,,,,,,,,,,,,"[""nacho.png""]","[""celery.png""]",PB14.png,,,,,,,,,,,0,6,"[""celery.png""]","[""celery.png""]","[""celery.png""]","[""celery.png""]","[""celery.png""]","[""celery.png""]",blank.png,PB18.png,PB18.png,"[""celery.png""]","[""celery.png""]","[""celery.png""]",blank.png,blank.png,blank.png,"[""celery.png""]","[""celery.png""]","[""celery.png""]","[""celery.png""]","[""celery.png""]","[""celery.png""]",1,"[""nacho.png""]",blank.png,blank.png,blank.png,3,"[""celery.png""]","[""celery.png""]","[""celery.png""]",blank.png,blank.png,blank.png,PB14.png,,,,,,,,,,,1,,,,,,,,,,,,1765.4989999999525,,timeout,,,,,,,,,,,,,3,,,,,,,,,,,,,,,,,,,,,,,,,,,,,,,,,,,,,,,,,,,,,,,,,,,,,,,,,"[""celery.png""]","[""nacho.png""]",,,,2,,,false,,1,,,,,,,587213.9149999998,587212.475,586613.676,586630.9750000001,586629.724,588395.223,7,,,
timeout,canvas.Screen,2_4_3_6_1_0_0_0_0_6_1,2021-01-14T18:50:58.041Z,,,blank.png,"[""nacho.png""]",blank.png,blank.png,blank.png,blank.png,blank.png,blank.png,blank.png,blank.png,blank.png,blank.png,blank.png,,,,,,,,,,,,,,,,,,,,,,,,,,,,,"[""nacho.png""]","[""celery.png""]",PB14.png,,,,,,,,,,,0,6,"[""celery.png""]","[""celery.png""]","[""celery.png""]","[""celery.png""]","[""celery.png""]","[""celery.png""]",blank.png,PB18.png,PB18.png,"[""celery.png""]","[""celery.png""]","[""celery.png""]",blank.png,blank.png,blank.png,"[""celery.png""]","[""celery.png""]","[""celery.png""]","[""celery.png""]","[""celery.png""]","[""celery.png""]",1,"[""nacho.png""]",blank.png,blank.png,blank.png,3,"[""celery.png""]","[""celery.png""]","[""celery.png""]",blank.png,blank.png,blank.png,PB14.png,,,,,,,,,,,1,,,,,,,,,,,,1514.5870000000577,,timeout,,,,,,,,,,,,,3,,,,,,,,,,,,,,,,,,,,,,,,,,,,,,,,,,,,,,,,,,,,,,,,,,,,,,,,,"[""celery.png""]","[""nacho.png""]",,,,2,,,false,,1,,,,,,,588879.5499999997,588877.984,587212.475,588404.18,588395.223,589909.81,,,,
choice,canvas.Screen,2_4_3_6_1_0_0_0_0_6_2,2021-01-14T18:50:59.078Z,,,blank.png,"[""nacho.png""]",blank.png,blank.png,blank.png,blank.png,blank.png,blank.png,blank.png,blank.png,blank.png,blank.png,blank.png,,,,,,,,,,,,,,,,,,,,,,,,,,,,,"[""nacho.png""]","[""celery.png""]",PB14.png,,,,,,,,,,,0,6,"[""celery.png""]","[""celery.png""]","[""celery.png""]","[""celery.png""]","[""celery.png""]","[""celery.png""]",blank.png,PB18.png,PB18.png,"[""celery.png""]","[""celery.png""]","[""celery.png""]",blank.png,blank.png,blank.png,"[""celery.png""]","[""celery.png""]","[""celery.png""]","[""celery.png""]","[""celery.png""]","[""celery.png""]",1,"[""nacho.png""]",blank.png,blank.png,blank.png,3,"[""celery.png""]","[""celery.png""]","[""celery.png""]",blank.png,blank.png,blank.png,PB14.png,,,,,,,,,,,1,,,,,,,,,,,,969.3460000000196,,response,,,,,,,,,,,,,3,,,,,,,,,,,,,,,,,,,,,,,,,,,,,,,,,,,,,,,,,,,,,,,,,,,,,,,,,"[""celery.png""]","[""nacho.png""]",,,,2,right,keydown(ArrowRight),false,,1,,,,,,,589916.6849999997,589847.3300000001,588877.984,589888.3049999999,,590775.628,,7,,
square,canvas.Screen,2_4_3_6_1_0_0_0_0_6_3,2021-01-14T18:51:00.921Z,,,blank.png,"[""nacho.png""]",blank.png,blank.png,blank.png,blank.png,blank.png,blank.png,blank.png,blank.png,blank.png,blank.png,blank.png,,,,,,,,,,,,,,,,,,,,,,,,,,,,,"[""nacho.png""]","[""celery.png""]",PB14.png,,,,,,,,,,,0,6,"[""celery.png""]","[""celery.png""]","[""celery.png""]","[""celery.png""]","[""celery.png""]","[""celery.png""]",blank.png,PB18.png,PB18.png,"[""celery.png""]","[""celery.png""]","[""celery.png""]",blank.png,blank.png,blank.png,"[""celery.png""]","[""celery.png""]","[""celery.png""]","[""celery.png""]","[""celery.png""]","[""celery.png""]",1,"[""nacho.png""]",blank.png,blank.png,blank.png,3,"[""celery.png""]","[""celery.png""]","[""celery.png""]",blank.png,blank.png,blank.png,PB14.png,,,,,,,,,,,1,,#808080,#33ff3f,,,,,,,,,998.9139999999898,,timeout,,,,,,,,,,,,,3,,,,,,,,,,,,,,,,,,,,,,,,,,,,,,,,,,,,,,,,,,,,,,,,,,,,,,,,,"[""celery.png""]","[""nacho.png""]",,,,2,,,false,,1,,,,,white,black,591760.0599999996,591758.481,589909.81,590761.8399999996,590775.628,591774.542,,,,
ITI_late,canvas.Screen,2_4_3_6_1_0_0_0_0_6_4,2021-01-14T18:51:02.169Z,,,blank.png,"[""nacho.png""]",blank.png,blank.png,blank.png,blank.png,blank.png,blank.png,blank.png,blank.png,blank.png,blank.png,blank.png,,,,,,,,,,,,,,,,,,,,,,,,,,,,,"[""nacho.png""]","[""celery.png""]",PB14.png,,,,,,,,,,,0,6,"[""celery.png""]","[""celery.png""]","[""celery.png""]","[""celery.png""]","[""celery.png""]","[""celery.png""]",blank.png,PB18.png,PB18.png,"[""celery.png""]","[""celery.png""]","[""celery.png""]",blank.png,blank.png,blank.png,"[""celery.png""]","[""celery.png""]","[""celery.png""]","[""celery.png""]","[""celery.png""]","[""celery.png""]",1,"[""nacho.png""]",blank.png,blank.png,blank.png,3,"[""celery.png""]","[""celery.png""]","[""celery.png""]",blank.png,blank.png,blank.png,PB14.png,,,,,,,,,,,1,,,,,,,,,,,,1315.3730000000214,,timeout,,,,,,,,,,,,white,3,,,,,,,,,,,,,,,,,,,,,,,,,,,,,,,,,,,,,,,,,,,,,,,,,,,,,,,,,"[""celery.png""]","[""nacho.png""]",,,,2,,,false,,1,,,,,,,593008.1049999999,593006.719,591758.481,591764.115,591774.542,593089.915,,,,
choice_sequence,flow.Sequence,2_4_3_6_1_0_0_0_0_6,2021-01-14T18:51:02.171Z,,,blank.png,"[""nacho.png""]",blank.png,blank.png,blank.png,blank.png,blank.png,blank.png,blank.png,blank.png,blank.png,blank.png,blank.png,,,,,,,,,,,,,,,,,,,,,,,,,,,,,"[""nacho.png""]","[""celery.png""]",PB14.png,,,,,,,,,,,0,6,"[""celery.png""]","[""celery.png""]","[""celery.png""]","[""celery.png""]","[""celery.png""]","[""celery.png""]",blank.png,PB18.png,PB18.png,"[""celery.png""]","[""celery.png""]","[""celery.png""]",blank.png,blank.png,blank.png,"[""celery.png""]","[""celery.png""]","[""celery.png""]","[""celery.png""]","[""celery.png""]","[""celery.png""]",1,"[""nacho.png""]",blank.png,blank.png,blank.png,3,"[""celery.png""]","[""celery.png""]","[""celery.png""]",blank.png,blank.png,blank.png,PB14.png,,,,,,,,,,,1,,,,,,,,,,,,6376.994999999995,,completion,,,,,,,,,,,,,3,,,,,,,,,,,,,,,,,,,,,,,,,,,,,,,,,,,,,,,,,,,,,,,,,,,,,,,,,"[""celery.png""]","[""nacho.png""]",,,,2,,,false,,1,,,,,,,593009.9999999998,593006.719,586613.676,586627.97,586629.724,593089.915,,,,
choice_loop,flow.Loop,2_4_3_6_1_0_0_0_0,2021-01-14T18:51:02.172Z,,,,,,,,,,,,,,,,,,,,,,,,,,,,,,,,,,,,,,,,,,,,"[""nacho.png""]","[""celery.png""]",,,,,,,,,,,,,,,,,,,,,,,,,,,,,,,,,,,,,,,,,,,,,,,,,,,,,,,,,,,,,,,,,,,,,,41925.11800000002,,completion,,,,,,,,,,,,,,,,,,,,,,,,,,,,,,,,,,,,,,,,,,,,,,,,,,,,,,,,,,,,,,,,,,,,,,"[""celery.png""]","[""nacho.png""]",,,,2,,,false,,,,,,,,,593011.2249999997,593006.719,550981.756,551070.6799999998,551081.601,593089.915,,,,
choice_frame,html.Frame,2_4_3_6_1_0_0_0,2021-01-14T18:51:02.173Z,,,,,,,,,,,,,,,,,,,,,,,,,,,,,,,,,,,,,,,,,,,,,,,,,,,,,,,,,,,,,,,,,,,,,,,,,,,,,,,,,,,,,,,,,,,,,,,,,,,,,,,,,,,,,,,,,,,41930.02899999998,,,,,,,,,,,,,,,,,,,,,,,,,,,,,,,,,,,,,,,,,,,,,,,,,,,,,,,,,,,,,,,,,,,,,,,,,,,,,2,,,false,,,,,,,,,593012.0950000001,593011.63,550981.756,550983.3099999996,551081.601,593106.615,,,,
sublock_1,flow.Sequence,2_4_3_6_1_0_0,2021-01-14T18:51:02.176Z,,,,,,,,,,,,,,,,,,,,,,,,,,,,,,,,,,,,,,,,,,,,,,,,,,,,,,,,,,,,,,,,,,,,,,,,,,,,,,,,,,,,,,,,,,,,,,,,,,,,,,,,,,,,,,,,,,,41930.02899999998,,completion,,,,,,,,,,,,,,,,,,,,,,,,,,,,,,,,,,,,,,,,,,,,,,,,,,,,,,,,,,,,,,,,,,,,,,,,,,,2,,,false,,,,,,,,,593015.1899999996,593011.63,550981.756,550983.2149999997,551081.601,593106.615,,,,
fixCross,canvas.Screen,2_4_3_6_1_0_1_0_0_0_0,2021-01-14T18:51:02.705Z,,,blank.png,"[""nacho.png""]",blank.png,blank.png,blank.png,blank.png,blank.png,blank.png,blank.png,blank.png,blank.png,blank.png,blank.png,,,,,,,,,,,,,,,,,,,,,,,,,,,,,"[""nacho.png""]","[""celery.png""]",PB07.png,,,,,,,,,,,0,6,"[""celery.png""]","[""celery.png""]","[""celery.png""]","[""celery.png""]","[""celery.png""]","[""celery.png""]",blank.png,PB18.png,PB18.png,"[""celery.png""]",blank.png,blank.png,blank.png,blank.png,blank.png,"[""celery.png""]","[""celery.png""]","[""celery.png""]","[""celery.png""]","[""celery.png""]","[""celery.png""]",1,"[""nacho.png""]",blank.png,blank.png,blank.png,1,"[""celery.png""]",blank.png,blank.png,blank.png,blank.png,blank.png,PB07.png,,,,,,,,,,,1,,,,,,,,,,,,1265.469000000041,,timeout,,,,,,,,,,,,,3,,,,,,,,,,,,,,,,,,,,,,,,,,,,,,,,,,,,,,,,,,,,,,,,,,,,,,,,,"[""celery.png""]","[""nacho.png""]",,,,6,,,false,,1,,,,,,,593543.8399999999,593539.494,593089.915,593103.5950000001,593106.615,594372.084,8,,,
timeout,canvas.Screen,2_4_3_6_1_0_1_0_0_0_1,2021-01-14T18:51:04.017Z,,,blank.png,"[""nacho.png""]",blank.png,blank.png,blank.png,blank.png,blank.png,blank.png,blank.png,blank.png,blank.png,blank.png,blank.png,,,,,,,,,,,,,,,,,,,,,,,,,,,,,"[""nacho.png""]","[""celery.png""]",PB07.png,,,,,,,,,,,0,6,"[""celery.png""]","[""celery.png""]","[""celery.png""]","[""celery.png""]","[""celery.png""]","[""celery.png""]",blank.png,PB18.png,PB18.png,"[""celery.png""]",blank.png,blank.png,blank.png,blank.png,blank.png,"[""celery.png""]","[""celery.png""]","[""celery.png""]","[""celery.png""]","[""celery.png""]","[""celery.png""]",1,"[""nacho.png""]",blank.png,blank.png,blank.png,1,"[""celery.png""]",blank.png,blank.png,blank.png,blank.png,blank.png,PB07.png,,,,,,,,,,,1,,,,,,,,,,,,1431.8619999999646,,timeout,,,,,,,,,,,,,3,,,,,,,,,,,,,,,,,,,,,,,,,,,,,,,,,,,,,,,,,,,,,,,,,,,,,,,,,"[""celery.png""]","[""nacho.png""]",,,,6,,,false,,1,,,,,,,594856.3099999997,594854.889,593539.494,594365.1849999997,594372.084,595803.946,,,,
choice,canvas.Screen,2_4_3_6_1_0_1_0_0_0_2,2021-01-14T18:51:04.984Z,,,blank.png,"[""nacho.png""]",blank.png,blank.png,blank.png,blank.png,blank.png,blank.png,blank.png,blank.png,blank.png,blank.png,blank.png,,,,,,,,,,,,,,,,,,,,,,,,,,,,,"[""nacho.png""]","[""celery.png""]",PB07.png,,,,,,,,,,,0,6,"[""celery.png""]","[""celery.png""]","[""celery.png""]","[""celery.png""]","[""celery.png""]","[""celery.png""]",blank.png,PB18.png,PB18.png,"[""celery.png""]",blank.png,blank.png,blank.png,blank.png,blank.png,"[""celery.png""]","[""celery.png""]","[""celery.png""]","[""celery.png""]","[""celery.png""]","[""celery.png""]",1,"[""nacho.png""]",blank.png,blank.png,blank.png,1,"[""celery.png""]",blank.png,blank.png,blank.png,blank.png,blank.png,PB07.png,,,,,,,,,,,1,,,,,,,,,,,,392.38599999970756,,response,,,,,,,,,,,,,3,,,,,,,,,,,,,,,,,,,,,,,,,,,,,,,,,,,,,,,,,,,,,,,,,,,,,,,,,"[""celery.png""]","[""nacho.png""]",,,,6,right,keydown(ArrowRight),false,,1,,,,,,,595822.9899999996,595247.2749999997,594854.889,595796.1099999998,,596636.464,,8,,
square,canvas.Screen,2_4_3_6_1_0_1_0_0_0_3,2021-01-14T18:51:06.781Z,,,blank.png,"[""nacho.png""]",blank.png,blank.png,blank.png,blank.png,blank.png,blank.png,blank.png,blank.png,blank.png,blank.png,blank.png,,,,,,,,,,,,,,,,,,,,,,,,,,,,,"[""nacho.png""]","[""celery.png""]",PB07.png,,,,,,,,,,,0,6,"[""celery.png""]","[""celery.png""]","[""celery.png""]","[""celery.png""]","[""celery.png""]","[""celery.png""]",blank.png,PB18.png,PB18.png,"[""celery.png""]",blank.png,blank.png,blank.png,blank.png,blank.png,"[""celery.png""]","[""celery.png""]","[""celery.png""]","[""celery.png""]","[""celery.png""]","[""celery.png""]",1,"[""nacho.png""]",blank.png,blank.png,blank.png,1,"[""celery.png""]",blank.png,blank.png,blank.png,blank.png,blank.png,PB07.png,,,,,,,,,,,1,,#808080,#33ff3f,,,,,,,,,998.9560000000056,,timeout,,,,,,,,,,,,,3,,,,,,,,,,,,,,,,,,,,,,,,,,,,,,,,,,,,,,,,,,,,,,,,,,,,,,,,,"[""celery.png""]","[""nacho.png""]",,,,6,,,false,,1,,,,,white,black,597620.4450000001,597618.818,595803.946,596591.8099999999,596636.464,597635.42,,,,
ITI_late,canvas.Screen,2_4_3_6_1_0_1_0_0_0_4,2021-01-14T18:51:08.030Z,,,blank.png,"[""nacho.png""]",blank.png,blank.png,blank.png,blank.png,blank.png,blank.png,blank.png,blank.png,blank.png,blank.png,blank.png,,,,,,,,,,,,,,,,,,,,,,,,,,,,,"[""nacho.png""]","[""celery.png""]",PB07.png,,,,,,,,,,,0,6,"[""celery.png""]","[""celery.png""]","[""celery.png""]","[""celery.png""]","[""celery.png""]","[""celery.png""]",blank.png,PB18.png,PB18.png,"[""celery.png""]",blank.png,blank.png,blank.png,blank.png,blank.png,"[""celery.png""]","[""celery.png""]","[""celery.png""]","[""celery.png""]","[""celery.png""]","[""celery.png""]",1,"[""nacho.png""]",blank.png,blank.png,blank.png,1,"[""celery.png""]",blank.png,blank.png,blank.png,blank.png,blank.png,PB07.png,,,,,,,,,,,1,,,,,,,,,,,,1248.7739999999758,,timeout,,,,,,,,,,,,white,3,,,,,,,,,,,,,,,,,,,,,,,,,,,,,,,,,,,,,,,,,,,,,,,,,,,,,,,,,"[""celery.png""]","[""nacho.png""]",,,,6,,,false,,1,,,,,,,598869.0299999998,598867.572,597618.818,597625.9999999998,597635.42,598884.194,,,,
choice_sequence,flow.Sequence,2_4_3_6_1_0_1_0_0_0,2021-01-14T18:51:08.033Z,,,blank.png,"[""nacho.png""]",blank.png,blank.png,blank.png,blank.png,blank.png,blank.png,blank.png,blank.png,blank.png,blank.png,blank.png,,,,,,,,,,,,,,,,,,,,,,,,,,,,,"[""nacho.png""]","[""celery.png""]",PB07.png,,,,,,,,,,,0,6,"[""celery.png""]","[""celery.png""]","[""celery.png""]","[""celery.png""]","[""celery.png""]","[""celery.png""]",blank.png,PB18.png,PB18.png,"[""celery.png""]",blank.png,blank.png,blank.png,blank.png,blank.png,"[""celery.png""]","[""celery.png""]","[""celery.png""]","[""celery.png""]","[""celery.png""]","[""celery.png""]",1,"[""nacho.png""]",blank.png,blank.png,blank.png,1,"[""celery.png""]",blank.png,blank.png,blank.png,blank.png,blank.png,PB07.png,,,,,,,,,,,1,,,,,,,,,,,,5760.957000000053,,completion,,,,,,,,,,,,,3,,,,,,,,,,,,,,,,,,,,,,,,,,,,,,,,,,,,,,,,,,,,,,,,,,,,,,,,,"[""celery.png""]","[""nacho.png""]",,,,6,,,false,,1,,,,,,,598871.5199999997,598867.572,593089.915,593102.1649999998,593106.615,598884.194,,,,
fixCross,canvas.Screen,2_4_3_6_1_0_1_0_0_1_0,2021-01-14T18:51:08.580Z,,,blank.png,blank.png,blank.png,blank.png,blank.png,blank.png,blank.png,"[""nacho.png""]",blank.png,blank.png,blank.png,blank.png,blank.png,,,,,,,,,,,,,,,,,,,,,,,,,,,,,"[""nacho.png""]","[""celery.png""]",PB18.png,,,,,,,,,,,0,6,"[""celery.png""]","[""celery.png""]","[""celery.png""]","[""celery.png""]","[""celery.png""]","[""celery.png""]",blank.png,PB18.png,PB01.png,"[""celery.png""]","[""celery.png""]","[""celery.png""]","[""celery.png""]","[""celery.png""]","[""celery.png""]",blank.png,blank.png,blank.png,blank.png,blank.png,blank.png,1,"[""nacho.png""]",blank.png,blank.png,blank.png,0,blank.png,blank.png,blank.png,blank.png,blank.png,blank.png,PB01.png,,,,,,,,,,,1,,,,,,,,,,,,1431.9120000000112,,timeout,,,,,,,,,,,,,4,,,,,,,,,,,,,,,,,,,,,,,,,,,,,,,,,,,,,,,,,,,,,,,,,,,,,,,,,"[""celery.png""]","[""nacho.png""]",,,,6,,,false,,1,,,,,,,599419.2799999996,599417.608,598867.572,598892.1249999999,598884.194,600316.106,9,,,
timeout,canvas.Screen,2_4_3_6_1_0_1_0_0_1_1,2021-01-14T18:51:09.962Z,,,blank.png,blank.png,blank.png,blank.png,blank.png,blank.png,blank.png,"[""nacho.png""]",blank.png,blank.png,blank.png,blank.png,blank.png,,,,,,,,,,,,,,,,,,,,,,,,,,,,,"[""nacho.png""]","[""celery.png""]",PB18.png,,,,,,,,,,,0,6,"[""celery.png""]","[""celery.png""]","[""celery.png""]","[""celery.png""]","[""celery.png""]","[""celery.png""]",blank.png,PB18.png,PB01.png,"[""celery.png""]","[""celery.png""]","[""celery.png""]","[""celery.png""]","[""celery.png""]","[""celery.png""]",blank.png,blank.png,blank.png,blank.png,blank.png,blank.png,1,"[""nacho.png""]",blank.png,blank.png,blank.png,0,blank.png,blank.png,blank.png,blank.png,blank.png,blank.png,PB01.png,,,,,,,,,,,1,,,,,,,,,,,,1232.3399999999674,,timeout,,,,,,,,,,,,,4,,,,,,,,,,,,,,,,,,,,,,,,,,,,,,,,,,,,,,,,,,,,,,,,,,,,,,,,,"[""celery.png""]","[""nacho.png""]",,,,6,,,false,,1,,,,,,,600800.82,600798.974,599417.608,600305.6349999997,600316.106,601548.446,,,,
choice,canvas.Screen,2_4_3_6_1_0_1_0_0_1_2,2021-01-14T18:51:11.412Z,,,blank.png,blank.png,blank.png,blank.png,blank.png,blank.png,blank.png,"[""nacho.png""]",blank.png,blank.png,blank.png,blank.png,blank.png,,,,,,,,,,,,,,,,,,,,,,,,,,,,,"[""nacho.png""]","[""celery.png""]",PB18.png,,,,,,,,,,,0,6,"[""celery.png""]","[""celery.png""]","[""celery.png""]","[""celery.png""]","[""celery.png""]","[""celery.png""]",blank.png,PB18.png,PB01.png,"[""celery.png""]","[""celery.png""]","[""celery.png""]","[""celery.png""]","[""celery.png""]","[""celery.png""]",blank.png,blank.png,blank.png,blank.png,blank.png,blank.png,1,"[""nacho.png""]",blank.png,blank.png,blank.png,0,blank.png,blank.png,blank.png,blank.png,blank.png,blank.png,PB01.png,,,,,,,,,,,1,,,,,,,,,,,,700.4589999999152,,response,,,,,,,,,,,,,4,,,,,,,,,,,,,,,,,,,,,,,,,,,,,,,,,,,,,,,,,,,,,,,,,,,,,,,,,"[""celery.png""]","[""nacho.png""]",,,,6,left,keydown(ArrowLeft),false,,1,,,,,,,602251.35,602248.9049999999,600798.974,601530.5449999996,601548.446,602930.196,,9,,
square,canvas.Screen,2_4_3_6_1_0_1_0_0_1_3,2021-01-14T18:51:13.076Z,,,blank.png,blank.png,blank.png,blank.png,blank.png,blank.png,blank.png,"[""nacho.png""]",blank.png,blank.png,blank.png,blank.png,blank.png,,,,,,,,,,,,,,,,,,,,,,,,,,,,,"[""nacho.png""]","[""celery.png""]",PB18.png,,,,,,,,,,,0,6,"[""celery.png""]","[""celery.png""]","[""celery.png""]","[""celery.png""]","[""celery.png""]","[""celery.png""]",blank.png,PB18.png,PB01.png,"[""celery.png""]","[""celery.png""]","[""celery.png""]","[""celery.png""]","[""celery.png""]","[""celery.png""]",blank.png,blank.png,blank.png,blank.png,blank.png,blank.png,1,"[""nacho.png""]",blank.png,blank.png,blank.png,0,blank.png,blank.png,blank.png,blank.png,blank.png,blank.png,PB01.png,,,,,,,,,,,1,,#33ff3f,#808080,,,,,,,,,998.9629999999888,,timeout,,,,,,,,,,,,,4,,,,,,,,,,,,,,,,,,,,,,,,,,,,,,,,,,,,,,,,,,,,,,,,,,,,,,,,,"[""celery.png""]","[""nacho.png""]",,,,6,,,false,,1,,,,,black,white,603914.6799999998,603912.581,602913.529,602916.9999999999,602930.196,603929.159,,,,
ITI_late,canvas.Screen,2_4_3_6_1_0_1_0_0_1_4,2021-01-14T18:51:13.575Z,,,blank.png,blank.png,blank.png,blank.png,blank.png,blank.png,blank.png,"[""nacho.png""]",blank.png,blank.png,blank.png,blank.png,blank.png,,,,,,,,,,,,,,,,,,,,,,,,,,,,,"[""nacho.png""]","[""celery.png""]",PB18.png,,,,,,,,,,,0,6,"[""celery.png""]","[""celery.png""]","[""celery.png""]","[""celery.png""]","[""celery.png""]","[""celery.png""]",blank.png,PB18.png,PB01.png,"[""celery.png""]","[""celery.png""]","[""celery.png""]","[""celery.png""]","[""celery.png""]","[""celery.png""]",blank.png,blank.png,blank.png,blank.png,blank.png,blank.png,1,"[""nacho.png""]",blank.png,blank.png,blank.png,0,blank.png,blank.png,blank.png,blank.png,blank.png,blank.png,PB01.png,,,,,,,,,,,1,,,,,,,,,,,,499.52700000000186,,timeout,,,,,,,,,,,,white,4,,,,,,,,,,,,,,,,,,,,,,,,,,,,,,,,,,,,,,,,,,,,,,,,,,,,,,,,,"[""celery.png""]","[""nacho.png""]",,,,6,,,false,,1,,,,,,,604413.4799999997,604412.071,603912.581,603920.055,603929.159,604428.686,,,,
choice_sequence,flow.Sequence,2_4_3_6_1_0_1_0_0_1,2021-01-14T18:51:13.576Z,,,blank.png,blank.png,blank.png,blank.png,blank.png,blank.png,blank.png,"[""nacho.png""]",blank.png,blank.png,blank.png,blank.png,blank.png,,,,,,,,,,,,,,,,,,,,,,,,,,,,,"[""nacho.png""]","[""celery.png""]",PB18.png,,,,,,,,,,,0,6,"[""celery.png""]","[""celery.png""]","[""celery.png""]","[""celery.png""]","[""celery.png""]","[""celery.png""]",blank.png,PB18.png,PB01.png,"[""celery.png""]","[""celery.png""]","[""celery.png""]","[""celery.png""]","[""celery.png""]","[""celery.png""]",blank.png,blank.png,blank.png,blank.png,blank.png,blank.png,1,"[""nacho.png""]",blank.png,blank.png,blank.png,0,blank.png,blank.png,blank.png,blank.png,blank.png,blank.png,PB01.png,,,,,,,,,,,1,,,,,,,,,,,,5527.876999999979,,completion,,,,,,,,,,,,,4,,,,,,,,,,,,,,,,,,,,,,,,,,,,,,,,,,,,,,,,,,,,,,,,,,,,,,,,,"[""celery.png""]","[""nacho.png""]",,,,6,,,false,,1,,,,,,,604414.53,604412.071,598867.572,598889.13,598884.194,604428.686,,,,
fixCross,canvas.Screen,2_4_3_6_1_0_1_0_0_2_0,2021-01-14T18:51:14.174Z,,,blank.png,"[""nacho.png""]",blank.png,blank.png,blank.png,blank.png,blank.png,blank.png,blank.png,blank.png,blank.png,blank.png,blank.png,,,,,,,,,,,,,,,,,,,,,,,,,,,,,"[""nacho.png""]","[""celery.png""]",PB17.png,,,,,,,,,,,0,6,"[""celery.png""]","[""celery.png""]","[""celery.png""]","[""celery.png""]","[""celery.png""]","[""celery.png""]",blank.png,PB18.png,PB18.png,"[""celery.png""]","[""celery.png""]","[""celery.png""]","[""celery.png""]","[""celery.png""]","[""celery.png""]","[""celery.png""]","[""celery.png""]","[""celery.png""]","[""celery.png""]","[""celery.png""]","[""celery.png""]",1,"[""nacho.png""]",blank.png,blank.png,blank.png,6,"[""celery.png""]","[""celery.png""]","[""celery.png""]","[""celery.png""]","[""celery.png""]","[""celery.png""]",PB17.png,,,,,,,,,,,1,,,,,,,,,,,,1598.5899999999674,,timeout,,,,,,,,,,,,,3,,,,,,,,,,,,,,,,,,,,,,,,,,,,,,,,,,,,,,,,,,,,,,,,,,,,,,,,,"[""celery.png""]","[""nacho.png""]",,,,6,,,false,,1,,,,,,,605013.23,605011.92,604412.071,604437.625,604428.686,606027.276,10,,,
timeout,canvas.Screen,2_4_3_6_1_0_1_0_0_2_1,2021-01-14T18:51:15.673Z,,,blank.png,"[""nacho.png""]",blank.png,blank.png,blank.png,blank.png,blank.png,blank.png,blank.png,blank.png,blank.png,blank.png,blank.png,,,,,,,,,,,,,,,,,,,,,,,,,,,,,"[""nacho.png""]","[""celery.png""]",PB17.png,,,,,,,,,,,0,6,"[""celery.png""]","[""celery.png""]","[""celery.png""]","[""celery.png""]","[""celery.png""]","[""celery.png""]",blank.png,PB18.png,PB18.png,"[""celery.png""]","[""celery.png""]","[""celery.png""]","[""celery.png""]","[""celery.png""]","[""celery.png""]","[""celery.png""]","[""celery.png""]","[""celery.png""]","[""celery.png""]","[""celery.png""]","[""celery.png""]",1,"[""nacho.png""]",blank.png,blank.png,blank.png,6,"[""celery.png""]","[""celery.png""]","[""celery.png""]","[""celery.png""]","[""celery.png""]","[""celery.png""]",PB17.png,,,,,,,,,,,1,,,,,,,,,,,,1348.5190000000875,,timeout,,,,,,,,,,,,,3,,,,,,,,,,,,,,,,,,,,,,,,,,,,,,,,,,,,,,,,,,,,,,,,,,,,,,,,,"[""celery.png""]","[""nacho.png""]",,,,6,,,false,,1,,,,,,,606512.1349999999,606510.476,605011.92,606020.2199999999,606027.276,607375.795,,,,
choice,canvas.Screen,2_4_3_6_1_0_1_0_0_2_2,2021-01-14T18:51:16.897Z,,,blank.png,"[""nacho.png""]",blank.png,blank.png,blank.png,blank.png,blank.png,blank.png,blank.png,blank.png,blank.png,blank.png,blank.png,,,,,,,,,,,,,,,,,,,,,,,,,,,,,"[""nacho.png""]","[""celery.png""]",PB17.png,,,,,,,,,,,0,6,"[""celery.png""]","[""celery.png""]","[""celery.png""]","[""celery.png""]","[""celery.png""]","[""celery.png""]",blank.png,PB18.png,PB18.png,"[""celery.png""]","[""celery.png""]","[""celery.png""]","[""celery.png""]","[""celery.png""]","[""celery.png""]","[""celery.png""]","[""celery.png""]","[""celery.png""]","[""celery.png""]","[""celery.png""]","[""celery.png""]",1,"[""nacho.png""]",blank.png,blank.png,blank.png,6,"[""celery.png""]","[""celery.png""]","[""celery.png""]","[""celery.png""]","[""celery.png""]","[""celery.png""]",PB17.png,,,,,,,,,,,1,,,,,,,,,,,,356.4199999999255,,response,,,,,,,,,,,,,3,,,,,,,,,,,,,,,,,,,,,,,,,,,,,,,,,,,,,,,,,,,,,,,,,,,,,,,,,"[""celery.png""]","[""nacho.png""]",,,,6,left,keydown(ArrowLeft),false,,1,,,,,,,607735.5399999997,607732.215,606510.476,607372.12,607375.795,608874.337,,10,,
square,canvas.Screen,2_4_3_6_1_0_1_0_0_2_3,2021-01-14T18:51:19.020Z,,,blank.png,"[""nacho.png""]",blank.png,blank.png,blank.png,blank.png,blank.png,blank.png,blank.png,blank.png,blank.png,blank.png,blank.png,,,,,,,,,,,,,,,,,,,,,,,,,,,,,"[""nacho.png""]","[""celery.png""]",PB17.png,,,,,,,,,,,0,6,"[""celery.png""]","[""celery.png""]","[""celery.png""]","[""celery.png""]","[""celery.png""]","[""celery.png""]",blank.png,PB18.png,PB18.png,"[""celery.png""]","[""celery.png""]","[""celery.png""]","[""celery.png""]","[""celery.png""]","[""celery.png""]","[""celery.png""]","[""celery.png""]","[""celery.png""]","[""celery.png""]","[""celery.png""]","[""celery.png""]",1,"[""nacho.png""]",blank.png,blank.png,blank.png,6,"[""celery.png""]","[""celery.png""]","[""celery.png""]","[""celery.png""]","[""celery.png""]","[""celery.png""]",PB17.png,,,,,,,,,,,1,,#33ff3f,#808080,,,,,,,,,998.887999999919,,timeout,,,,,,,,,,,,,3,,,,,,,,,,,,,,,,,,,,,,,,,,,,,,,,,,,,,,,,,,,,,,,,,,,,,,,,,"[""celery.png""]","[""nacho.png""]",,,,6,,,false,,1,,,,,black,white,609859.3499999997,609857.193,608841.278,608856.3899999999,608874.337,609873.225,,,,
ITI_late,canvas.Screen,2_4_3_6_1_0_1_0_0_2_4,2021-01-14T18:51:19.269Z,,,blank.png,"[""nacho.png""]",blank.png,blank.png,blank.png,blank.png,blank.png,blank.png,blank.png,blank.png,blank.png,blank.png,blank.png,,,,,,,,,,,,,,,,,,,,,,,,,,,,,"[""nacho.png""]","[""celery.png""]",PB17.png,,,,,,,,,,,0,6,"[""celery.png""]","[""celery.png""]","[""celery.png""]","[""celery.png""]","[""celery.png""]","[""celery.png""]",blank.png,PB18.png,PB18.png,"[""celery.png""]","[""celery.png""]","[""celery.png""]","[""celery.png""]","[""celery.png""]","[""celery.png""]","[""celery.png""]","[""celery.png""]","[""celery.png""]","[""celery.png""]","[""celery.png""]","[""celery.png""]",1,"[""nacho.png""]",blank.png,blank.png,blank.png,6,"[""celery.png""]","[""celery.png""]","[""celery.png""]","[""celery.png""]","[""celery.png""]","[""celery.png""]",PB17.png,,,,,,,,,,,1,,,,,,,,,,,,266.4660000000149,,timeout,,,,,,,,,,,,white,3,,,,,,,,,,,,,,,,,,,,,,,,,,,,,,,,,,,,,,,,,,,,,,,,,,,,,,,,,"[""celery.png""]","[""nacho.png""]",,,,6,,,false,,1,,,,,,,610107.8549999997,610106.423,609857.193,609864.7249999999,609873.225,610139.691,,,,
