sender,sender_type,sender_id,timestamp,meta,,Blank,DownLeft1,DownLeft2,DownLeft3,DownLeft4,DownLeft5,DownLeft6,DownRight1,DownRight2,DownRight3,DownRight4,DownRight5,DownRight6,FoodHabits_Fru_item1,FoodHabits_Fru_item2,FoodHabits_Fru_item3,FoodHabits_Fru_item4,FoodHabits_Fru_item5,FoodHabits_Fru_item6,FoodHabits_Fru_item7,FoodHabits_Meat_item1,FoodHabits_Meat_item2,FoodHabits_Meat_item3,FoodHabits_Meat_item4,FoodHabits_Meat_item5,FoodHabits_Meat_item6,FoodHabits_Meat_item7,FoodHabits_Swe_item1,FoodHabits_Swe_item2,FoodHabits_Swe_item3,FoodHabits_Swe_item4,FoodHabits_Swe_item5,FoodHabits_Swe_item6,FoodHabits_Swe_item7,FoodHabits_Veg_item1,FoodHabits_Veg_item2,FoodHabits_Veg_item3,FoodHabits_Veg_item4,FoodHabits_Veg_item5,FoodHabits_Veg_item6,FoodHabits_Veg_item7,ImgA,ImgB,LeftBar,PSS_item01,PSS_item02,PSS_item03,PSS_item04,PSS_item05,PSS_item06,PSS_item07,PSS_item08,PSS_item09,PSS_item10,RefA,RefB,RefB1,RefB2,RefB3,RefB4,RefB5,RefB6,RefB7,Ref_PB,RightBar,UpLeft1,UpLeft2,UpLeft3,UpLeft4,UpLeft5,UpLeft6,UpRight1,UpRight2,UpRight3,UpRight4,UpRight5,UpRight6,VarA,VarA1,VarA2,VarA3,VarA4,VarB,VarB1,VarB2,VarB3,VarB4,VarB5,VarB6,Var_PB,attCheck_fileA,attCheck_fileB,attCheck_fileC,attCheck_fileD,attCheck_options,attCheck_valueA,attCheck_valueB,attCheck_valueC,attCheck_valueD,attention_check,block,browser_name,choseL,choseR,consent_form1,consent_form2,consentconfirmation_form1,consentconfirmation_form2,correct,correctResponse,diet,disorder,duration,edu,ended_on,enjoy,full_version,gender,group,hunger,img,imgTask,input_age,input_meal,input_occ,input_remark,lateRespFeed,list,major_version,message,mixQ_item1,mixQ_item2,mixQ_item3,mixQ_item4,mixQ_item5,name,navigator_appName,navigator_userAgent,os,pracQ1_IDa,pracQ1_IDb,pracQ1_IDc,pracQ1_IDd,pracQ1_optionA,pracQ1_optionB,pracQ1_optionC,pracQ1_optionD,pracQ1_valueA,pracQ1_valueB,pracQ1_valueC,pracQ1_valueD,pracQ2_IDa,pracQ2_IDb,pracQ2_IDc,pracQ2_optionA,pracQ2_optionB,pracQ2_optionC,pracQ2_valueA,pracQ2_valueB,pracQ2_valueC,pracQ4_IDa,pracQ4_IDb,pracQ4_IDc,pracQ4_IDd,pracQ4_optionA,pracQ4_optionB,pracQ4_optionC,pracQ4_optionD,pracQ4_valueA,pracQ4_valueB,pracQ4_valueC,pracQ4_valueD,pracQ5_IDa,pracQ5_IDb,pracQ5_IDc,pracQ5_IDd,pracQ5_optionA,pracQ5_optionB,pracQ5_optionC,pracQ5_optionD,pracQ5_valueA,pracQ5_valueB,pracQ5_valueC,pracQ5_valueD,prefHealty,prefUnhealthy,prolific_ID,psessionID,pstudyID,rep,response,response_action,skip,snack,sublock,subtitle,task_difficulty,task_engagement,task_focus,textL,textR,time_commit,time_end,time_render,time_run,time_show,time_switch,trial_count,trial_countO,url,valence
Title,html.Page,0,2021-01-14T18:30:34.475Z,"{""labjs_version"":""20.1.1"",""labjs_build"":{""flavor"":""production"",""commit"":""c48ac4ada3769e8d34489594ab03097d5f256ac7""},""location"":""https://run.pavlovia.org/E3lab/rebund/html/?PROLIFIC_PID={{%PROLIFIC_PID%}}&STUDY_ID={{%STUDY_ID%}}&SESSION_ID={{%SESSION_ID%}}"",""userAgent"":""Mozilla/5.0 (Windows NT 6.1; Win64; x64) AppleWebKit/537.36 (KHTML, like Gecko) Chrome/87.0.4280.141 Safari/537.36"",""platform"":""Win32"",""language"":""pl-PL"",""locale"":""pl"",""timeZone"":""Europe/Warsaw"",""timezoneOffset"":-60,""screen_width"":1366,""screen_height"":768,""scroll_width"":1366,""scroll_height"":577,""window_innerWidth"":1366,""window_innerHeight"":625,""devicePixelRatio"":1}",,,,,,,,,,,,,,,,,,,,,,,,,,,,,,,,,,,,,,,,,,,,,,,,,,,,,,,,,,,,,,,,,,,,,,,,,,,,,,,,,,,,,,,,,,,,,,,,,,,,,,,,,,,,,,,,,,13173.82299999997,,form submission,,,,,,,,,,,,,,,,,,,,,,,,,,,,,,,,,,,,,,,,,,,,,,,,,,,,,,,,,,,,,,,,,,,,,,,,,,,,,,,,,,,,,,,17013.824999999997,17012.70999999997,3655.412,3813.7400000000525,3838.887,17034.217,,,"{""PROLIFIC_PID"":""{{%PROLIFIC_PID%}}"",""STUDY_ID"":""{{%STUDY_ID%}}"",""SESSION_ID"":""{{%SESSION_ID%}}""}",
get_systemInfo,canvas.Screen,1,2021-01-14T18:30:34.503Z,,,,,,,,,,,,,,,,,,,,,,,,,,,,,,,,,,,,,,,,,,,,,,,,,,,,,,,,,,,,,,,,,,,,,,,,,,,,,,,,,,,,,,,,,,,,,,,,,,,,,,,,Chrome,,,,,,,,,,,58656.611999999994,,timeout,,87.0.4280.141,,,,,,,,,,,,87,,,,,,,,Netscape,"Mozilla/5.0 (Windows NT 6.1; Win64; x64) AppleWebKit/537.36 (KHTML, like Gecko) Chrome/87.0.4280.141 Safari/537.36",Windows,,,,,,,,,,,,,,,,,,,,,,,,,,,,,,,,,,,,,,,,,,,,,,,,{{%PROLIFIC_PID%}},,{{%STUDY_ID%}},,,,,,,,,,,,,17041.56499999999,17040.920000000144,17000.855,17019.17000000003,17034.217,75690.829,,,,
ConsentForm,html.Form,2_0,2021-01-14T18:32:38.857Z,,,,,,,,,,,,,,,,,,,,,,,,,,,,,,,,,,,,,,,,,,,,,,,,,,,,,,,,,,,,,,,,,,,,,,,,,,,,,,,,,,,,,,,,,,,,,,,,,,,,,,,,,,,true,true,,,,,,,65701.8710000001,,form submission,,,,,,,,,,,,,,,,,,,,,,,,,,,,,,,,,,,,,,,,,,,,,,,,,,,,,,,,,,,,,,,,,,,,,,,,,,,,,,,,,,,,,,,141393.1050000001,141392.7000000001,17040.920000000144,75680.84999999996,75690.829,141397.438,,,,
PepTalk,html.Page,2_1,2021-01-14T18:33:39.714Z,,,,,,,,,,,,,,,,,,,,,,,,,,,,,,,,,,,,,,,,,,,,,,,,,,,,,,,,,,,,,,,,,,,,,,,,,,,,,,,,,,,,,,,,,,,,,,,,,,,,,,,,,,,,,,,,,,,60851.22700000007,,form submission,,,,,,,,,,,,,,,,,,,,,,,,,,,,,,,,,,,,,,,,,,,,,,,,,,,,,,,,,,,,,,,,,,,,,,,,,,,,,,,,,,,,,,,202249.15499999997,202248.66500000007,141380.757,141393.39500000005,141397.438,202269.512,,,,
Demographics,html.Form,2_2,2021-01-14T18:35:25.694Z,,,,,,,,,,,,,,,,,,,,,,,,,,,,,,,,,,,,,,,,,,,,,,,,,,,,,,,,,,,,,,,,,,,,,,,,,,,,,,,,,,,,,,,,,,,,,,,,,,,,,,,,,,,,,,,,,,,105959.30300000019,3,form submission,,,2,,,,,25,,accountant,,,,,,,,,,,,,,,,,,,,,,,,,,,,,,,,,,,,,,,,,,,,,,,,,,,,,,,,,,,,,,,,,,,,,,,,,,,,,308229.19,308228.8150000002,202236.15,202249.43000000008,202269.512,308232.64,,,,
InclusionCrit,html.Form,2_3,2021-01-14T18:36:23.243Z,,,,,,,,,,,,,,,,,,,,,,,,,,,,,,,,,,,,,,,,,,,,,,,,,,,,,,,,,,,,,,,,,,,,,,,,,,,,,,,,,,,,,,,,,,,,,,,,,,,,,,,,,,,,,,,,,0,0,57543.490000000165,,form submission,1,,,,,,,,,,,,,,,,,,,,,,,,,,,,,,,,,,,,,,,,,,,,,,,,,,,,,,,,,,,,,,,,,,,,,,,,,,,,,,,,,,,,,,365776.57,365776.1300000002,308215.959,308229.505,308232.64,365785.025,,,,
Selection,html.Page,2_4_0,2021-01-14T18:36:35.535Z,,,,,,,,,,,,,,,,,,,,,,,,,,,,,,,,,,,,,,,,,,,,,,,,,,,,,,,,,,,,,,,,,,,,,,,,,,,,,,,,,,,,,,,,,,,,,,,,,,,,,,,,,,,,,,,,,,,12283.044999999984,,form submission,,,,,,,,,,,,,,,,,,,,,,,,,,,,,,,,,,,,,,,,,,,,,,,,,,,,,,,,,,,,,,,,,,,,,,,,,,,,,,,1,,,,,,,,378068.575,378068.07,365768.344,365776.91000000003,365785.025,378079.553,,,,
Load,html.Page,2_4_1,2021-01-14T18:36:35.553Z,,,,,,,,,,,,,,,,,,,,,,,,,,,,,,,,,,,,,,,,,,,,,,,,,,,,,,,,,,,,,,,,,,,,,,,,,,,,,,,,,,,,,,,,,,,,,,,,,,,,,,,,,,,,,,,,,,,87946.739,,timeout,,,,,,,,,,,,,,,,,,,,,,,,,,,,,,,,,,,,,,,,,,,,,,,,,,,,,,,,,,,,,,,,,,,,,,,,,,,,,,,,,,,,,,,378086.8600000001,378086.4100000001,378062.872,378068.9950000001,378079.553,466026.292,,,,
SequenceSweet,flow.Sequence,2_4_2,2021-01-14T18:37:30.975Z,,,,,,,,,,,,,,,,,,,,,,,,,,,,,,,,,,,,,,,,,,,,,,,,,,,,,,,,,,,,,,,,,,,,,,,,,,,,,,,,,,,,,,,,,,,,,,,,,,,,,,,,,,,,,,,,,,,NaN,,skipped,,,,,,,,,,,,,,,,,,,,,,,,,,,,,,,,,,,,,,,,,,,,,,,,,,,,,,,,,,,,,,,,,,,,,,,,,,,,,,true,,,,,,,,,433507.5300000001,378086.4100000001,,433506.9500000002,,466026.292,0,0,,
ratings_instructions,html.Screen,2_4_3_0,2021-01-14T18:39:06.426Z,,,,,,,,,,,,,,,,,,,,,,,,,,,,,,,,,,,,,,,,,,,,,,,,,,,,,,,,,,,,,,,,,,,,,,,,,,,,,,,,,,,,,,,,,,,,,,,,,,,,,,,,,,,,,,,,,,,62926.04300000018,,response,,,,,,,,,,,,,,,,,,,,,,,,,,,,,,,,,,,,,,,,,,,,,,,,,,,,,,,,,,,,,,,,,,,,,,,,,,,,continue,keypress(Space),false,,,,,,,,,528957.1700000002,528952.3350000002,378086.4100000001,466066.8350000001,466026.292,528963.713,0,0,,
fixCross,canvas.Screen,2_4_3_1_0_0,2021-01-14T18:39:06.921Z,,,,,,,,,,,,,,,,,,,,,,,,,,,,,,,,,,,,,,,,,,,,,,,,,,,,,,,,,,,,,,,,,,,,,,,,,,,,,,,,,,,,,,,,,,,,,,,,,,,,,,,,,,,,,,,,,,,502.6110000000335,,timeout,,,,unhealthy,,sausage.png,,,,,,,,,,,,,,,salami,,,,,,,,,,,,,,,,,,,,,,,,,,,,,,,,,,,,,,,,,,,,,,,,,,,,,,,,,false,,,,,,,,,529451.81,529449.643,528947.032,528958.6300000001,528963.713,529466.324,,,,
Rating,html.Form,2_4_3_1_0_1,2021-01-14T18:39:13.042Z,,,,,,,,,,,,,,,,,,,,,,,,,,,,,,,,,,,,,,,,,,,,,,,,,,,,,,,,,,,,,,,,,,,,,,,,,,,,,,,,,,,,,,,,,,,,,,,,,,,,,,,,,,,,,,,,,,,6106.276000000187,,form submission,,,,unhealthy,,sausage.png,,,,,,,,,,,,,,,salami,,,,,,,,,,,,,,,,,,,,,,,,,,,,,,,,,,,,,,,,,,,,,,,,,,,,,,,,,false,,,,,,,,,535573.0700000002,535572.6000000002,529449.643,529452.15,529466.324,535572.915,,,,71
rating_sequence,flow.Sequence,2_4_3_1_0,2021-01-14T18:39:13.043Z,,,,,,,,,,,,,,,,,,,,,,,,,,,,,,,,,,,,,,,,,,,,,,,,,,,,,,,,,,,,,,,,,,,,,,,,,,,,,,,,,,,,,,,,,,,,,,,,,,,,,,,,,,,,,,,,,,,6608.887000000221,,completion,,,,unhealthy,,sausage.png,,,,,,,,,,,,,,,salami,,,,,,,,,,,,,,,,,,,,,,,,,,,,,,,,,,,,,,,,,,,,,,,,,,,,,,,,,false,,,,,,,,,535573.7450000001,535572.6000000002,528947.032,528958.5300000001,528963.713,535572.915,,,,
fixCross,canvas.Screen,2_4_3_1_1_0,2021-01-14T18:39:13.527Z,,,,,,,,,,,,,,,,,,,,,,,,,,,,,,,,,,,,,,,,,,,,,,,,,,,,,,,,,,,,,,,,,,,,,,,,,,,,,,,,,,,,,,,,,,,,,,,,,,,,,,,,,,,,,,,,,,,500.4529999999795,,timeout,,,,healthy,,pickle.png,,,,,,,,,,,,,,,pickle,,,,,,,,,,,,,,,,,,,,,,,,,,,,,,,,,,,,,,,,,,,,,,,,,,,,,,,,,false,,,,,,,,,536058.1300000001,536056.687,535556.234,535574.0400000002,535572.915,536073.368,,,,
Rating,html.Form,2_4_3_1_1_1,2021-01-14T18:39:15.824Z,,,,,,,,,,,,,,,,,,,,,,,,,,,,,,,,,,,,,,,,,,,,,,,,,,,,,,,,,,,,,,,,,,,,,,,,,,,,,,,,,,,,,,,,,,,,,,,,,,,,,,,,,,,,,,,,,,,2281.496999999974,,form submission,,,,healthy,,pickle.png,,,,,,,,,,,,,,,pickle,,,,,,,,,,,,,,,,,,,,,,,,,,,,,,,,,,,,,,,,,,,,,,,,,,,,,,,,,false,,,,,,,,,538355.1550000001,538354.865,536056.687,536058.3600000002,536073.368,538358.794,,,,0
rating_sequence,flow.Sequence,2_4_3_1_1,2021-01-14T18:39:15.824Z,,,,,,,,,,,,,,,,,,,,,,,,,,,,,,,,,,,,,,,,,,,,,,,,,,,,,,,,,,,,,,,,,,,,,,,,,,,,,,,,,,,,,,,,,,,,,,,,,,,,,,,,,,,,,,,,,,,2781.9499999999534,,completion,,,,healthy,,pickle.png,,,,,,,,,,,,,,,pickle,,,,,,,,,,,,,,,,,,,,,,,,,,,,,,,,,,,,,,,,,,,,,,,,,,,,,,,,,false,,,,,,,,,538355.4600000002,538354.865,535556.234,535573.9650000001,535572.915,538358.794,,,,
fixCross,canvas.Screen,2_4_3_1_2_0,2021-01-14T18:39:16.316Z,,,,,,,,,,,,,,,,,,,,,,,,,,,,,,,,,,,,,,,,,,,,,,,,,,,,,,,,,,,,,,,,,,,,,,,,,,,,,,,,,,,,,,,,,,,,,,,,,,,,,,,,,,,,,,,,,,,500.4749999999767,,timeout,,,,unhealthy,,peanut_cracker.png,,,,,,,,,,,,,,,peanut chip,,,,,,,,,,,,,,,,,,,,,,,,,,,,,,,,,,,,,,,,,,,,,,,,,,,,,,,,,false,,,,,,,,,538846.7500000001,538842.587,538342.113,538355.6900000001,538358.794,538859.269,,,,
Rating,html.Form,2_4_3_1_2_1,2021-01-14T18:39:21.828Z,,,,,,,,,,,,,,,,,,,,,,,,,,,,,,,,,,,,,,,,,,,,,,,,,,,,,,,,,,,,,,,,,,,,,,,,,,,,,,,,,,,,,,,,,,,,,,,,,,,,,,,,,,,,,,,,,,,5498.771000000066,,form submission,,,,unhealthy,,peanut_cracker.png,,,,,,,,,,,,,,,peanut chip,,,,,,,,,,,,,,,,,,,,,,,,,,,,,,,,,,,,,,,,,,,,,,,,,,,,,,,,,false,,,,,,,,,544358.5900000001,544358.04,538842.587,538847.2050000001,538859.269,544364.284,,,,100
rating_sequence,flow.Sequence,2_4_3_1_2,2021-01-14T18:39:21.828Z,,,,,,,,,,,,,,,,,,,,,,,,,,,,,,,,,,,,,,,,,,,,,,,,,,,,,,,,,,,,,,,,,,,,,,,,,,,,,,,,,,,,,,,,,,,,,,,,,,,,,,,,,,,,,,,,,,,5999.246000000043,,completion,,,,unhealthy,,peanut_cracker.png,,,,,,,,,,,,,,,peanut chip,,,,,,,,,,,,,,,,,,,,,,,,,,,,,,,,,,,,,,,,,,,,,,,,,,,,,,,,,false,,,,,,,,,544359.1050000002,544358.04,538342.113,538355.63,538358.794,544364.284,,,,
fixCross,canvas.Screen,2_4_3_1_3_0,2021-01-14T18:39:22.318Z,,,,,,,,,,,,,,,,,,,,,,,,,,,,,,,,,,,,,,,,,,,,,,,,,,,,,,,,,,,,,,,,,,,,,,,,,,,,,,,,,,,,,,,,,,,,,,,,,,,,,,,,,,,,,,,,,,,500.4189999999944,,timeout,,,,healthy,,celery.png,,,,,,,,,,,,,,,celery,,,,,,,,,,,,,,,,,,,,,,,,,,,,,,,,,,,,,,,,,,,,,,,,,,,,,,,,,false,,,,,,,,,544849.435,544848.022,544347.602,544359.4900000001,544364.284,544864.703,,,,
Rating,html.Form,2_4_3_1_3_1,2021-01-14T18:39:35.246Z,,,,,,,,,,,,,,,,,,,,,,,,,,,,,,,,,,,,,,,,,,,,,,,,,,,,,,,,,,,,,,,,,,,,,,,,,,,,,,,,,,,,,,,,,,,,,,,,,,,,,,,,,,,,,,,,,,,12911.942000000156,,form submission,,,,healthy,,celery.png,,,,,,,,,,,,,,,celery,,,,,,,,,,,,,,,,,,,,,,,,,,,,,,,,,,,,,,,,,,,,,,,,,,,,,,,,,false,,,,,,,,,557776.9900000001,557776.6450000001,544848.022,544849.68,544864.703,557776.449,,,,0
rating_sequence,flow.Sequence,2_4_3_1_3,2021-01-14T18:39:35.246Z,,,,,,,,,,,,,,,,,,,,,,,,,,,,,,,,,,,,,,,,,,,,,,,,,,,,,,,,,,,,,,,,,,,,,,,,,,,,,,,,,,,,,,,,,,,,,,,,,,,,,,,,,,,,,,,,,,,13412.36100000015,,completion,,,,healthy,,celery.png,,,,,,,,,,,,,,,celery,,,,,,,,,,,,,,,,,,,,,,,,,,,,,,,,,,,,,,,,,,,,,,,,,,,,,,,,,false,,,,,,,,,557777.4000000001,557776.6450000001,544347.602,544359.3900000001,544364.284,557776.449,,,,
fixCross,canvas.Screen,2_4_3_1_4_0,2021-01-14T18:39:35.731Z,,,,,,,,,,,,,,,,,,,,,,,,,,,,,,,,,,,,,,,,,,,,,,,,,,,,,,,,,,,,,,,,,,,,,,,,,,,,,,,,,,,,,,,,,,,,,,,,,,,,,,,,,,,,,,,,,,,500.4660000000149,,timeout,,,,unhealthy,,ham.png,,,,,,,,,,,,,,,ham,,,,,,,,,,,,,,,,,,,,,,,,,,,,,,,,,,,,,,,,,,,,,,,,,,,,,,,,,false,,,,,,,,,558261.7000000001,558260.234,557759.768,557777.675,557776.449,558276.915,,,,
Rating,html.Form,2_4_3_1_4_1,2021-01-14T18:39:38.555Z,,,,,,,,,,,,,,,,,,,,,,,,,,,,,,,,,,,,,,,,,,,,,,,,,,,,,,,,,,,,,,,,,,,,,,,,,,,,,,,,,,,,,,,,,,,,,,,,,,,,,,,,,,,,,,,,,,,2808.75,,form submission,,,,unhealthy,,ham.png,,,,,,,,,,,,,,,ham,,,,,,,,,,,,,,,,,,,,,,,,,,,,,,,,,,,,,,,,,,,,,,,,,,,,,,,,,false,,,,,,,,,561086.0300000001,561085.665,558260.234,558261.9400000001,558276.915,561096.166,,,,100
rating_sequence,flow.Sequence,2_4_3_1_4,2021-01-14T18:39:38.555Z,,,,,,,,,,,,,,,,,,,,,,,,,,,,,,,,,,,,,,,,,,,,,,,,,,,,,,,,,,,,,,,,,,,,,,,,,,,,,,,,,,,,,,,,,,,,,,,,,,,,,,,,,,,,,,,,,,,3309.216000000015,,completion,,,,unhealthy,,ham.png,,,,,,,,,,,,,,,ham,,,,,,,,,,,,,,,,,,,,,,,,,,,,,,,,,,,,,,,,,,,,,,,,,,,,,,,,,false,,,,,,,,,561086.395,561085.665,557759.768,557777.6050000002,557776.449,561096.166,,,,
fixCross,canvas.Screen,2_4_3_1_5_0,2021-01-14T18:39:39.050Z,,,,,,,,,,,,,,,,,,,,,,,,,,,,,,,,,,,,,,,,,,,,,,,,,,,,,,,,,,,,,,,,,,,,,,,,,,,,,,,,,,,,,,,,,,,,,,,,,,,,,,,,,,,,,,,,,,,500.4340000000084,,timeout,,,,healthy,,radish.png,,,,,,,,,,,,,,,radish,,,,,,,,,,,,,,,,,,,,,,,,,,,,,,,,,,,,,,,,,,,,,,,,,,,,,,,,,false,,,,,,,,,561580.8400000001,561579.919,561079.485,561086.6950000002,561096.166,561596.6,,,,
Rating,html.Form,2_4_3_1_5_1,2021-01-14T18:39:41.859Z,,,,,,,,,,,,,,,,,,,,,,,,,,,,,,,,,,,,,,,,,,,,,,,,,,,,,,,,,,,,,,,,,,,,,,,,,,,,,,,,,,,,,,,,,,,,,,,,,,,,,,,,,,,,,,,,,,,2792.9700000000885,,form submission,,,,healthy,,radish.png,,,,,,,,,,,,,,,radish,,,,,,,,,,,,,,,,,,,,,,,,,,,,,,,,,,,,,,,,,,,,,,,,,,,,,,,,,false,,,,,,,,,564389.8100000002,564389.5700000001,561579.919,561581.1000000001,561596.6,564399.172,,,,0
rating_sequence,flow.Sequence,2_4_3_1_5,2021-01-14T18:39:41.859Z,,,,,,,,,,,,,,,,,,,,,,,,,,,,,,,,,,,,,,,,,,,,,,,,,,,,,,,,,,,,,,,,,,,,,,,,,,,,,,,,,,,,,,,,,,,,,,,,,,,,,,,,,,,,,,,,,,,3293.404000000097,,completion,,,,healthy,,radish.png,,,,,,,,,,,,,,,radish,,,,,,,,,,,,,,,,,,,,,,,,,,,,,,,,,,,,,,,,,,,,,,,,,,,,,,,,,false,,,,,,,,,564390.03,564389.5700000001,561079.485,561086.5900000001,561096.166,564399.172,,,,
fixCross,canvas.Screen,2_4_3_1_6_0,2021-01-14T18:39:42.354Z,,,,,,,,,,,,,,,,,,,,,,,,,,,,,,,,,,,,,,,,,,,,,,,,,,,,,,,,,,,,,,,,,,,,,,,,,,,,,,,,,,,,,,,,,,,,,,,,,,,,,,,,,,,,,,,,,,,500.4320000000298,,timeout,,,,unhealthy,,chips.png,,,,,,,,,,,,,,,potato chip,,,,,,,,,,,,,,,,,,,,,,,,,,,,,,,,,,,,,,,,,,,,,,,,,,,,,,,,,false,,,,,,,,,564885.035,564882.923,564382.491,564390.6950000001,564399.172,564899.604,,,,
Rating,html.Form,2_4_3_1_6_1,2021-01-14T18:39:44.595Z,,,,,,,,,,,,,,,,,,,,,,,,,,,,,,,,,,,,,,,,,,,,,,,,,,,,,,,,,,,,,,,,,,,,,,,,,,,,,,,,,,,,,,,,,,,,,,,,,,,,,,,,,,,,,,,,,,,2225.5710000001127,,form submission,,,,unhealthy,,chips.png,,,,,,,,,,,,,,,potato chip,,,,,,,,,,,,,,,,,,,,,,,,,,,,,,,,,,,,,,,,,,,,,,,,,,,,,,,,,false,,,,,,,,,567125.6400000002,567125.1750000002,564882.923,564885.3750000001,564899.604,567151.674,,,,100
rating_sequence,flow.Sequence,2_4_3_1_6,2021-01-14T18:39:44.595Z,,,,,,,,,,,,,,,,,,,,,,,,,,,,,,,,,,,,,,,,,,,,,,,,,,,,,,,,,,,,,,,,,,,,,,,,,,,,,,,,,,,,,,,,,,,,,,,,,,,,,,,,,,,,,,,,,,,2726.0030000001425,,completion,,,,unhealthy,,chips.png,,,,,,,,,,,,,,,potato chip,,,,,,,,,,,,,,,,,,,,,,,,,,,,,,,,,,,,,,,,,,,,,,,,,,,,,,,,,false,,,,,,,,,567126.275,567125.1750000002,564382.491,564390.6400000001,564399.172,567151.674,,,,
fixCross,canvas.Screen,2_4_3_1_7_0,2021-01-14T18:39:45.105Z,,,,,,,,,,,,,,,,,,,,,,,,,,,,,,,,,,,,,,,,,,,,,,,,,,,,,,,,,,,,,,,,,,,,,,,,,,,,,,,,,,,,,,,,,,,,,,,,,,,,,,,,,,,,,,,,,,,500.47400000004563,,timeout,,,,healthy,,cucumber.png,,,,,,,,,,,,,,,cucumber,,,,,,,,,,,,,,,,,,,,,,,,,,,,,,,,,,,,,,,,,,,,,,,,,,,,,,,,,false,,,,,,,,,567636.25,567635.466,567134.993,567126.6300000002,567151.674,567652.148,,,,
Rating,html.Form,2_4_3_1_7_1,2021-01-14T18:39:47.417Z,,,,,,,,,,,,,,,,,,,,,,,,,,,,,,,,,,,,,,,,,,,,,,,,,,,,,,,,,,,,,,,,,,,,,,,,,,,,,,,,,,,,,,,,,,,,,,,,,,,,,,,,,,,,,,,,,,,2295.6770000001416,,form submission,,,,healthy,,cucumber.png,,,,,,,,,,,,,,,cucumber,,,,,,,,,,,,,,,,,,,,,,,,,,,,,,,,,,,,,,,,,,,,,,,,,,,,,,,,,false,,,,,,,,,569948.18,569947.8250000002,567635.466,567636.4600000002,567652.148,569954.22,,,,0
rating_sequence,flow.Sequence,2_4_3_1_7,2021-01-14T18:39:47.418Z,,,,,,,,,,,,,,,,,,,,,,,,,,,,,,,,,,,,,,,,,,,,,,,,,,,,,,,,,,,,,,,,,,,,,,,,,,,,,,,,,,,,,,,,,,,,,,,,,,,,,,,,,,,,,,,,,,,2796.151000000187,,completion,,,,healthy,,cucumber.png,,,,,,,,,,,,,,,cucumber,,,,,,,,,,,,,,,,,,,,,,,,,,,,,,,,,,,,,,,,,,,,,,,,,,,,,,,,,false,,,,,,,,,569948.5850000001,569947.8250000002,567134.993,567126.5250000001,567151.674,569954.22,,,,
fixCross,canvas.Screen,2_4_3_1_8_0,2021-01-14T18:39:47.908Z,,,,,,,,,,,,,,,,,,,,,,,,,,,,,,,,,,,,,,,,,,,,,,,,,,,,,,,,,,,,,,,,,,,,,,,,,,,,,,,,,,,,,,,,,,,,,,,,,,,,,,,,,,,,,,,,,,,500.4470000000438,,timeout,,,,healthy,,carrot.png,,,,,,,,,,,,,,,carrot,,,,,,,,,,,,,,,,,,,,,,,,,,,,,,,,,,,,,,,,,,,,,,,,,,,,,,,,,false,,,,,,,,,570439.21,570437.986,569937.539,569948.875,569954.22,570454.667,,,,
Rating,html.Form,2_4_3_1_8_1,2021-01-14T18:39:53.179Z,,,,,,,,,,,,,,,,,,,,,,,,,,,,,,,,,,,,,,,,,,,,,,,,,,,,,,,,,,,,,,,,,,,,,,,,,,,,,,,,,,,,,,,,,,,,,,,,,,,,,,,,,,,,,,,,,,,5254.783000000054,,form submission,,,,healthy,,carrot.png,,,,,,,,,,,,,,,carrot,,,,,,,,,,,,,,,,,,,,,,,,,,,,,,,,,,,,,,,,,,,,,,,,,,,,,,,,,false,,,,,,,,,575709.9500000002,575709.4500000001,570437.986,570439.425,570454.667,575709.469,,,,77
rating_sequence,flow.Sequence,2_4_3_1_8,2021-01-14T18:39:53.179Z,,,,,,,,,,,,,,,,,,,,,,,,,,,,,,,,,,,,,,,,,,,,,,,,,,,,,,,,,,,,,,,,,,,,,,,,,,,,,,,,,,,,,,,,,,,,,,,,,,,,,,,,,,,,,,,,,,,5755.230000000098,,completion,,,,healthy,,carrot.png,,,,,,,,,,,,,,,carrot,,,,,,,,,,,,,,,,,,,,,,,,,,,,,,,,,,,,,,,,,,,,,,,,,,,,,,,,,false,,,,,,,,,575710.28,575709.4500000001,569937.539,569948.8050000002,569954.22,575709.469,,,,
fixCross,canvas.Screen,2_4_3_1_9_0,2021-01-14T18:39:53.663Z,,,,,,,,,,,,,,,,,,,,,,,,,,,,,,,,,,,,,,,,,,,,,,,,,,,,,,,,,,,,,,,,,,,,,,,,,,,,,,,,,,,,,,,,,,,,,,,,,,,,,,,,,,,,,,,,,,,500.43499999993946,,timeout,,,,healthy,,cashew.png,,,,,,,,,,,,,,,cashew,,,,,,,,,,,,,,,,,,,,,,,,,,,,,,,,,,,,,,,,,,,,,,,,,,,,,,,,,false,,,,,,,,,576194.5150000001,576193.223,575692.788,575710.5450000002,575709.469,576209.904,,,,
Rating,html.Form,2_4_3_1_9_1,2021-01-14T18:40:07.319Z,,,,,,,,,,,,,,,,,,,,,,,,,,,,,,,,,,,,,,,,,,,,,,,,,,,,,,,,,,,,,,,,,,,,,,,,,,,,,,,,,,,,,,,,,,,,,,,,,,,,,,,,,,,,,,,,,,,13638.971000000136,,form submission,,,,healthy,,cashew.png,,,,,,,,,,,,,,,cashew,,,,,,,,,,,,,,,,,,,,,,,,,,,,,,,,,,,,,,,,,,,,,,,,,,,,,,,,,false,,,,,,,,,589849.2000000001,589848.8750000001,576193.223,576194.7650000001,576209.904,589872.358,,,,80
rating_sequence,flow.Sequence,2_4_3_1_9,2021-01-14T18:40:07.320Z,,,,,,,,,,,,,,,,,,,,,,,,,,,,,,,,,,,,,,,,,,,,,,,,,,,,,,,,,,,,,,,,,,,,,,,,,,,,,,,,,,,,,,,,,,,,,,,,,,,,,,,,,,,,,,,,,,,14139.406000000075,,completion,,,,healthy,,cashew.png,,,,,,,,,,,,,,,cashew,,,,,,,,,,,,,,,,,,,,,,,,,,,,,,,,,,,,,,,,,,,,,,,,,,,,,,,,,false,,,,,,,,,589849.5300000001,589848.8750000001,575692.788,575710.4700000002,575709.469,589872.358,,,,
fixCross,canvas.Screen,2_4_3_1_10_0,2021-01-14T18:40:07.827Z,,,,,,,,,,,,,,,,,,,,,,,,,,,,,,,,,,,,,,,,,,,,,,,,,,,,,,,,,,,,,,,,,,,,,,,,,,,,,,,,,,,,,,,,,,,,,,,,,,,,,,,,,,,,,,,,,,,500.43700000003446,,timeout,,,,healthy,,tomato.png,,,,,,,,,,,,,,,cherry tomato,,,,,,,,,,,,,,,,,,,,,,,,,,,,,,,,,,,,,,,,,,,,,,,,,,,,,,,,,false,,,,,,,,,590357.2250000002,590356.114,589855.677,589849.78,589872.358,590372.795,,,,
Rating,html.Form,2_4_3_1_10_1,2021-01-14T18:40:11.467Z,,,,,,,,,,,,,,,,,,,,,,,,,,,,,,,,,,,,,,,,,,,,,,,,,,,,,,,,,,,,,,,,,,,,,,,,,,,,,,,,,,,,,,,,,,,,,,,,,,,,,,,,,,,,,,,,,,,3623.465000000084,,form submission,,,,healthy,,tomato.png,,,,,,,,,,,,,,,cherry tomato,,,,,,,,,,,,,,,,,,,,,,,,,,,,,,,,,,,,,,,,,,,,,,,,,,,,,,,,,false,,,,,,,,,593996.6550000001,593996.2600000001,590356.114,590357.5900000001,590372.795,594009.452,,,,18
rating_sequence,flow.Sequence,2_4_3_1_10,2021-01-14T18:40:11.467Z,,,,,,,,,,,,,,,,,,,,,,,,,,,,,,,,,,,,,,,,,,,,,,,,,,,,,,,,,,,,,,,,,,,,,,,,,,,,,,,,,,,,,,,,,,,,,,,,,,,,,,,,,,,,,,,,,,,4123.902000000118,,completion,,,,healthy,,tomato.png,,,,,,,,,,,,,,,cherry tomato,,,,,,,,,,,,,,,,,,,,,,,,,,,,,,,,,,,,,,,,,,,,,,,,,,,,,,,,,false,,,,,,,,,593997.0400000002,593996.2600000001,589855.677,589849.7050000001,589872.358,594009.452,,,,
fixCross,canvas.Screen,2_4_3_1_11_0,2021-01-14T18:40:11.965Z,,,,,,,,,,,,,,,,,,,,,,,,,,,,,,,,,,,,,,,,,,,,,,,,,,,,,,,,,,,,,,,,,,,,,,,,,,,,,,,,,,,,,,,,,,,,,,,,,,,,,,,,,,,,,,,,,,,500.4780000000028,,timeout,,,,unhealthy,,bretzel.png,,,,,,,,,,,,,,,bretzel,,,,,,,,,,,,,,,,,,,,,,,,,,,,,,,,,,,,,,,,,,,,,,,,,,,,,,,,,false,,,,,,,,,594494.6750000002,594493.248,593992.771,593997.3300000002,594009.452,594509.93,,,,
Rating,html.Form,2_4_3_1_11_1,2021-01-14T18:40:18.238Z,,,,,,,,,,,,,,,,,,,,,,,,,,,,,,,,,,,,,,,,,,,,,,,,,,,,,,,,,,,,,,,,,,,,,,,,,,,,,,,,,,,,,,,,,,,,,,,,,,,,,,,,,,,,,,,,,,,6257.810000000172,,form submission,,,,unhealthy,,bretzel.png,,,,,,,,,,,,,,,bretzel,,,,,,,,,,,,,,,,,,,,,,,,,,,,,,,,,,,,,,,,,,,,,,,,,,,,,,,,,false,,,,,,,,,600768.0950000001,600767.7400000002,594493.248,594494.9100000001,594509.93,600798.955,,,,88
rating_sequence,flow.Sequence,2_4_3_1_11,2021-01-14T18:40:18.239Z,,,,,,,,,,,,,,,,,,,,,,,,,,,,,,,,,,,,,,,,,,,,,,,,,,,,,,,,,,,,,,,,,,,,,,,,,,,,,,,,,,,,,,,,,,,,,,,,,,,,,,,,,,,,,,,,,,,6758.288000000175,,completion,,,,unhealthy,,bretzel.png,,,,,,,,,,,,,,,bretzel,,,,,,,,,,,,,,,,,,,,,,,,,,,,,,,,,,,,,,,,,,,,,,,,,,,,,,,,,false,,,,,,,,,600768.6150000002,600767.7400000002,593992.771,593997.2400000001,594009.452,600798.955,,,,
fixCross,canvas.Screen,2_4_3_1_12_0,2021-01-14T18:40:18.754Z,,,,,,,,,,,,,,,,,,,,,,,,,,,,,,,,,,,,,,,,,,,,,,,,,,,,,,,,,,,,,,,,,,,,,,,,,,,,,,,,,,,,,,,,,,,,,,,,,,,,,,,,,,,,,,,,,,,500.4910000000382,,timeout,,,,unhealthy,,nacho.png,,,,,,,,,,,,,,,nacho,,,,,,,,,,,,,,,,,,,,,,,,,,,,,,,,,,,,,,,,,,,,,,,,,,,,,,,,,false,,,,,,,,,601283.5650000002,601282.764,600782.275,600768.8850000001,600798.955,601299.446,,,,
Rating,html.Form,2_4_3_1_12_1,2021-01-14T18:40:21.232Z,,,,,,,,,,,,,,,,,,,,,,,,,,,,,,,,,,,,,,,,,,,,,,,,,,,,,,,,,,,,,,,,,,,,,,,,,,,,,,,,,,,,,,,,,,,,,,,,,,,,,,,,,,,,,,,,,,,2462.1890000001295,,form submission,,,,unhealthy,,nacho.png,,,,,,,,,,,,,,,nacho,,,,,,,,,,,,,,,,,,,,,,,,,,,,,,,,,,,,,,,,,,,,,,,,,,,,,,,,,false,,,,,,,,,603762.0100000001,603761.6350000001,601282.764,601283.795,601299.446,603768.349,,,,100
rating_sequence,flow.Sequence,2_4_3_1_12,2021-01-14T18:40:21.232Z,,,,,,,,,,,,,,,,,,,,,,,,,,,,,,,,,,,,,,,,,,,,,,,,,,,,,,,,,,,,,,,,,,,,,,,,,,,,,,,,,,,,,,,,,,,,,,,,,,,,,,,,,,,,,,,,,,,2962.6800000001676,,completion,,,,unhealthy,,nacho.png,,,,,,,,,,,,,,,nacho,,,,,,,,,,,,,,,,,,,,,,,,,,,,,,,,,,,,,,,,,,,,,,,,,,,,,,,,,false,,,,,,,,,603762.2450000001,603761.6350000001,600782.275,600768.81,600798.955,603768.349,,,,
fixCross,canvas.Screen,2_4_3_1_13_0,2021-01-14T18:40:21.724Z,,,,,,,,,,,,,,,,,,,,,,,,,,,,,,,,,,,,,,,,,,,,,,,,,,,,,,,,,,,,,,,,,,,,,,,,,,,,,,,,,,,,,,,,,,,,,,,,,,,,,,,,,,,,,,,,,,,500.4329999999609,,timeout,,,,healthy,,edamame.png,,,,,,,,,,,,,,,edamame,,,,,,,,,,,,,,,,,,,,,,,,,,,,,,,,,,,,,,,,,,,,,,,,,,,,,,,,,false,,,,,,,,,604254.03,604252.101,603751.668,603762.51,603768.349,604268.782,,,,
Rating,html.Form,2_4_3_1_13_1,2021-01-14T18:40:25.043Z,,,,,,,,,,,,,,,,,,,,,,,,,,,,,,,,,,,,,,,,,,,,,,,,,,,,,,,,,,,,,,,,,,,,,,,,,,,,,,,,,,,,,,,,,,,,,,,,,,,,,,,,,,,,,,,,,,,3303.9180000001797,,form submission,,,,healthy,,edamame.png,,,,,,,,,,,,,,,edamame,,,,,,,,,,,,,,,,,,,,,,,,,,,,,,,,,,,,,,,,,,,,,,,,,,,,,,,,,false,,,,,,,,,607573.0650000001,607572.7000000002,604252.101,604255.055,604268.782,607588.507,,,,0
rating_sequence,flow.Sequence,2_4_3_1_13,2021-01-14T18:40:25.044Z,,,,,,,,,,,,,,,,,,,,,,,,,,,,,,,,,,,,,,,,,,,,,,,,,,,,,,,,,,,,,,,,,,,,,,,,,,,,,,,,,,,,,,,,,,,,,,,,,,,,,,,,,,,,,,,,,,,3804.3510000001406,,completion,,,,healthy,,edamame.png,,,,,,,,,,,,,,,edamame,,,,,,,,,,,,,,,,,,,,,,,,,,,,,,,,,,,,,,,,,,,,,,,,,,,,,,,,,false,,,,,,,,,607573.5700000001,607572.7000000002,603751.668,603762.365,603768.349,607588.507,,,,
fixCross,canvas.Screen,2_4_3_1_14_0,2021-01-14T18:40:25.544Z,,,,,,,,,,,,,,,,,,,,,,,,,,,,,,,,,,,,,,,,,,,,,,,,,,,,,,,,,,,,,,,,,,,,,,,,,,,,,,,,,,,,,,,,,,,,,,,,,,,,,,,,,,,,,,,,,,,500.41800000006333,,timeout,,,,unhealthy,,frie.png,,,,,,,,,,,,,,,frie,,,,,,,,,,,,,,,,,,,,,,,,,,,,,,,,,,,,,,,,,,,,,,,,,,,,,,,,,false,,,,,,,,,608073.975,608072.244,607571.825,607573.8700000001,607588.507,608088.925,,,,
Rating,html.Form,2_4_3_1_14_1,2021-01-14T18:40:28.793Z,,,,,,,,,,,,,,,,,,,,,,,,,,,,,,,,,,,,,,,,,,,,,,,,,,,,,,,,,,,,,,,,,,,,,,,,,,,,,,,,,,,,,,,,,,,,,,,,,,,,,,,,,,,,,,,,,,,3233.035000000149,,form submission,,,,unhealthy,,frie.png,,,,,,,,,,,,,,,frie,,,,,,,,,,,,,,,,,,,,,,,,,,,,,,,,,,,,,,,,,,,,,,,,,,,,,,,,,false,,,,,,,,,611322.9400000001,611321.9600000002,608072.244,608074.3900000002,608088.925,611325.275,,,,100
rating_sequence,flow.Sequence,2_4_3_1_14,2021-01-14T18:40:28.793Z,,,,,,,,,,,,,,,,,,,,,,,,,,,,,,,,,,,,,,,,,,,,,,,,,,,,,,,,,,,,,,,,,,,,,,,,,,,,,,,,,,,,,,,,,,,,,,,,,,,,,,,,,,,,,,,,,,,3733.4530000002123,,completion,,,,unhealthy,,frie.png,,,,,,,,,,,,,,,frie,,,,,,,,,,,,,,,,,,,,,,,,,,,,,,,,,,,,,,,,,,,,,,,,,,,,,,,,,false,,,,,,,,,611323.4500000001,611321.9600000002,607571.825,607573.785,607588.507,611325.275,,,,
fixCross,canvas.Screen,2_4_3_1_15_0,2021-01-14T18:40:29.280Z,,,,,,,,,,,,,,,,,,,,,,,,,,,,,,,,,,,,,,,,,,,,,,,,,,,,,,,,,,,,,,,,,,,,,,,,,,,,,,,,,,,,,,,,,,,,,,,,,,,,,,,,,,,,,,,,,,,500.3889999999665,,timeout,,,,unhealthy,,dried_meat.png,,,,,,,,,,,,,,,dried meat,,,,,,,,,,,,,,,,,,,,,,,,,,,,,,,,,,,,,,,,,,,,,,,,,,,,,,,,,false,,,,,,,,,611810.0650000002,611808.983,611308.591,611323.9900000001,611325.275,611825.664,,,,
Rating,html.Form,2_4_3_1_15_1,2021-01-14T18:40:44.287Z,,,,,,,,,,,,,,,,,,,,,,,,,,,,,,,,,,,,,,,,,,,,,,,,,,,,,,,,,,,,,,,,,,,,,,,,,,,,,,,,,,,,,,,,,,,,,,,,,,,,,,,,,,,,,,,,,,,14991.201000000001,,form submission,,,,unhealthy,,dried_meat.png,,,,,,,,,,,,,,,dried meat,,,,,,,,,,,,,,,,,,,,,,,,,,,,,,,,,,,,,,,,,,,,,,,,,,,,,,,,,false,,,,,,,,,626817.2200000001,626816.865,611808.983,611810.3,611825.664,626822.666,,,,0
rating_sequence,flow.Sequence,2_4_3_1_15,2021-01-14T18:40:44.288Z,,,,,,,,,,,,,,,,,,,,,,,,,,,,,,,,,,,,,,,,,,,,,,,,,,,,,,,,,,,,,,,,,,,,,,,,,,,,,,,,,,,,,,,,,,,,,,,,,,,,,,,,,,,,,,,,,,,15491.589999999967,,completion,,,,unhealthy,,dried_meat.png,,,,,,,,,,,,,,,dried meat,,,,,,,,,,,,,,,,,,,,,,,,,,,,,,,,,,,,,,,,,,,,,,,,,,,,,,,,,false,,,,,,,,,626817.5750000001,626816.865,611308.591,611323.8800000001,611325.275,626822.666,,,,
fixCross,canvas.Screen,2_4_3_1_16_0,2021-01-14T18:40:44.778Z,,,,,,,,,,,,,,,,,,,,,,,,,,,,,,,,,,,,,,,,,,,,,,,,,,,,,,,,,,,,,,,,,,,,,,,,,,,,,,,,,,,,,,,,,,,,,,,,,,,,,,,,,,,,,,,,,,,500.43700000003446,,timeout,,,,unhealthy,,ritz.png,,,,,,,,,,,,,,,cracker,,,,,,,,,,,,,,,,,,,,,,,,,,,,,,,,,,,,,,,,,,,,,,,,,,,,,,,,,false,,,,,,,,,627307.6600000001,627306.422,626805.985,626817.8700000001,626822.666,627323.103,,,,
Rating,html.Form,2_4_3_1_16_1,2021-01-14T18:40:47.489Z,,,,,,,,,,,,,,,,,,,,,,,,,,,,,,,,,,,,,,,,,,,,,,,,,,,,,,,,,,,,,,,,,,,,,,,,,,,,,,,,,,,,,,,,,,,,,,,,,,,,,,,,,,,,,,,,,,,2695.4020000002347,,form submission,,,,unhealthy,,ritz.png,,,,,,,,,,,,,,,cracker,,,,,,,,,,,,,,,,,,,,,,,,,,,,,,,,,,,,,,,,,,,,,,,,,,,,,,,,,false,,,,,,,,,630018.89,630018.5050000002,627306.422,627310.0850000001,627323.103,630042.261,,,,63
rating_sequence,flow.Sequence,2_4_3_1_16,2021-01-14T18:40:47.489Z,,,,,,,,,,,,,,,,,,,,,,,,,,,,,,,,,,,,,,,,,,,,,,,,,,,,,,,,,,,,,,,,,,,,,,,,,,,,,,,,,,,,,,,,,,,,,,,,,,,,,,,,,,,,,,,,,,,3195.839000000269,,completion,,,,unhealthy,,ritz.png,,,,,,,,,,,,,,,cracker,,,,,,,,,,,,,,,,,,,,,,,,,,,,,,,,,,,,,,,,,,,,,,,,,,,,,,,,,false,,,,,,,,,630019.2400000001,630018.5050000002,626805.985,626817.78,626822.666,630042.261,,,,
fixCross,canvas.Screen,2_4_3_1_17_0,2021-01-14T18:40:47.997Z,,,,,,,,,,,,,,,,,,,,,,,,,,,,,,,,,,,,,,,,,,,,,,,,,,,,,,,,,,,,,,,,,,,,,,,,,,,,,,,,,,,,,,,,,,,,,,,,,,,,,,,,,,,,,,,,,,,500.4389999998966,,timeout,,,,healthy,,walnut.png,,,,,,,,,,,,,,,walnut,,,,,,,,,,,,,,,,,,,,,,,,,,,,,,,,,,,,,,,,,,,,,,,,,,,,,,,,,false,,,,,,,,,630526.91,630526.019,630025.58,630019.52,630042.261,630542.7,,,,
Rating,html.Form,2_4_3_1_17_1,2021-01-14T18:40:57.114Z,,,,,,,,,,,,,,,,,,,,,,,,,,,,,,,,,,,,,,,,,,,,,,,,,,,,,,,,,,,,,,,,,,,,,,,,,,,,,,,,,,,,,,,,,,,,,,,,,,,,,,,,,,,,,,,,,,,9101.290000000037,,form submission,,,,healthy,,walnut.png,,,,,,,,,,,,,,,walnut,,,,,,,,,,,,,,,,,,,,,,,,,,,,,,,,,,,,,,,,,,,,,,,,,,,,,,,,,false,,,,,,,,,639644.3200000001,639643.99,630526.019,630527.0850000002,630542.7,639667.649,,,,100
rating_sequence,flow.Sequence,2_4_3_1_17,2021-01-14T18:40:57.115Z,,,,,,,,,,,,,,,,,,,,,,,,,,,,,,,,,,,,,,,,,,,,,,,,,,,,,,,,,,,,,,,,,,,,,,,,,,,,,,,,,,,,,,,,,,,,,,,,,,,,,,,,,,,,,,,,,,,9601.728999999934,,completion,,,,healthy,,walnut.png,,,,,,,,,,,,,,,walnut,,,,,,,,,,,,,,,,,,,,,,,,,,,,,,,,,,,,,,,,,,,,,,,,,,,,,,,,,false,,,,,,,,,639644.6150000001,639643.99,630025.58,630019.4400000001,630042.261,639667.649,,,,
rating_loop,flow.Loop,2_4_3_1,2021-01-14T18:40:57.115Z,,,,,,,,,,,,,,,,,,,,,,,,,,,,,,,,,,,,,,,,,,,,,,,,,,,,,,,,,,,,,,,,,,,,,,,,,,,,,,,,,,,,,,,,,,,,,,,,,,,,,,,,,,,,,,,,,,,110680.277,,completion,,,,,,,,,,,,,,,,,,,,,,,,,,,,,,,,,,,,,,,,,,,,,,,,,,,,,,,,,,,,,,,,,,,,,,,,,,,,,,false,,,,,,,,,639644.9650000002,639643.99,528947.032,528958.4100000001,528963.713,639667.649,,,,
data_transmission,html.Screen,2_4_3_2,2021-01-14T18:40:57.127Z,,,,,,,,,,,,,,,,,,,,,,,,,,,,,,,,,,,,,,,,,,,,,,,,,,,,,,,,,,,,,,,,,,,,,,,,,,,,,,,,,,,,,,,,,,,,,,,,,,,,,,,,,,,,,,,,,,,NaN,,no compatible backend,,,,,,,,,,,,,,,Transferring data,,,,,,,,,,,,,,,,,,,,,,,,,,,,,,,,,,,,,,,,,,,,,,,,,,,,,,,,,,,,,,,false,,,Please wait a second…,,,,,,639656.8100000002,639656.41,,639645.1250000002,,639667.649,,,,
instructions,html.Screen,2_4_3_3,2021-01-14T18:43:41.376Z,,,,,,,,,,,,,,,,,,,,,,,,,,,,,,,,,,,,,,,,,,,,,,,,,,,,,,,,,,,,,,,,,,,,,,,,,,,,,,,,,,,,,,,,,,,,,,,,,,,,,,,,,,,,,,,,,,,164235.3110000001,,done,,,,,,,,,,,,,,,,,,,,,,,,,,,,,,,,,,,,,,,,,,,,,,,,,,,,,,,,,,,,,,,,,,,,,,,,,,,,,,false,,,,,,,,,803903.235,803902.9600000001,639634.293,639657.1550000001,639667.649,803915.721,,,,
Q1,html.Screen,2_4_3_4_0,2021-01-14T18:43:58.466Z,,,,,,,,,,,,,,,,,,,,,,,,,,,,,,,,,,,,,,,,,,,,,,,,,,,,,,,,,,,,,,,,,,,,,,,,,,,,,,,,,,,,,,,,,,,,,,,,,,,,,,,,,,,,,,,false,input_Q1==3,,,17073.834000000264,,response,,,,,,,,,,,,,,,,,,,,,,,,,Q1_i3,Q1_i1,Q1_i2,Q1_i4,3,1,2,4,correct,false,false,false,,,,,,,,,,,,,,,,,,,,,,,,,,,,,,,,,,,,,,,,,click #Q1_i3,false,,,,,,,,,820993.7850000004,820989.5550000003,803899.04,803903.5450000004,803915.721,820999.518,,,,
Q1_correct,html.Screen,2_4_3_4_1,2021-01-14T18:44:00.520Z,,,,,,,,,,,,,,,,,,,,,,,,,,,,,,,,,,,,,,,,,,,,,,,,,,,,,,,,,,,,,,,,,,,,,,,,,,,,,,,,,,,,,,,,,,,,,,,,,,,,,,,,,,,,,,,,,,,2046.6119999999646,,response,,,,,,,,,,,,,,,,,,,,,,,,,,,,,,,,,,,,,,,,,,,,,,,,,,,,,,,,,,,,,,,,,,,,,,,,,,,,,keypress,false,,,,,,,,,823047.355,823046.13,820982.832,820994.1850000003,820999.518,823051.196,,,,
Q2,html.Screen,2_4_3_4_2,2021-01-14T18:44:13.271Z,,,,,,,,,,,,,,,,,,,,,,,,,,,,,,,,,,,,,,,,,,,,,,,,,,,,,,,,,,,,,,,,,,,,,,,,,,,,,,,,,,,,,,,,,,,,,,,,,,,,,,,,,,,,,,,,,,,12745.993999999948,,response,,,,,,,,,,,,,,,,,,,,,,,,,,,,,,,,,,,,,Q2_i3,Q2_i2,Q2_i1,Same amount,Option 2,Option 1,same,opt2,correct,,,,,,,,,,,,,,,,,,,,,,,,,,,,,,,,click #Q2_i1,false,,,,,,,,,835798.5650000003,835797.19,823034.515,823047.6650000003,823051.196,835812.931,,,,
Q2_correct,html.Screen,2_4_3_4_3,2021-01-14T18:44:15.710Z,,,,,,,,,,,,,,,,,,,,,,,,,,,,,,,,,,,,,,,,,,,,,,,,,,,,,,,,,,,,,,,,,,,,,,,,,,,,,,,,,,,,,,,,,,,,,,,,,,,,,,,,,,,,,,,,,,,2423.064000000246,,response,,,,,,,,,,,,,,,,,,,,,,,,,,,,,,,,,,,,,,,,,,,,,,,,,,,,,,,,,,,,,,,,,,,,,,,,,,,,,keypress,false,,,,,,,,,838237.2950000002,838235.9950000002,835796.249,835799.1400000004,835812.931,838248.349,,,,
Q4,html.Screen,2_4_3_4_4,2021-01-14T18:45:13.020Z,,,,,,,,,,,,,,,,,,,,,,,,,,,,,,,,,,,,,,,,,,,,,,,,,,,,,,,,,,,,,,,,,,,,,,,,,,,,,,,,,,,,,,,,,,,,,,,,,,,,,,,,,,,,,,,,,,,57296.410999999964,,response,,,,,,,,,,,,,,,,,,,,,,,,,,,,,,,,,,,,,,,,,,,,,,Q4_i4,Q4_i3,Q4_i1,Q4_i2,Press the space key,Press the arrow key that corresponds with the snack option with more food items,Press the arrow key that corresponds with the snack option I prefer,Indicate the number of food items in each snack option,pressspace,morefood,correct,indicate,,,,,,,,,,,,,,,,,,,,click #Q4_i1,false,,,,,,,,,895546.4400000003,895544.76,838231.668,838237.5400000003,838248.349,895550.678,,,,
Q4_correct,html.Screen,2_4_3_4_5,2021-01-14T18:45:26.108Z,,,,,,,,,,,,,,,,,,,,,,,,,,,,,,,,,,,,,,,,,,,,,,,,,,,,,,,,,,,,,,,,,,,,,,,,,,,,,,,,,,,,,,,,,,,,,,,,,,,,,,,,,,,,,,,,,,,13082.607000000193,,response,,,,,,,,,,,,,,,,,,,,,,,,,,,,,,,,,,,,,,,,,,,,,,,,,,,,,,,,,,,,,,,,,,,,,,,,,,,,,keypress,false,,,,,,,,,908634.0550000002,908633.2850000001,895533.995,895546.8950000001,895550.678,908645.223,,,,
Q5,html.Screen,2_4_3_4_6,2021-01-14T18:46:15.978Z,,,,,,,,,,,,,,,,,,,,,,,,,,,,,,,,,,,,,,,,,,,,,,,,,,,,,,,,,,,,,,,,,,,,,,,,,,,,,,,,,,,,,,,,,,,,,,,,,,,,,,,,,,,,,,,,,,,49857.23200000008,,response,,,,,,,,,,,,,,,,,,,,,,,,,,,,,,,,,,,,,,,,,,,,,,,,,,,,,,,,,,Q5_i1,Q5_i3,Q5_i4,Q5_i2,Snack Option 2 has been chosen,There are more slices of kiwi in snack Option 1,Snack Option 1 has been chosen,There are more pieces of chocolate in snack Option 2,correct,morekiwi1,chose1,morechoc2,,,,,,,,click #Q5_i1,false,,,,,,,,,958503.5800000003,958502.4550000001,908628.542,908634.26,908645.223,958507.931,,,,
Q5_correct,html.Screen,2_4_3_4_7,2021-01-14T18:46:20.431Z,,,,,,,,,,,,,,,,,,,,,,,,,,,,,,,,,,,,,,,,,,,,,,,,,,,,,,,,,,,,,,,,,,,,,,,,,,,,,,,,,,,,,,,,,,,,,,,,,,,,,,,,,,,,,,,,,,,4447.868999999948,,response,,,,,,,,,,,,,,,,,,,,,,,,,,,,,,,,,,,,,,,,,,,,,,,,,,,,,,,,,,,,,,,,,,,,,,,,,,,,,keypress,false,,,,,,,,,962956.7899999999,962955.7999999999,958491.25,958504.0150000002,958507.931,962961.772,,,,
practice_sequence,flow.Sequence,2_4_3_4,2021-01-14T18:46:20.431Z,,,,,,,,,,,,,,,,,,,,,,,,,,,,,,,,,,,,,,,,,,,,,,,,,,,,,,,,,,,,,,,,,,,,,,,,,,,,,,,,,,,,,,,,,,,,,,,,,,,,,,,,,,,,,,,,,,,159040.0789999999,,completion,,,,,,,,,,,,,,,,,,,,,,,,,,,,,,,,,,,,,,,,,,,,,,,,,,,,,,,,,,,,,,,,,,,,,,,,,,,,,,false,,,,,,,,,962957.1600000001,962955.7999999999,803899.04,803903.4650000001,803915.721,962961.772,,,,
final_instru,html.Screen,2_4_3_5,2021-01-14T18:47:20.289Z,,,,,,,,,,,,,,,,,,,,,,,,,,,,,,,,,,,,,,,,,,,,,,,,,,,,,,,,,,,,,,,,,,,,,,,,,,,,,,,,,,,,,,,,,,,,,,,,,,,,,,,,,,,,,,,,,,,59851.75300000026,,done,,,,,,,,,,,,,,,,,,,,,,,,,,,,,,,,,,,,,,,,,,,,,,,,,,,,,,,,,,,,,,,,,,,,,,,,,,,,,,false,,,,,,,,,1022813.7800000001,1022813.5250000003,962945.091,962957.3849999999,962961.772,1022814.701,,,,
blank_screen,canvas.Screen,2_4_3_6_0,2021-01-14T18:47:22.277Z,,,,,,,,,,,,,,,,,,,,,,,,,,,,,,,,,,,,,,,,,,,,,,,,,,,,,,,,,,,,,,,,,,,,,,,,,,,,,,,,,,,,,,,,,,,,,,,,,,,,,,,,,,,,,,,,,,,2086.4710000000196,,timeout,,,,,,,,,,,,,,,,,,,,,,,,,,,,,,,,,,,,,,,,,,,,,,,,,,,,,,,,,,,,,,,,,,,,,,,,,,,,,,false,,,,,,,,,1024801.78,1024801.086,1022798.02,1022814.1000000003,1022814.701,1024901.172,,,,
fixCross,canvas.Screen,2_4_3_6_1_0_0_0_0_0_0,2021-01-14T18:47:22.812Z,,,blank.png,"[""peanut_cracker.png""]",blank.png,blank.png,blank.png,blank.png,blank.png,blank.png,blank.png,blank.png,blank.png,blank.png,blank.png,,,,,,,,,,,,,,,,,,,,,,,,,,,,,"[""peanut_cracker.png""]","[""walnut.png""]",PB15.png,,,,,,,,,,,0,6,"[""walnut.png""]","[""walnut.png""]","[""walnut.png""]","[""walnut.png""]","[""walnut.png""]","[""walnut.png""]",blank.png,PB18.png,PB18.png,"[""walnut.png""]","[""walnut.png""]","[""walnut.png""]","[""walnut.png""]",blank.png,blank.png,"[""walnut.png""]","[""walnut.png""]","[""walnut.png""]","[""walnut.png""]","[""walnut.png""]","[""walnut.png""]",1,"[""peanut_cracker.png""]",blank.png,blank.png,blank.png,4,"[""walnut.png""]","[""walnut.png""]","[""walnut.png""]","[""walnut.png""]",blank.png,blank.png,PB15.png,,,,,,,,,,,1,,,,,,,,,,,,1935.511999999988,,timeout,,,,,,,,,,,,,3,,,,,,,,,,,,,,,,,,,,,,,,,,,,,,,,,,,,,,,,,,,,,,,,,,,,,,,,,"[""walnut.png""]","[""peanut_cracker.png""]",,,,1,,,false,,1,,,,,,,1025337.2650000004,1025335.394,1024801.086,1024902.7700000004,1024901.172,1026836.684,1,,,
timeout,canvas.Screen,2_4_3_6_1_0_0_0_0_0_1,2021-01-14T18:47:24.798Z,,,blank.png,"[""peanut_cracker.png""]",blank.png,blank.png,blank.png,blank.png,blank.png,blank.png,blank.png,blank.png,blank.png,blank.png,blank.png,,,,,,,,,,,,,,,,,,,,,,,,,,,,,"[""peanut_cracker.png""]","[""walnut.png""]",PB15.png,,,,,,,,,,,0,6,"[""walnut.png""]","[""walnut.png""]","[""walnut.png""]","[""walnut.png""]","[""walnut.png""]","[""walnut.png""]",blank.png,PB18.png,PB18.png,"[""walnut.png""]","[""walnut.png""]","[""walnut.png""]","[""walnut.png""]",blank.png,blank.png,"[""walnut.png""]","[""walnut.png""]","[""walnut.png""]","[""walnut.png""]","[""walnut.png""]","[""walnut.png""]",1,"[""peanut_cracker.png""]",blank.png,blank.png,blank.png,4,"[""walnut.png""]","[""walnut.png""]","[""walnut.png""]","[""walnut.png""]",blank.png,blank.png,PB15.png,,,,,,,,,,,1,,,,,,,,,,,,2185.3240000000224,,timeout,,,,,,,,,,,,,3,,,,,,,,,,,,,,,,,,,,,,,,,,,,,,,,,,,,,,,,,,,,,,,,,,,,,,,,,"[""walnut.png""]","[""peanut_cracker.png""]",,,,1,,,false,,1,,,,,,,1027322.4700000003,1027320.546,1025335.394,1027069.385,1026836.684,1029022.008,,,,
choice,canvas.Screen,2_4_3_6_1_0_0_0_0_0_2,2021-01-14T18:47:27.793Z,,,blank.png,"[""peanut_cracker.png""]",blank.png,blank.png,blank.png,blank.png,blank.png,blank.png,blank.png,blank.png,blank.png,blank.png,blank.png,,,,,,,,,,,,,,,,,,,,,,,,,,,,,"[""peanut_cracker.png""]","[""walnut.png""]",PB15.png,,,,,,,,,,,0,6,"[""walnut.png""]","[""walnut.png""]","[""walnut.png""]","[""walnut.png""]","[""walnut.png""]","[""walnut.png""]",blank.png,PB18.png,PB18.png,"[""walnut.png""]","[""walnut.png""]","[""walnut.png""]","[""walnut.png""]",blank.png,blank.png,"[""walnut.png""]","[""walnut.png""]","[""walnut.png""]","[""walnut.png""]","[""walnut.png""]","[""walnut.png""]",1,"[""peanut_cracker.png""]",blank.png,blank.png,blank.png,4,"[""walnut.png""]","[""walnut.png""]","[""walnut.png""]","[""walnut.png""]",blank.png,blank.png,PB15.png,,,,,,,,,,,1,,,,,,,,,,,,1293.3570000000764,,response,,,,,,,,,,,,,3,,,,,,,,,,,,,,,,,,,,,,,,,,,,,,,,,,,,,,,,,,,,,,,,,,,,,,,,,"[""walnut.png""]","[""peanut_cracker.png""]",,,,1,right,keydown(ArrowRight),false,,1,,,,,,,1030316.4349999999,1030315.3650000001,1027320.546,1029051.2300000002,1029022.008,1032008.013,,1,,
square,canvas.Screen,2_4_3_6_1_0_0_0_0_0_3,2021-01-14T18:47:30.470Z,,,blank.png,"[""peanut_cracker.png""]",blank.png,blank.png,blank.png,blank.png,blank.png,blank.png,blank.png,blank.png,blank.png,blank.png,blank.png,,,,,,,,,,,,,,,,,,,,,,,,,,,,,"[""peanut_cracker.png""]","[""walnut.png""]",PB15.png,,,,,,,,,,,0,6,"[""walnut.png""]","[""walnut.png""]","[""walnut.png""]","[""walnut.png""]","[""walnut.png""]","[""walnut.png""]",blank.png,PB18.png,PB18.png,"[""walnut.png""]","[""walnut.png""]","[""walnut.png""]","[""walnut.png""]",blank.png,blank.png,"[""walnut.png""]","[""walnut.png""]","[""walnut.png""]","[""walnut.png""]","[""walnut.png""]","[""walnut.png""]",1,"[""peanut_cracker.png""]",blank.png,blank.png,blank.png,4,"[""walnut.png""]","[""walnut.png""]","[""walnut.png""]","[""walnut.png""]",blank.png,blank.png,PB15.png,,,,,,,,,,,1,,#808080,#33ff3f,,,,,,,,,1000.9930000000168,,timeout,,,,,,,,,,,,,3,,,,,,,,,,,,,,,,,,,,,,,,,,,,,,,,,,,,,,,,,,,,,,,,,,,,,,,,,"[""walnut.png""]","[""peanut_cracker.png""]",,,,1,,,false,,1,,,,,white,black,1032993.5150000004,1032992.325,1031941.289,1031949.265,1032008.013,1033009.006,,,,
ITI_late,canvas.Screen,2_4_3_6_1_0_0_0_0_0_4,2021-01-14T18:47:30.722Z,,,blank.png,"[""peanut_cracker.png""]",blank.png,blank.png,blank.png,blank.png,blank.png,blank.png,blank.png,blank.png,blank.png,blank.png,blank.png,,,,,,,,,,,,,,,,,,,,,,,,,,,,,"[""peanut_cracker.png""]","[""walnut.png""]",PB15.png,,,,,,,,,,,0,6,"[""walnut.png""]","[""walnut.png""]","[""walnut.png""]","[""walnut.png""]","[""walnut.png""]","[""walnut.png""]",blank.png,PB18.png,PB18.png,"[""walnut.png""]","[""walnut.png""]","[""walnut.png""]","[""walnut.png""]",blank.png,blank.png,"[""walnut.png""]","[""walnut.png""]","[""walnut.png""]","[""walnut.png""]","[""walnut.png""]","[""walnut.png""]",1,"[""peanut_cracker.png""]",blank.png,blank.png,blank.png,4,"[""walnut.png""]","[""walnut.png""]","[""walnut.png""]","[""walnut.png""]",blank.png,blank.png,PB15.png,,,,,,,,,,,1,,,,,,,,,,,,250.29899999999907,,timeout,,,,,,,,,,,,white,3,,,,,,,,,,,,,,,,,,,,,,,,,,,,,,,,,,,,,,,,,,,,,,,,,,,,,,,,,"[""walnut.png""]","[""peanut_cracker.png""]",,,,1,,,false,,1,,,,,,,1033245.31,1033242.624,1032992.325,1033001.3350000002,1033009.006,1033259.305,,,,
choice_sequence,flow.Sequence,2_4_3_6_1_0_0_0_0_0,2021-01-14T18:47:30.725Z,,,blank.png,"[""peanut_cracker.png""]",blank.png,blank.png,blank.png,blank.png,blank.png,blank.png,blank.png,blank.png,blank.png,blank.png,blank.png,,,,,,,,,,,,,,,,,,,,,,,,,,,,,"[""peanut_cracker.png""]","[""walnut.png""]",PB15.png,,,,,,,,,,,0,6,"[""walnut.png""]","[""walnut.png""]","[""walnut.png""]","[""walnut.png""]","[""walnut.png""]","[""walnut.png""]",blank.png,PB18.png,PB18.png,"[""walnut.png""]","[""walnut.png""]","[""walnut.png""]","[""walnut.png""]",blank.png,blank.png,"[""walnut.png""]","[""walnut.png""]","[""walnut.png""]","[""walnut.png""]","[""walnut.png""]","[""walnut.png""]",1,"[""peanut_cracker.png""]",blank.png,blank.png,blank.png,4,"[""walnut.png""]","[""walnut.png""]","[""walnut.png""]","[""walnut.png""]",blank.png,blank.png,PB15.png,,,,,,,,,,,1,,,,,,,,,,,,8341.451999999932,,completion,,,,,,,,,,,,,3,,,,,,,,,,,,,,,,,,,,,,,,,,,,,,,,,,,,,,,,,,,,,,,,,,,,,,,,,"[""walnut.png""]","[""peanut_cracker.png""]",,,,1,,,false,,1,,,,,,,1033248.0150000004,1033242.624,1024801.086,1024894.235,1024901.172,1033259.305,,,,
fixCross,canvas.Screen,2_4_3_6_1_0_0_0_0_1_0,2021-01-14T18:47:31.372Z,,,blank.png,"[""peanut_cracker.png""]",blank.png,blank.png,blank.png,blank.png,blank.png,blank.png,blank.png,blank.png,blank.png,blank.png,blank.png,,,,,,,,,,,,,,,,,,,,,,,,,,,,,"[""peanut_cracker.png""]","[""walnut.png""]",PB01.png,,,,,,,,,,,0,6,"[""walnut.png""]","[""walnut.png""]","[""walnut.png""]","[""walnut.png""]","[""walnut.png""]","[""walnut.png""]",blank.png,PB18.png,PB18.png,blank.png,blank.png,blank.png,blank.png,blank.png,blank.png,"[""walnut.png""]","[""walnut.png""]","[""walnut.png""]","[""walnut.png""]","[""walnut.png""]","[""walnut.png""]",1,"[""peanut_cracker.png""]",blank.png,blank.png,blank.png,0,blank.png,blank.png,blank.png,blank.png,blank.png,blank.png,PB01.png,,,,,,,,,,,1,,,,,,,,,,,,1918.344999999972,,timeout,,,,,,,,,,,,,3,,,,,,,,,,,,,,,,,,,,,,,,,,,,,,,,,,,,,,,,,,,,,,,,,,,,,,,,,"[""walnut.png""]","[""peanut_cracker.png""]",,,,1,,,false,,1,,,,,,,1033894.8350000003,1033893.213,1033242.624,1033273.3850000002,1033259.305,1035177.65,2,,,
timeout,canvas.Screen,2_4_3_6_1_0_0_0_0_1_1,2021-01-14T18:47:33.140Z,,,blank.png,"[""peanut_cracker.png""]",blank.png,blank.png,blank.png,blank.png,blank.png,blank.png,blank.png,blank.png,blank.png,blank.png,blank.png,,,,,,,,,,,,,,,,,,,,,,,,,,,,,"[""peanut_cracker.png""]","[""walnut.png""]",PB01.png,,,,,,,,,,,0,6,"[""walnut.png""]","[""walnut.png""]","[""walnut.png""]","[""walnut.png""]","[""walnut.png""]","[""walnut.png""]",blank.png,PB18.png,PB18.png,blank.png,blank.png,blank.png,blank.png,blank.png,blank.png,"[""walnut.png""]","[""walnut.png""]","[""walnut.png""]","[""walnut.png""]","[""walnut.png""]","[""walnut.png""]",1,"[""peanut_cracker.png""]",blank.png,blank.png,blank.png,0,blank.png,blank.png,blank.png,blank.png,blank.png,blank.png,PB01.png,,,,,,,,,,,1,,,,,,,,,,,,1784.9349999999395,,timeout,,,,,,,,,,,,,3,,,,,,,,,,,,,,,,,,,,,,,,,,,,,,,,,,,,,,,,,,,,,,,,,,,,,,,,,"[""walnut.png""]","[""peanut_cracker.png""]",,,,1,,,false,,1,,,,,,,1035663.2850000003,1035661.467,1033893.213,1035190.9400000002,1035177.65,1036962.585,,,,
choice,canvas.Screen,2_4_3_6_1_0_0_0_0_1_2,2021-01-14T18:47:34.451Z,,,blank.png,"[""peanut_cracker.png""]",blank.png,blank.png,blank.png,blank.png,blank.png,blank.png,blank.png,blank.png,blank.png,blank.png,blank.png,,,,,,,,,,,,,,,,,,,,,,,,,,,,,"[""peanut_cracker.png""]","[""walnut.png""]",PB01.png,,,,,,,,,,,0,6,"[""walnut.png""]","[""walnut.png""]","[""walnut.png""]","[""walnut.png""]","[""walnut.png""]","[""walnut.png""]",blank.png,PB18.png,PB18.png,blank.png,blank.png,blank.png,blank.png,blank.png,blank.png,"[""walnut.png""]","[""walnut.png""]","[""walnut.png""]","[""walnut.png""]","[""walnut.png""]","[""walnut.png""]",1,"[""peanut_cracker.png""]",blank.png,blank.png,blank.png,0,blank.png,blank.png,blank.png,blank.png,blank.png,blank.png,PB01.png,,,,,,,,,,,1,,,,,,,,,,,,544.9629999999888,,response,,,,,,,,,,,,,3,,,,,,,,,,,,,,,,,,,,,,,,,,,,,,,,,,,,,,,,,,,,,,,,,,,,,,,,,"[""walnut.png""]","[""peanut_cracker.png""]",,,,1,right,keydown(ArrowRight),false,,1,,,,,,,1036974.4950000001,1036206.4299999999,1035661.467,1036918.6900000002,,1038230.434,,2,,
square,canvas.Screen,2_4_3_6_1_0_0_0_0_1_3,2021-01-14T18:47:36.692Z,,,blank.png,"[""peanut_cracker.png""]",blank.png,blank.png,blank.png,blank.png,blank.png,blank.png,blank.png,blank.png,blank.png,blank.png,blank.png,,,,,,,,,,,,,,,,,,,,,,,,,,,,,"[""peanut_cracker.png""]","[""walnut.png""]",PB01.png,,,,,,,,,,,0,6,"[""walnut.png""]","[""walnut.png""]","[""walnut.png""]","[""walnut.png""]","[""walnut.png""]","[""walnut.png""]",blank.png,PB18.png,PB18.png,blank.png,blank.png,blank.png,blank.png,blank.png,blank.png,"[""walnut.png""]","[""walnut.png""]","[""walnut.png""]","[""walnut.png""]","[""walnut.png""]","[""walnut.png""]",1,"[""peanut_cracker.png""]",blank.png,blank.png,blank.png,0,blank.png,blank.png,blank.png,blank.png,blank.png,blank.png,PB01.png,,,,,,,,,,,1,,#808080,#33ff3f,,,,,,,,,1000.9320000000298,,timeout,,,,,,,,,,,,,3,,,,,,,,,,,,,,,,,,,,,,,,,,,,,,,,,,,,,,,,,,,,,,,,,,,,,,,,,"[""walnut.png""]","[""peanut_cracker.png""]",,,,1,,,false,,1,,,,,white,black,1039215.5600000003,1039214.685,1036962.585,1038222.6550000003,1038230.434,1039231.366,,,,
ITI_late,canvas.Screen,2_4_3_6_1_0_0_0_0_1_4,2021-01-14T18:47:37.193Z,,,blank.png,"[""peanut_cracker.png""]",blank.png,blank.png,blank.png,blank.png,blank.png,blank.png,blank.png,blank.png,blank.png,blank.png,blank.png,,,,,,,,,,,,,,,,,,,,,,,,,,,,,"[""peanut_cracker.png""]","[""walnut.png""]",PB01.png,,,,,,,,,,,0,6,"[""walnut.png""]","[""walnut.png""]","[""walnut.png""]","[""walnut.png""]","[""walnut.png""]","[""walnut.png""]",blank.png,PB18.png,PB18.png,blank.png,blank.png,blank.png,blank.png,blank.png,blank.png,"[""walnut.png""]","[""walnut.png""]","[""walnut.png""]","[""walnut.png""]","[""walnut.png""]","[""walnut.png""]",1,"[""peanut_cracker.png""]",blank.png,blank.png,blank.png,0,blank.png,blank.png,blank.png,blank.png,blank.png,blank.png,PB01.png,,,,,,,,,,,1,,,,,,,,,,,,500.48399999993853,,timeout,,,,,,,,,,,,white,3,,,,,,,,,,,,,,,,,,,,,,,,,,,,,,,,,,,,,,,,,,,,,,,,,,,,,,,,,"[""walnut.png""]","[""peanut_cracker.png""]",,,,1,,,false,,1,,,,,,,1039716.4400000004,1039715.169,1039214.685,1039220.1300000004,1039231.366,1039731.85,,,,
choice_sequence,flow.Sequence,2_4_3_6_1_0_0_0_0_1,2021-01-14T18:47:37.194Z,,,blank.png,"[""peanut_cracker.png""]",blank.png,blank.png,blank.png,blank.png,blank.png,blank.png,blank.png,blank.png,blank.png,blank.png,blank.png,,,,,,,,,,,,,,,,,,,,,,,,,,,,,"[""peanut_cracker.png""]","[""walnut.png""]",PB01.png,,,,,,,,,,,0,6,"[""walnut.png""]","[""walnut.png""]","[""walnut.png""]","[""walnut.png""]","[""walnut.png""]","[""walnut.png""]",blank.png,PB18.png,PB18.png,blank.png,blank.png,blank.png,blank.png,blank.png,blank.png,"[""walnut.png""]","[""walnut.png""]","[""walnut.png""]","[""walnut.png""]","[""walnut.png""]","[""walnut.png""]",1,"[""peanut_cracker.png""]",blank.png,blank.png,blank.png,0,blank.png,blank.png,blank.png,blank.png,blank.png,blank.png,PB01.png,,,,,,,,,,,1,,,,,,,,,,,,6455.863999999943,,completion,,,,,,,,,,,,,3,,,,,,,,,,,,,,,,,,,,,,,,,,,,,,,,,,,,,,,,,,,,,,,,,,,,,,,,,"[""walnut.png""]","[""peanut_cracker.png""]",,,,1,,,false,,1,,,,,,,1039717.1900000001,1039715.169,1033242.624,1033268.335,1033259.305,1039731.85,,,,
fixCross,canvas.Screen,2_4_3_6_1_0_0_0_0_2_0,2021-01-14T18:47:37.494Z,,,blank.png,"[""peanut_cracker.png""]",blank.png,blank.png,blank.png,blank.png,blank.png,blank.png,blank.png,blank.png,blank.png,blank.png,blank.png,,,,,,,,,,,,,,,,,,,,,,,,,,,,,"[""peanut_cracker.png""]","[""walnut.png""]",PB16.png,,,,,,,,,,,0,6,"[""walnut.png""]","[""walnut.png""]","[""walnut.png""]","[""walnut.png""]","[""walnut.png""]","[""walnut.png""]",blank.png,PB18.png,PB18.png,"[""walnut.png""]","[""walnut.png""]","[""walnut.png""]","[""walnut.png""]","[""walnut.png""]",blank.png,"[""walnut.png""]","[""walnut.png""]","[""walnut.png""]","[""walnut.png""]","[""walnut.png""]","[""walnut.png""]",1,"[""peanut_cracker.png""]",blank.png,blank.png,blank.png,5,"[""walnut.png""]","[""walnut.png""]","[""walnut.png""]","[""walnut.png""]","[""walnut.png""]",blank.png,PB16.png,,,,,,,,,,,1,,,,,,,,,,,,2001.7550000000047,,timeout,,,,,,,,,,,,,3,,,,,,,,,,,,,,,,,,,,,,,,,,,,,,,,,,,,,,,,,,,,,,,,,,,,,,,,,"[""walnut.png""]","[""peanut_cracker.png""]",,,,1,,,false,,1,,,,,,,1040017.0150000001,1040015.462,1039715.169,1039730.73,1039731.85,1041733.605,3,,,
timeout,canvas.Screen,2_4_3_6_1_0_0_0_0_2_1,2021-01-14T18:47:39.696Z,,,blank.png,"[""peanut_cracker.png""]",blank.png,blank.png,blank.png,blank.png,blank.png,blank.png,blank.png,blank.png,blank.png,blank.png,blank.png,,,,,,,,,,,,,,,,,,,,,,,,,,,,,"[""peanut_cracker.png""]","[""walnut.png""]",PB16.png,,,,,,,,,,,0,6,"[""walnut.png""]","[""walnut.png""]","[""walnut.png""]","[""walnut.png""]","[""walnut.png""]","[""walnut.png""]",blank.png,PB18.png,PB18.png,"[""walnut.png""]","[""walnut.png""]","[""walnut.png""]","[""walnut.png""]","[""walnut.png""]",blank.png,"[""walnut.png""]","[""walnut.png""]","[""walnut.png""]","[""walnut.png""]","[""walnut.png""]","[""walnut.png""]",1,"[""peanut_cracker.png""]",blank.png,blank.png,blank.png,5,"[""walnut.png""]","[""walnut.png""]","[""walnut.png""]","[""walnut.png""]","[""walnut.png""]",blank.png,PB16.png,,,,,,,,,,,1,,,,,,,,,,,,2352.097999999998,,timeout,,,,,,,,,,,,,3,,,,,,,,,,,,,,,,,,,,,,,,,,,,,,,,,,,,,,,,,,,,,,,,,,,,,,,,,"[""walnut.png""]","[""peanut_cracker.png""]",,,,1,,,false,,1,,,,,,,1042219.3850000001,1042217.431,1040015.462,1041748.4550000002,1041733.605,1044085.703,,,,
choice,canvas.Screen,2_4_3_6_1_0_0_0_0_2_2,2021-01-14T18:47:41.569Z,,,blank.png,"[""peanut_cracker.png""]",blank.png,blank.png,blank.png,blank.png,blank.png,blank.png,blank.png,blank.png,blank.png,blank.png,blank.png,,,,,,,,,,,,,,,,,,,,,,,,,,,,,"[""peanut_cracker.png""]","[""walnut.png""]",PB16.png,,,,,,,,,,,0,6,"[""walnut.png""]","[""walnut.png""]","[""walnut.png""]","[""walnut.png""]","[""walnut.png""]","[""walnut.png""]",blank.png,PB18.png,PB18.png,"[""walnut.png""]","[""walnut.png""]","[""walnut.png""]","[""walnut.png""]","[""walnut.png""]",blank.png,"[""walnut.png""]","[""walnut.png""]","[""walnut.png""]","[""walnut.png""]","[""walnut.png""]","[""walnut.png""]",1,"[""peanut_cracker.png""]",blank.png,blank.png,blank.png,5,"[""walnut.png""]","[""walnut.png""]","[""walnut.png""]","[""walnut.png""]","[""walnut.png""]",blank.png,PB16.png,,,,,,,,,,,1,,,,,,,,,,,,576.7390000004089,,response,,,,,,,,,,,,,3,,,,,,,,,,,,,,,,,,,,,,,,,,,,,,,,,,,,,,,,,,,,,,,,,,,,,,,,,"[""walnut.png""]","[""peanut_cracker.png""]",,,,1,left,keydown(ArrowLeft),false,,1,,,,,,,1044092.6550000001,1042794.1700000004,1042217.431,1044070.5150000001,,1045854.004,,3,,
square,canvas.Screen,2_4_3_6_1_0_0_0_0_2_3,2021-01-14T18:47:44.317Z,,,blank.png,"[""peanut_cracker.png""]",blank.png,blank.png,blank.png,blank.png,blank.png,blank.png,blank.png,blank.png,blank.png,blank.png,blank.png,,,,,,,,,,,,,,,,,,,,,,,,,,,,,"[""peanut_cracker.png""]","[""walnut.png""]",PB16.png,,,,,,,,,,,0,6,"[""walnut.png""]","[""walnut.png""]","[""walnut.png""]","[""walnut.png""]","[""walnut.png""]","[""walnut.png""]",blank.png,PB18.png,PB18.png,"[""walnut.png""]","[""walnut.png""]","[""walnut.png""]","[""walnut.png""]","[""walnut.png""]",blank.png,"[""walnut.png""]","[""walnut.png""]","[""walnut.png""]","[""walnut.png""]","[""walnut.png""]","[""walnut.png""]",1,"[""peanut_cracker.png""]",blank.png,blank.png,blank.png,5,"[""walnut.png""]","[""walnut.png""]","[""walnut.png""]","[""walnut.png""]","[""walnut.png""]",blank.png,PB16.png,,,,,,,,,,,1,,#33ff3f,#808080,,,,,,,,,1000.9629999999888,,timeout,,,,,,,,,,,,,3,,,,,,,,,,,,,,,,,,,,,,,,,,,,,,,,,,,,,,,,,,,,,,,,,,,,,,,,,"[""walnut.png""]","[""peanut_cracker.png""]",,,,1,,,false,,1,,,,,black,white,1046839.8650000001,1046838.286,1044085.703,1045821.205,1045854.004,1046854.967,,,,
ITI_late,canvas.Screen,2_4_3_6_1_0_0_0_0_2_4,2021-01-14T18:47:45.067Z,,,blank.png,"[""peanut_cracker.png""]",blank.png,blank.png,blank.png,blank.png,blank.png,blank.png,blank.png,blank.png,blank.png,blank.png,blank.png,,,,,,,,,,,,,,,,,,,,,,,,,,,,,"[""peanut_cracker.png""]","[""walnut.png""]",PB16.png,,,,,,,,,,,0,6,"[""walnut.png""]","[""walnut.png""]","[""walnut.png""]","[""walnut.png""]","[""walnut.png""]","[""walnut.png""]",blank.png,PB18.png,PB18.png,"[""walnut.png""]","[""walnut.png""]","[""walnut.png""]","[""walnut.png""]","[""walnut.png""]",blank.png,"[""walnut.png""]","[""walnut.png""]","[""walnut.png""]","[""walnut.png""]","[""walnut.png""]","[""walnut.png""]",1,"[""peanut_cracker.png""]",blank.png,blank.png,blank.png,5,"[""walnut.png""]","[""walnut.png""]","[""walnut.png""]","[""walnut.png""]","[""walnut.png""]",blank.png,PB16.png,,,,,,,,,,,1,,,,,,,,,,,,750.7070000000531,,timeout,,,,,,,,,,,,white,3,,,,,,,,,,,,,,,,,,,,,,,,,,,,,,,,,,,,,,,,,,,,,,,,,,,,,,,,,"[""walnut.png""]","[""peanut_cracker.png""]",,,,1,,,false,,1,,,,,,,1047590.1150000002,1047588.993,1046838.286,1046844.3300000001,1046854.967,1047605.674,,,,
choice_sequence,flow.Sequence,2_4_3_6_1_0_0_0_0_2,2021-01-14T18:47:45.070Z,,,blank.png,"[""peanut_cracker.png""]",blank.png,blank.png,blank.png,blank.png,blank.png,blank.png,blank.png,blank.png,blank.png,blank.png,blank.png,,,,,,,,,,,,,,,,,,,,,,,,,,,,,"[""peanut_cracker.png""]","[""walnut.png""]",PB16.png,,,,,,,,,,,0,6,"[""walnut.png""]","[""walnut.png""]","[""walnut.png""]","[""walnut.png""]","[""walnut.png""]","[""walnut.png""]",blank.png,PB18.png,PB18.png,"[""walnut.png""]","[""walnut.png""]","[""walnut.png""]","[""walnut.png""]","[""walnut.png""]",blank.png,"[""walnut.png""]","[""walnut.png""]","[""walnut.png""]","[""walnut.png""]","[""walnut.png""]","[""walnut.png""]",1,"[""peanut_cracker.png""]",blank.png,blank.png,blank.png,5,"[""walnut.png""]","[""walnut.png""]","[""walnut.png""]","[""walnut.png""]","[""walnut.png""]",blank.png,PB16.png,,,,,,,,,,,1,,,,,,,,,,,,7857.14300000004,,completion,,,,,,,,,,,,,3,,,,,,,,,,,,,,,,,,,,,,,,,,,,,,,,,,,,,,,,,,,,,,,,,,,,,,,,,"[""walnut.png""]","[""peanut_cracker.png""]",,,,1,,,false,,1,,,,,,,1047593.0700000002,1047588.993,1039715.169,1039728.1650000003,1039731.85,1047605.674,,,,
fixCross,canvas.Screen,2_4_3_6_1_0_0_0_0_3_0,2021-01-14T18:47:45.468Z,,,blank.png,blank.png,blank.png,blank.png,blank.png,blank.png,blank.png,"[""peanut_cracker.png""]",blank.png,blank.png,blank.png,blank.png,blank.png,,,,,,,,,,,,,,,,,,,,,,,,,,,,,"[""peanut_cracker.png""]","[""walnut.png""]",PB18.png,,,,,,,,,,,0,6,"[""walnut.png""]","[""walnut.png""]","[""walnut.png""]","[""walnut.png""]","[""walnut.png""]","[""walnut.png""]",blank.png,PB18.png,PB14.png,"[""walnut.png""]","[""walnut.png""]","[""walnut.png""]","[""walnut.png""]","[""walnut.png""]","[""walnut.png""]","[""walnut.png""]","[""walnut.png""]","[""walnut.png""]",blank.png,blank.png,blank.png,1,"[""peanut_cracker.png""]",blank.png,blank.png,blank.png,3,"[""walnut.png""]","[""walnut.png""]","[""walnut.png""]",blank.png,blank.png,blank.png,PB14.png,,,,,,,,,,,1,,,,,,,,,,,,1935.0350000000326,,timeout,,,,,,,,,,,,,4,,,,,,,,,,,,,,,,,,,,,,,,,,,,,,,,,,,,,,,,,,,,,,,,,,,,,,,,,"[""walnut.png""]","[""peanut_cracker.png""]",,,,1,,,false,,1,,,,,,,1047990.955,1047989.376,1047588.993,1047611.3950000001,1047605.674,1049540.709,4,,,
timeout,canvas.Screen,2_4_3_6_1_0_0_0_0_3_1,2021-01-14T18:47:47.503Z,,,blank.png,blank.png,blank.png,blank.png,blank.png,blank.png,blank.png,"[""peanut_cracker.png""]",blank.png,blank.png,blank.png,blank.png,blank.png,,,,,,,,,,,,,,,,,,,,,,,,,,,,,"[""peanut_cracker.png""]","[""walnut.png""]",PB18.png,,,,,,,,,,,0,6,"[""walnut.png""]","[""walnut.png""]","[""walnut.png""]","[""walnut.png""]","[""walnut.png""]","[""walnut.png""]",blank.png,PB18.png,PB14.png,"[""walnut.png""]","[""walnut.png""]","[""walnut.png""]","[""walnut.png""]","[""walnut.png""]","[""walnut.png""]","[""walnut.png""]","[""walnut.png""]","[""walnut.png""]",blank.png,blank.png,blank.png,1,"[""peanut_cracker.png""]",blank.png,blank.png,blank.png,3,"[""walnut.png""]","[""walnut.png""]","[""walnut.png""]",blank.png,blank.png,blank.png,PB14.png,,,,,,,,,,,1,,,,,,,,,,,,2085.2079999998678,,timeout,,,,,,,,,,,,,4,,,,,,,,,,,,,,,,,,,,,,,,,,,,,,,,,,,,,,,,,,,,,,,,,,,,,,,,,"[""walnut.png""]","[""peanut_cracker.png""]",,,,1,,,false,,1,,,,,,,1050026.0800000003,1050024.541,1047989.376,1049554.0750000002,1049540.709,1051625.917,,,,
choice,canvas.Screen,2_4_3_6_1_0_0_0_0_3_2,2021-01-14T18:47:49.109Z,,,blank.png,blank.png,blank.png,blank.png,blank.png,blank.png,blank.png,"[""peanut_cracker.png""]",blank.png,blank.png,blank.png,blank.png,blank.png,,,,,,,,,,,,,,,,,,,,,,,,,,,,,"[""peanut_cracker.png""]","[""walnut.png""]",PB18.png,,,,,,,,,,,0,6,"[""walnut.png""]","[""walnut.png""]","[""walnut.png""]","[""walnut.png""]","[""walnut.png""]","[""walnut.png""]",blank.png,PB18.png,PB14.png,"[""walnut.png""]","[""walnut.png""]","[""walnut.png""]","[""walnut.png""]","[""walnut.png""]","[""walnut.png""]","[""walnut.png""]","[""walnut.png""]","[""walnut.png""]",blank.png,blank.png,blank.png,1,"[""peanut_cracker.png""]",blank.png,blank.png,blank.png,3,"[""walnut.png""]","[""walnut.png""]","[""walnut.png""]",blank.png,blank.png,blank.png,PB14.png,,,,,,,,,,,1,,,,,,,,,,,,750.1340000003111,,response,,,,,,,,,,,,,4,,,,,,,,,,,,,,,,,,,,,,,,,,,,,,,,,,,,,,,,,,,,,,,,,,,,,,,,,"[""walnut.png""]","[""peanut_cracker.png""]",,,,1,left,keydown(ArrowLeft),false,,1,,,,,,,1051631.9500000002,1050774.6750000003,1050024.541,1051611.4950000003,,1053360.843,,4,,
square,canvas.Screen,2_4_3_6_1_0_0_0_0_3_3,2021-01-14T18:47:51.823Z,,,blank.png,blank.png,blank.png,blank.png,blank.png,blank.png,blank.png,"[""peanut_cracker.png""]",blank.png,blank.png,blank.png,blank.png,blank.png,,,,,,,,,,,,,,,,,,,,,,,,,,,,,"[""peanut_cracker.png""]","[""walnut.png""]",PB18.png,,,,,,,,,,,0,6,"[""walnut.png""]","[""walnut.png""]","[""walnut.png""]","[""walnut.png""]","[""walnut.png""]","[""walnut.png""]",blank.png,PB18.png,PB14.png,"[""walnut.png""]","[""walnut.png""]","[""walnut.png""]","[""walnut.png""]","[""walnut.png""]","[""walnut.png""]","[""walnut.png""]","[""walnut.png""]","[""walnut.png""]",blank.png,blank.png,blank.png,1,"[""peanut_cracker.png""]",blank.png,blank.png,blank.png,3,"[""walnut.png""]","[""walnut.png""]","[""walnut.png""]",blank.png,blank.png,blank.png,PB14.png,,,,,,,,,,,1,,#33ff3f,#808080,,,,,,,,,1000.9560000000056,,timeout,,,,,,,,,,,,,4,,,,,,,,,,,,,,,,,,,,,,,,,,,,,,,,,,,,,,,,,,,,,,,,,,,,,,,,,"[""walnut.png""]","[""peanut_cracker.png""]",,,,1,,,false,,1,,,,,black,white,1054346.2300000004,1054345.118,1051625.917,1053297.85,1053360.843,1054361.799,,,,
ITI_late,canvas.Screen,2_4_3_6_1_0_0_0_0_3_4,2021-01-14T18:47:52.327Z,,,blank.png,blank.png,blank.png,blank.png,blank.png,blank.png,blank.png,"[""peanut_cracker.png""]",blank.png,blank.png,blank.png,blank.png,blank.png,,,,,,,,,,,,,,,,,,,,,,,,,,,,,"[""peanut_cracker.png""]","[""walnut.png""]",PB18.png,,,,,,,,,,,0,6,"[""walnut.png""]","[""walnut.png""]","[""walnut.png""]","[""walnut.png""]","[""walnut.png""]","[""walnut.png""]",blank.png,PB18.png,PB14.png,"[""walnut.png""]","[""walnut.png""]","[""walnut.png""]","[""walnut.png""]","[""walnut.png""]","[""walnut.png""]","[""walnut.png""]","[""walnut.png""]","[""walnut.png""]",blank.png,blank.png,blank.png,1,"[""peanut_cracker.png""]",blank.png,blank.png,blank.png,3,"[""walnut.png""]","[""walnut.png""]","[""walnut.png""]",blank.png,blank.png,blank.png,PB14.png,,,,,,,,,,,1,,,,,,,,,,,,500.49199999985285,,timeout,,,,,,,,,,,,white,4,,,,,,,,,,,,,,,,,,,,,,,,,,,,,,,,,,,,,,,,,,,,,,,,,,,,,,,,,"[""walnut.png""]","[""peanut_cracker.png""]",,,,1,,,false,,1,,,,,,,1054850.09,1054845.61,1054345.118,1054351.57,1054361.799,1054862.291,,,,
choice_sequence,flow.Sequence,2_4_3_6_1_0_0_0_0_3,2021-01-14T18:47:52.328Z,,,blank.png,blank.png,blank.png,blank.png,blank.png,blank.png,blank.png,"[""peanut_cracker.png""]",blank.png,blank.png,blank.png,blank.png,blank.png,,,,,,,,,,,,,,,,,,,,,,,,,,,,,"[""peanut_cracker.png""]","[""walnut.png""]",PB18.png,,,,,,,,,,,0,6,"[""walnut.png""]","[""walnut.png""]","[""walnut.png""]","[""walnut.png""]","[""walnut.png""]","[""walnut.png""]",blank.png,PB18.png,PB14.png,"[""walnut.png""]","[""walnut.png""]","[""walnut.png""]","[""walnut.png""]","[""walnut.png""]","[""walnut.png""]","[""walnut.png""]","[""walnut.png""]","[""walnut.png""]",blank.png,blank.png,blank.png,1,"[""peanut_cracker.png""]",blank.png,blank.png,blank.png,3,"[""walnut.png""]","[""walnut.png""]","[""walnut.png""]",blank.png,blank.png,blank.png,PB14.png,,,,,,,,,,,1,,,,,,,,,,,,7239.936000000103,,completion,,,,,,,,,,,,,4,,,,,,,,,,,,,,,,,,,,,,,,,,,,,,,,,,,,,,,,,,,,,,,,,,,,,,,,,"[""walnut.png""]","[""peanut_cracker.png""]",,,,1,,,false,,1,,,,,,,1054851.1900000002,1054845.61,1047588.993,1047607.025,1047605.674,1054862.291,,,,
fixCross,canvas.Screen,2_4_3_6_1_0_0_0_0_4_0,2021-01-14T18:47:52.575Z,,,blank.png,blank.png,blank.png,blank.png,blank.png,blank.png,blank.png,"[""peanut_cracker.png""]",blank.png,blank.png,blank.png,blank.png,blank.png,,,,,,,,,,,,,,,,,,,,,,,,,,,,,"[""peanut_cracker.png""]","[""walnut.png""]",PB18.png,,,,,,,,,,,0,6,"[""walnut.png""]","[""walnut.png""]","[""walnut.png""]","[""walnut.png""]","[""walnut.png""]","[""walnut.png""]",blank.png,PB18.png,PB07.png,"[""walnut.png""]","[""walnut.png""]","[""walnut.png""]","[""walnut.png""]","[""walnut.png""]","[""walnut.png""]","[""walnut.png""]",blank.png,blank.png,blank.png,blank.png,blank.png,1,"[""peanut_cracker.png""]",blank.png,blank.png,blank.png,1,"[""walnut.png""]",blank.png,blank.png,blank.png,blank.png,blank.png,PB07.png,,,,,,,,,,,1,,,,,,,,,,,,1734.8580000000075,,timeout,,,,,,,,,,,,,4,,,,,,,,,,,,,,,,,,,,,,,,,,,,,,,,,,,,,,,,,,,,,,,,,,,,,,,,,"[""walnut.png""]","[""peanut_cracker.png""]",,,,1,,,false,,1,,,,,,,1055097.7800000003,1055095.859,1054845.61,1054871.3900000001,1054862.291,1056597.149,5,,,
timeout,canvas.Screen,2_4_3_6_1_0_0_0_0_4_1,2021-01-14T18:47:54.559Z,,,blank.png,blank.png,blank.png,blank.png,blank.png,blank.png,blank.png,"[""peanut_cracker.png""]",blank.png,blank.png,blank.png,blank.png,blank.png,,,,,,,,,,,,,,,,,,,,,,,,,,,,,"[""peanut_cracker.png""]","[""walnut.png""]",PB18.png,,,,,,,,,,,0,6,"[""walnut.png""]","[""walnut.png""]","[""walnut.png""]","[""walnut.png""]","[""walnut.png""]","[""walnut.png""]",blank.png,PB18.png,PB07.png,"[""walnut.png""]","[""walnut.png""]","[""walnut.png""]","[""walnut.png""]","[""walnut.png""]","[""walnut.png""]","[""walnut.png""]",blank.png,blank.png,blank.png,blank.png,blank.png,1,"[""peanut_cracker.png""]",blank.png,blank.png,blank.png,1,"[""walnut.png""]",blank.png,blank.png,blank.png,blank.png,blank.png,PB07.png,,,,,,,,,,,1,,,,,,,,,,,,1935.063000000082,,timeout,,,,,,,,,,,,,4,,,,,,,,,,,,,,,,,,,,,,,,,,,,,,,,,,,,,,,,,,,,,,,,,,,,,,,,,"[""walnut.png""]","[""peanut_cracker.png""]",,,,1,,,false,,1,,,,,,,1057082.22,1057080.965,1055095.859,1056620.905,1056597.149,1058532.212,,,,
choice,canvas.Screen,2_4_3_6_1_0_0_0_0_4_2,2021-01-14T18:47:56.021Z,,,blank.png,blank.png,blank.png,blank.png,blank.png,blank.png,blank.png,"[""peanut_cracker.png""]",blank.png,blank.png,blank.png,blank.png,blank.png,,,,,,,,,,,,,,,,,,,,,,,,,,,,,"[""peanut_cracker.png""]","[""walnut.png""]",PB18.png,,,,,,,,,,,0,6,"[""walnut.png""]","[""walnut.png""]","[""walnut.png""]","[""walnut.png""]","[""walnut.png""]","[""walnut.png""]",blank.png,PB18.png,PB07.png,"[""walnut.png""]","[""walnut.png""]","[""walnut.png""]","[""walnut.png""]","[""walnut.png""]","[""walnut.png""]","[""walnut.png""]",blank.png,blank.png,blank.png,blank.png,blank.png,1,"[""peanut_cracker.png""]",blank.png,blank.png,blank.png,1,"[""walnut.png""]",blank.png,blank.png,blank.png,blank.png,blank.png,PB07.png,,,,,,,,,,,1,,,,,,,,,,,,110.84000000008382,,response,,,,,,,,,,,,,4,,,,,,,,,,,,,,,,,,,,,,,,,,,,,,,,,,,,,,,,,,,,,,,,,,,,,,,,,"[""walnut.png""]","[""peanut_cracker.png""]",,,,1,left,keydown(ArrowLeft),false,,1,,,,,,,1058544.22,1057191.8050000002,1057080.965,1058520.875,,1060133.688,,5,,
square,canvas.Screen,2_4_3_6_1_0_0_0_0_4_3,2021-01-14T18:47:58.597Z,,,blank.png,blank.png,blank.png,blank.png,blank.png,blank.png,blank.png,"[""peanut_cracker.png""]",blank.png,blank.png,blank.png,blank.png,blank.png,,,,,,,,,,,,,,,,,,,,,,,,,,,,,"[""peanut_cracker.png""]","[""walnut.png""]",PB18.png,,,,,,,,,,,0,6,"[""walnut.png""]","[""walnut.png""]","[""walnut.png""]","[""walnut.png""]","[""walnut.png""]","[""walnut.png""]",blank.png,PB18.png,PB07.png,"[""walnut.png""]","[""walnut.png""]","[""walnut.png""]","[""walnut.png""]","[""walnut.png""]","[""walnut.png""]","[""walnut.png""]",blank.png,blank.png,blank.png,blank.png,blank.png,1,"[""peanut_cracker.png""]",blank.png,blank.png,blank.png,1,"[""walnut.png""]",blank.png,blank.png,blank.png,blank.png,blank.png,PB07.png,,,,,,,,,,,1,,#33ff3f,#808080,,,,,,,,,1000.9469999999274,,timeout,,,,,,,,,,,,,4,,,,,,,,,,,,,,,,,,,,,,,,,,,,,,,,,,,,,,,,,,,,,,,,,,,,,,,,,"[""walnut.png""]","[""peanut_cracker.png""]",,,,1,,,false,,1,,,,,black,white,1061120.005,1061117.954,1058532.212,1060067.4300000004,1060133.688,1061134.635,,,,
ITI_late,canvas.Screen,2_4_3_6_1_0_0_0_0_4_4,2021-01-14T18:47:58.848Z,,,blank.png,blank.png,blank.png,blank.png,blank.png,blank.png,blank.png,"[""peanut_cracker.png""]",blank.png,blank.png,blank.png,blank.png,blank.png,,,,,,,,,,,,,,,,,,,,,,,,,,,,,"[""peanut_cracker.png""]","[""walnut.png""]",PB18.png,,,,,,,,,,,0,6,"[""walnut.png""]","[""walnut.png""]","[""walnut.png""]","[""walnut.png""]","[""walnut.png""]","[""walnut.png""]",blank.png,PB18.png,PB07.png,"[""walnut.png""]","[""walnut.png""]","[""walnut.png""]","[""walnut.png""]","[""walnut.png""]","[""walnut.png""]","[""walnut.png""]",blank.png,blank.png,blank.png,blank.png,blank.png,1,"[""peanut_cracker.png""]",blank.png,blank.png,blank.png,1,"[""walnut.png""]",blank.png,blank.png,blank.png,blank.png,blank.png,PB07.png,,,,,,,,,,,1,,,,,,,,,,,,250.2719999998808,,timeout,,,,,,,,,,,,white,4,,,,,,,,,,,,,,,,,,,,,,,,,,,,,,,,,,,,,,,,,,,,,,,,,,,,,,,,,"[""walnut.png""]","[""peanut_cracker.png""]",,,,1,,,false,,1,,,,,,,1061370.81,1061368.226,1061117.954,1061126.7650000001,1061134.635,1061384.907,,,,
choice_sequence,flow.Sequence,2_4_3_6_1_0_0_0_0_4,2021-01-14T18:47:58.849Z,,,blank.png,blank.png,blank.png,blank.png,blank.png,blank.png,blank.png,"[""peanut_cracker.png""]",blank.png,blank.png,blank.png,blank.png,blank.png,,,,,,,,,,,,,,,,,,,,,,,,,,,,,"[""peanut_cracker.png""]","[""walnut.png""]",PB18.png,,,,,,,,,,,0,6,"[""walnut.png""]","[""walnut.png""]","[""walnut.png""]","[""walnut.png""]","[""walnut.png""]","[""walnut.png""]",blank.png,PB18.png,PB07.png,"[""walnut.png""]","[""walnut.png""]","[""walnut.png""]","[""walnut.png""]","[""walnut.png""]","[""walnut.png""]","[""walnut.png""]",blank.png,blank.png,blank.png,blank.png,blank.png,1,"[""peanut_cracker.png""]",blank.png,blank.png,blank.png,1,"[""walnut.png""]",blank.png,blank.png,blank.png,blank.png,blank.png,PB07.png,,,,,,,,,,,1,,,,,,,,,,,,6505.935000000056,,completion,,,,,,,,,,,,,4,,,,,,,,,,,,,,,,,,,,,,,,,,,,,,,,,,,,,,,,,,,,,,,,,,,,,,,,,"[""walnut.png""]","[""peanut_cracker.png""]",,,,1,,,false,,1,,,,,,,1061371.9350000003,1061368.226,1054845.61,1054864.2850000004,1054862.291,1061384.907,,,,
fixCross,canvas.Screen,2_4_3_6_1_0_0_0_0_5_0,2021-01-14T18:47:59.346Z,,,blank.png,"[""peanut_cracker.png""]",blank.png,blank.png,blank.png,blank.png,blank.png,blank.png,blank.png,blank.png,blank.png,blank.png,blank.png,,,,,,,,,,,,,,,,,,,,,,,,,,,,,"[""peanut_cracker.png""]","[""walnut.png""]",PB17.png,,,,,,,,,,,0,6,"[""walnut.png""]","[""walnut.png""]","[""walnut.png""]","[""walnut.png""]","[""walnut.png""]","[""walnut.png""]",blank.png,PB18.png,PB18.png,"[""walnut.png""]","[""walnut.png""]","[""walnut.png""]","[""walnut.png""]","[""walnut.png""]","[""walnut.png""]","[""walnut.png""]","[""walnut.png""]","[""walnut.png""]","[""walnut.png""]","[""walnut.png""]","[""walnut.png""]",1,"[""peanut_cracker.png""]",blank.png,blank.png,blank.png,6,"[""walnut.png""]","[""walnut.png""]","[""walnut.png""]","[""walnut.png""]","[""walnut.png""]","[""walnut.png""]",PB17.png,,,,,,,,,,,1,,,,,,,,,,,,2435.4490000000224,,timeout,,,,,,,,,,,,,3,,,,,,,,,,,,,,,,,,,,,,,,,,,,,,,,,,,,,,,,,,,,,,,,,,,,,,,,,"[""walnut.png""]","[""peanut_cracker.png""]",,,,1,,,false,,1,,,,,,,1061869.5950000004,1061868.679,1061368.226,1061393.1950000003,1061384.907,1063820.356,6,,,
timeout,canvas.Screen,2_4_3_6_1_0_0_0_0_5_1,2021-01-14T18:48:01.782Z,,,blank.png,"[""peanut_cracker.png""]",blank.png,blank.png,blank.png,blank.png,blank.png,blank.png,blank.png,blank.png,blank.png,blank.png,blank.png,,,,,,,,,,,,,,,,,,,,,,,,,,,,,"[""peanut_cracker.png""]","[""walnut.png""]",PB17.png,,,,,,,,,,,0,6,"[""walnut.png""]","[""walnut.png""]","[""walnut.png""]","[""walnut.png""]","[""walnut.png""]","[""walnut.png""]",blank.png,PB18.png,PB18.png,"[""walnut.png""]","[""walnut.png""]","[""walnut.png""]","[""walnut.png""]","[""walnut.png""]","[""walnut.png""]","[""walnut.png""]","[""walnut.png""]","[""walnut.png""]","[""walnut.png""]","[""walnut.png""]","[""walnut.png""]",1,"[""peanut_cracker.png""]",blank.png,blank.png,blank.png,6,"[""walnut.png""]","[""walnut.png""]","[""walnut.png""]","[""walnut.png""]","[""walnut.png""]","[""walnut.png""]",PB17.png,,,,,,,,,,,1,,,,,,,,,,,,2285.591000000015,,timeout,,,,,,,,,,,,,3,,,,,,,,,,,,,,,,,,,,,,,,,,,,,,,,,,,,,,,,,,,,,,,,,,,,,,,,,"[""walnut.png""]","[""peanut_cracker.png""]",,,,1,,,false,,1,,,,,,,1064305.5850000002,1064304.291,1061868.679,1063834.9500000002,1063820.356,1066105.947,,,,
choice,canvas.Screen,2_4_3_6_1_0_0_0_0_5_2,2021-01-14T18:48:03.599Z,,,blank.png,"[""peanut_cracker.png""]",blank.png,blank.png,blank.png,blank.png,blank.png,blank.png,blank.png,blank.png,blank.png,blank.png,blank.png,,,,,,,,,,,,,,,,,,,,,,,,,,,,,"[""peanut_cracker.png""]","[""walnut.png""]",PB17.png,,,,,,,,,,,0,6,"[""walnut.png""]","[""walnut.png""]","[""walnut.png""]","[""walnut.png""]","[""walnut.png""]","[""walnut.png""]",blank.png,PB18.png,PB18.png,"[""walnut.png""]","[""walnut.png""]","[""walnut.png""]","[""walnut.png""]","[""walnut.png""]","[""walnut.png""]","[""walnut.png""]","[""walnut.png""]","[""walnut.png""]","[""walnut.png""]","[""walnut.png""]","[""walnut.png""]",1,"[""peanut_cracker.png""]",blank.png,blank.png,blank.png,6,"[""walnut.png""]","[""walnut.png""]","[""walnut.png""]","[""walnut.png""]","[""walnut.png""]","[""walnut.png""]",PB17.png,,,,,,,,,,,1,,,,,,,,,,,,506.7990000003483,,response,,,,,,,,,,,,,3,,,,,,,,,,,,,,,,,,,,,,,,,,,,,,,,,,,,,,,,,,,,,,,,,,,,,,,,,"[""walnut.png""]","[""peanut_cracker.png""]",,,,1,left,keydown(ArrowLeft),false,,1,,,,,,,1066122.6200000003,1064811.0900000003,1064304.291,1066102.4,,1067840.69,,6,,
square,canvas.Screen,2_4_3_6_1_0_0_0_0_5_3,2021-01-14T18:48:06.303Z,,,blank.png,"[""peanut_cracker.png""]",blank.png,blank.png,blank.png,blank.png,blank.png,blank.png,blank.png,blank.png,blank.png,blank.png,blank.png,,,,,,,,,,,,,,,,,,,,,,,,,,,,,"[""peanut_cracker.png""]","[""walnut.png""]",PB17.png,,,,,,,,,,,0,6,"[""walnut.png""]","[""walnut.png""]","[""walnut.png""]","[""walnut.png""]","[""walnut.png""]","[""walnut.png""]",blank.png,PB18.png,PB18.png,"[""walnut.png""]","[""walnut.png""]","[""walnut.png""]","[""walnut.png""]","[""walnut.png""]","[""walnut.png""]","[""walnut.png""]","[""walnut.png""]","[""walnut.png""]","[""walnut.png""]","[""walnut.png""]","[""walnut.png""]",1,"[""peanut_cracker.png""]",blank.png,blank.png,blank.png,6,"[""walnut.png""]","[""walnut.png""]","[""walnut.png""]","[""walnut.png""]","[""walnut.png""]","[""walnut.png""]",PB17.png,,,,,,,,,,,1,,#33ff3f,#808080,,,,,,,,,1000.9570000001695,,timeout,,,,,,,,,,,,,3,,,,,,,,,,,,,,,,,,,,,,,,,,,,,,,,,,,,,,,,,,,,,,,,,,,,,,,,,"[""walnut.png""]","[""peanut_cracker.png""]",,,,1,,,false,,1,,,,,black,white,1068825.8950000003,1068824.966,1066105.947,1067835.8650000002,1067840.69,1068841.647,,,,
ITI_late,canvas.Screen,2_4_3_6_1_0_0_0_0_5_4,2021-01-14T18:48:07.555Z,,,blank.png,"[""peanut_cracker.png""]",blank.png,blank.png,blank.png,blank.png,blank.png,blank.png,blank.png,blank.png,blank.png,blank.png,blank.png,,,,,,,,,,,,,,,,,,,,,,,,,,,,,"[""peanut_cracker.png""]","[""walnut.png""]",PB17.png,,,,,,,,,,,0,6,"[""walnut.png""]","[""walnut.png""]","[""walnut.png""]","[""walnut.png""]","[""walnut.png""]","[""walnut.png""]",blank.png,PB18.png,PB18.png,"[""walnut.png""]","[""walnut.png""]","[""walnut.png""]","[""walnut.png""]","[""walnut.png""]","[""walnut.png""]","[""walnut.png""]","[""walnut.png""]","[""walnut.png""]","[""walnut.png""]","[""walnut.png""]","[""walnut.png""]",1,"[""peanut_cracker.png""]",blank.png,blank.png,blank.png,6,"[""walnut.png""]","[""walnut.png""]","[""walnut.png""]","[""walnut.png""]","[""walnut.png""]","[""walnut.png""]",PB17.png,,,,,,,,,,,1,,,,,,,,,,,,1251.1359999999404,,timeout,,,,,,,,,,,,white,3,,,,,,,,,,,,,,,,,,,,,,,,,,,,,,,,,,,,,,,,,,,,,,,,,,,,,,,,,"[""walnut.png""]","[""peanut_cracker.png""]",,,,1,,,false,,1,,,,,,,1070078.44,1070076.102,1068824.966,1068833.3600000003,1068841.647,1070092.783,,,,
choice_sequence,flow.Sequence,2_4_3_6_1_0_0_0_0_5,2021-01-14T18:48:07.556Z,,,blank.png,"[""peanut_cracker.png""]",blank.png,blank.png,blank.png,blank.png,blank.png,blank.png,blank.png,blank.png,blank.png,blank.png,blank.png,,,,,,,,,,,,,,,,,,,,,,,,,,,,,"[""peanut_cracker.png""]","[""walnut.png""]",PB17.png,,,,,,,,,,,0,6,"[""walnut.png""]","[""walnut.png""]","[""walnut.png""]","[""walnut.png""]","[""walnut.png""]","[""walnut.png""]",blank.png,PB18.png,PB18.png,"[""walnut.png""]","[""walnut.png""]","[""walnut.png""]","[""walnut.png""]","[""walnut.png""]","[""walnut.png""]","[""walnut.png""]","[""walnut.png""]","[""walnut.png""]","[""walnut.png""]","[""walnut.png""]","[""walnut.png""]",1,"[""peanut_cracker.png""]",blank.png,blank.png,blank.png,6,"[""walnut.png""]","[""walnut.png""]","[""walnut.png""]","[""walnut.png""]","[""walnut.png""]","[""walnut.png""]",PB17.png,,,,,,,,,,,1,,,,,,,,,,,,8691.195000000065,,completion,,,,,,,,,,,,,3,,,,,,,,,,,,,,,,,,,,,,,,,,,,,,,,,,,,,,,,,,,,,,,,,,,,,,,,,"[""walnut.png""]","[""peanut_cracker.png""]",,,,1,,,false,,1,,,,,,,1070079.45,1070076.102,1061368.226,1061387.445,1061384.907,1070092.783,,,,
fixCross,canvas.Screen,2_4_3_6_1_0_0_0_0_6_0,2021-01-14T18:48:07.855Z,,,blank.png,blank.png,blank.png,blank.png,blank.png,blank.png,blank.png,"[""peanut_cracker.png""]",blank.png,blank.png,blank.png,blank.png,blank.png,,,,,,,,,,,,,,,,,,,,,,,,,,,,,"[""peanut_cracker.png""]","[""walnut.png""]",PB18.png,,,,,,,,,,,0,6,"[""walnut.png""]","[""walnut.png""]","[""walnut.png""]","[""walnut.png""]","[""walnut.png""]","[""walnut.png""]",blank.png,PB18.png,PB12.png,"[""walnut.png""]","[""walnut.png""]","[""walnut.png""]","[""walnut.png""]","[""walnut.png""]","[""walnut.png""]","[""walnut.png""]","[""walnut.png""]",blank.png,blank.png,blank.png,blank.png,1,"[""peanut_cracker.png""]",blank.png,blank.png,blank.png,2,"[""walnut.png""]","[""walnut.png""]",blank.png,blank.png,blank.png,blank.png,PB12.png,,,,,,,,,,,1,,,,,,,,,,,,1734.8850000000093,,timeout,,,,,,,,,,,,,4,,,,,,,,,,,,,,,,,,,,,,,,,,,,,,,,,,,,,,,,,,,,,,,,,,,,,,,,,"[""walnut.png""]","[""peanut_cracker.png""]",,,,1,,,false,,1,,,,,,,1070377.8650000002,1070376.421,1070076.102,1070098.8600000003,1070092.783,1071827.668,7,,,
timeout,canvas.Screen,2_4_3_6_1_0_0_0_0_6_1,2021-01-14T18:48:09.792Z,,,blank.png,blank.png,blank.png,blank.png,blank.png,blank.png,blank.png,"[""peanut_cracker.png""]",blank.png,blank.png,blank.png,blank.png,blank.png,,,,,,,,,,,,,,,,,,,,,,,,,,,,,"[""peanut_cracker.png""]","[""walnut.png""]",PB18.png,,,,,,,,,,,0,6,"[""walnut.png""]","[""walnut.png""]","[""walnut.png""]","[""walnut.png""]","[""walnut.png""]","[""walnut.png""]",blank.png,PB18.png,PB12.png,"[""walnut.png""]","[""walnut.png""]","[""walnut.png""]","[""walnut.png""]","[""walnut.png""]","[""walnut.png""]","[""walnut.png""]","[""walnut.png""]",blank.png,blank.png,blank.png,blank.png,1,"[""peanut_cracker.png""]",blank.png,blank.png,blank.png,2,"[""walnut.png""]","[""walnut.png""]",blank.png,blank.png,blank.png,blank.png,PB12.png,,,,,,,,,,,1,,,,,,,,,,,,1918.3980000000447,,timeout,,,,,,,,,,,,,4,,,,,,,,,,,,,,,,,,,,,,,,,,,,,,,,,,,,,,,,,,,,,,,,,,,,,,,,,"[""walnut.png""]","[""peanut_cracker.png""]",,,,1,,,false,,1,,,,,,,1072314.8950000003,1072311.5,1070376.421,1071845.9100000001,1071827.668,1073746.066,,,,
choice,canvas.Screen,2_4_3_6_1_0_0_0_0_6_2,2021-01-14T18:48:11.246Z,,,blank.png,blank.png,blank.png,blank.png,blank.png,blank.png,blank.png,"[""peanut_cracker.png""]",blank.png,blank.png,blank.png,blank.png,blank.png,,,,,,,,,,,,,,,,,,,,,,,,,,,,,"[""peanut_cracker.png""]","[""walnut.png""]",PB18.png,,,,,,,,,,,0,6,"[""walnut.png""]","[""walnut.png""]","[""walnut.png""]","[""walnut.png""]","[""walnut.png""]","[""walnut.png""]",blank.png,PB18.png,PB12.png,"[""walnut.png""]","[""walnut.png""]","[""walnut.png""]","[""walnut.png""]","[""walnut.png""]","[""walnut.png""]","[""walnut.png""]","[""walnut.png""]",blank.png,blank.png,blank.png,blank.png,1,"[""peanut_cracker.png""]",blank.png,blank.png,blank.png,2,"[""walnut.png""]","[""walnut.png""]",blank.png,blank.png,blank.png,blank.png,PB12.png,,,,,,,,,,,1,,,,,,,,,,,,299.125,,response,,,,,,,,,,,,,4,,,,,,,,,,,,,,,,,,,,,,,,,,,,,,,,,,,,,,,,,,,,,,,,,,,,,,,,,"[""walnut.png""]","[""peanut_cracker.png""]",,,,1,left,keydown(ArrowLeft),false,,1,,,,,,,1073768.7700000003,1072610.625,1072311.5,1073727.81,,1075314.177,,7,,
square,canvas.Screen,2_4_3_6_1_0_0_0_0_6_3,2021-01-14T18:48:13.777Z,,,blank.png,blank.png,blank.png,blank.png,blank.png,blank.png,blank.png,"[""peanut_cracker.png""]",blank.png,blank.png,blank.png,blank.png,blank.png,,,,,,,,,,,,,,,,,,,,,,,,,,,,,"[""peanut_cracker.png""]","[""walnut.png""]",PB18.png,,,,,,,,,,,0,6,"[""walnut.png""]","[""walnut.png""]","[""walnut.png""]","[""walnut.png""]","[""walnut.png""]","[""walnut.png""]",blank.png,PB18.png,PB12.png,"[""walnut.png""]","[""walnut.png""]","[""walnut.png""]","[""walnut.png""]","[""walnut.png""]","[""walnut.png""]","[""walnut.png""]","[""walnut.png""]",blank.png,blank.png,blank.png,blank.png,1,"[""peanut_cracker.png""]",blank.png,blank.png,blank.png,2,"[""walnut.png""]","[""walnut.png""]",blank.png,blank.png,blank.png,blank.png,PB12.png,,,,,,,,,,,1,,#33ff3f,#808080,,,,,,,,,1000.943000000203,,timeout,,,,,,,,,,,,,4,,,,,,,,,,,,,,,,,,,,,,,,,,,,,,,,,,,,,,,,,,,,,,,,,,,,,,,,,"[""walnut.png""]","[""peanut_cracker.png""]",,,,1,,,false,,1,,,,,black,white,1076300.1850000003,1076298.439,1073746.066,1075310.475,1075314.177,1076315.12,,,,
ITI_late,canvas.Screen,2_4_3_6_1_0_0_0_0_6_4,2021-01-14T18:48:14.530Z,,,blank.png,blank.png,blank.png,blank.png,blank.png,blank.png,blank.png,"[""peanut_cracker.png""]",blank.png,blank.png,blank.png,blank.png,blank.png,,,,,,,,,,,,,,,,,,,,,,,,,,,,,"[""peanut_cracker.png""]","[""walnut.png""]",PB18.png,,,,,,,,,,,0,6,"[""walnut.png""]","[""walnut.png""]","[""walnut.png""]","[""walnut.png""]","[""walnut.png""]","[""walnut.png""]",blank.png,PB18.png,PB12.png,"[""walnut.png""]","[""walnut.png""]","[""walnut.png""]","[""walnut.png""]","[""walnut.png""]","[""walnut.png""]","[""walnut.png""]","[""walnut.png""]",blank.png,blank.png,blank.png,blank.png,1,"[""peanut_cracker.png""]",blank.png,blank.png,blank.png,2,"[""walnut.png""]","[""walnut.png""]",blank.png,blank.png,blank.png,blank.png,PB12.png,,,,,,,,,,,1,,,,,,,,,,,,817.431999999797,,timeout,,,,,,,,,,,,white,4,,,,,,,,,,,,,,,,,,,,,,,,,,,,,,,,,,,,,,,,,,,,,,,,,,,,,,,,,"[""walnut.png""]","[""peanut_cracker.png""]",,,,1,,,false,,1,,,,,,,1077053.0650000002,1077049.147,1076298.439,1076305.12,1076315.12,1077132.552,,,,
choice_sequence,flow.Sequence,2_4_3_6_1_0_0_0_0_6,2021-01-14T18:48:14.531Z,,,blank.png,blank.png,blank.png,blank.png,blank.png,blank.png,blank.png,"[""peanut_cracker.png""]",blank.png,blank.png,blank.png,blank.png,blank.png,,,,,,,,,,,,,,,,,,,,,,,,,,,,,"[""peanut_cracker.png""]","[""walnut.png""]",PB18.png,,,,,,,,,,,0,6,"[""walnut.png""]","[""walnut.png""]","[""walnut.png""]","[""walnut.png""]","[""walnut.png""]","[""walnut.png""]",blank.png,PB18.png,PB12.png,"[""walnut.png""]","[""walnut.png""]","[""walnut.png""]","[""walnut.png""]","[""walnut.png""]","[""walnut.png""]","[""walnut.png""]","[""walnut.png""]",blank.png,blank.png,blank.png,blank.png,1,"[""peanut_cracker.png""]",blank.png,blank.png,blank.png,2,"[""walnut.png""]","[""walnut.png""]",blank.png,blank.png,blank.png,blank.png,PB12.png,,,,,,,,,,,1,,,,,,,,,,,,6956.36400000006,,completion,,,,,,,,,,,,,4,,,,,,,,,,,,,,,,,,,,,,,,,,,,,,,,,,,,,,,,,,,,,,,,,,,,,,,,,"[""walnut.png""]","[""peanut_cracker.png""]",,,,1,,,false,,1,,,,,,,1077054.1850000003,1077049.147,1070076.102,1070094.155,1070092.783,1077132.552,,,,
choice_loop,flow.Loop,2_4_3_6_1_0_0_0_0,2021-01-14T18:48:14.532Z,,,,,,,,,,,,,,,,,,,,,,,,,,,,,,,,,,,,,,,,,,,,"[""peanut_cracker.png""]","[""walnut.png""]",,,,,,,,,,,,,,,,,,,,,,,,,,,,,,,,,,,,,,,,,,,,,,,,,,,,,,,,,,,,,,,,,,,,,,52147.97500000009,,completion,,,,,,,,,,,,,,,,,,,,,,,,,,,,,,,,,,,,,,,,,,,,,,,,,,,,,,,,,,,,,,,,,,,,,,"[""walnut.png""]","[""peanut_cracker.png""]",,,,1,,,false,,,,,,,,,1077055.2,1077049.147,1024801.086,1024884.4100000004,1024901.172,1077132.552,,,,
choice_frame,html.Frame,2_4_3_6_1_0_0_0,2021-01-14T18:48:14.533Z,,,,,,,,,,,,,,,,,,,,,,,,,,,,,,,,,,,,,,,,,,,,,,,,,,,,,,,,,,,,,,,,,,,,,,,,,,,,,,,,,,,,,,,,,,,,,,,,,,,,,,,,,,,,,,,,,,,52154.388000000035,,,,,,,,,,,,,,,,,,,,,,,,,,,,,,,,,,,,,,,,,,,,,,,,,,,,,,,,,,,,,,,,,,,,,,,,,,,,,1,,,false,,,,,,,,,1077055.8900000004,1077055.56,1024801.086,1024802.2550000002,1024901.172,1077149.233,,,,
sublock_1,flow.Sequence,2_4_3_6_1_0_0,2021-01-14T18:48:14.533Z,,,,,,,,,,,,,,,,,,,,,,,,,,,,,,,,,,,,,,,,,,,,,,,,,,,,,,,,,,,,,,,,,,,,,,,,,,,,,,,,,,,,,,,,,,,,,,,,,,,,,,,,,,,,,,,,,,,52154.388000000035,,completion,,,,,,,,,,,,,,,,,,,,,,,,,,,,,,,,,,,,,,,,,,,,,,,,,,,,,,,,,,,,,,,,,,,,,,,,,,,1,,,false,,,,,,,,,1077056.26,1077055.56,1024801.086,1024802.1650000003,1024901.172,1077149.233,,,,
fixCross,canvas.Screen,2_4_3_6_1_0_1_0_0_0_0,2021-01-14T18:48:15.161Z,,,blank.png,"[""peanut_cracker.png""]",blank.png,blank.png,blank.png,blank.png,blank.png,blank.png,blank.png,blank.png,blank.png,blank.png,blank.png,,,,,,,,,,,,,,,,,,,,,,,,,,,,,"[""peanut_cracker.png""]","[""walnut.png""]",PB15.png,,,,,,,,,,,0,6,"[""walnut.png""]","[""walnut.png""]","[""walnut.png""]","[""walnut.png""]","[""walnut.png""]","[""walnut.png""]",blank.png,PB18.png,PB18.png,"[""walnut.png""]","[""walnut.png""]","[""walnut.png""]","[""walnut.png""]",blank.png,blank.png,"[""walnut.png""]","[""walnut.png""]","[""walnut.png""]","[""walnut.png""]","[""walnut.png""]","[""walnut.png""]",1,"[""peanut_cracker.png""]",blank.png,blank.png,blank.png,4,"[""walnut.png""]","[""walnut.png""]","[""walnut.png""]","[""walnut.png""]",blank.png,blank.png,PB15.png,,,,,,,,,,,1,,,,,,,,,,,,2285.348999999929,,timeout,,,,,,,,,,,,,3,,,,,,,,,,,,,,,,,,,,,,,,,,,,,,,,,,,,,,,,,,,,,,,,,,,,,,,,,"[""walnut.png""]","[""peanut_cracker.png""]",,,,3,,,false,,1,,,,,,,1077684.18,1077683.077,1077132.552,1077146.2800000003,1077149.233,1079434.582,8,,,
timeout,canvas.Screen,2_4_3_6_1_0_1_0_0_0_1,2021-01-14T18:48:17.397Z,,,blank.png,"[""peanut_cracker.png""]",blank.png,blank.png,blank.png,blank.png,blank.png,blank.png,blank.png,blank.png,blank.png,blank.png,blank.png,,,,,,,,,,,,,,,,,,,,,,,,,,,,,"[""peanut_cracker.png""]","[""walnut.png""]",PB15.png,,,,,,,,,,,0,6,"[""walnut.png""]","[""walnut.png""]","[""walnut.png""]","[""walnut.png""]","[""walnut.png""]","[""walnut.png""]",blank.png,PB18.png,PB18.png,"[""walnut.png""]","[""walnut.png""]","[""walnut.png""]","[""walnut.png""]",blank.png,blank.png,"[""walnut.png""]","[""walnut.png""]","[""walnut.png""]","[""walnut.png""]","[""walnut.png""]","[""walnut.png""]",1,"[""peanut_cracker.png""]",blank.png,blank.png,blank.png,4,"[""walnut.png""]","[""walnut.png""]","[""walnut.png""]","[""walnut.png""]",blank.png,blank.png,PB15.png,,,,,,,,,,,1,,,,,,,,,,,,2185.8640000000596,,timeout,,,,,,,,,,,,,3,,,,,,,,,,,,,,,,,,,,,,,,,,,,,,,,,,,,,,,,,,,,,,,,,,,,,,,,,"[""walnut.png""]","[""peanut_cracker.png""]",,,,3,,,false,,1,,,,,,,1079920.6500000001,1079918.678,1077683.077,1079356.0750000004,1079434.582,1081620.446,,,,
choice,canvas.Screen,2_4_3_6_1_0_1_0_0_0_2,2021-01-14T18:48:19.105Z,,,blank.png,"[""peanut_cracker.png""]",blank.png,blank.png,blank.png,blank.png,blank.png,blank.png,blank.png,blank.png,blank.png,blank.png,blank.png,,,,,,,,,,,,,,,,,,,,,,,,,,,,,"[""peanut_cracker.png""]","[""walnut.png""]",PB15.png,,,,,,,,,,,0,6,"[""walnut.png""]","[""walnut.png""]","[""walnut.png""]","[""walnut.png""]","[""walnut.png""]","[""walnut.png""]",blank.png,PB18.png,PB18.png,"[""walnut.png""]","[""walnut.png""]","[""walnut.png""]","[""walnut.png""]",blank.png,blank.png,"[""walnut.png""]","[""walnut.png""]","[""walnut.png""]","[""walnut.png""]","[""walnut.png""]","[""walnut.png""]",1,"[""peanut_cracker.png""]",blank.png,blank.png,blank.png,4,"[""walnut.png""]","[""walnut.png""]","[""walnut.png""]","[""walnut.png""]",blank.png,blank.png,PB15.png,,,,,,,,,,,1,,,,,,,,,,,,916.9920000000857,,response,,,,,,,,,,,,,3,,,,,,,,,,,,,,,,,,,,,,,,,,,,,,,,,,,,,,,,,,,,,,,,,,,,,,,,,"[""walnut.png""]","[""peanut_cracker.png""]",,,,3,left,keydown(ArrowLeft),false,,1,,,,,,,1081628.555,1080835.6700000002,1079918.678,1081606.215,,1083321.45,,8,,
square,canvas.Screen,2_4_3_6_1_0_1_0_0_0_3,2021-01-14T18:48:21.784Z,,,blank.png,"[""peanut_cracker.png""]",blank.png,blank.png,blank.png,blank.png,blank.png,blank.png,blank.png,blank.png,blank.png,blank.png,blank.png,,,,,,,,,,,,,,,,,,,,,,,,,,,,,"[""peanut_cracker.png""]","[""walnut.png""]",PB15.png,,,,,,,,,,,0,6,"[""walnut.png""]","[""walnut.png""]","[""walnut.png""]","[""walnut.png""]","[""walnut.png""]","[""walnut.png""]",blank.png,PB18.png,PB18.png,"[""walnut.png""]","[""walnut.png""]","[""walnut.png""]","[""walnut.png""]",blank.png,blank.png,"[""walnut.png""]","[""walnut.png""]","[""walnut.png""]","[""walnut.png""]","[""walnut.png""]","[""walnut.png""]",1,"[""peanut_cracker.png""]",blank.png,blank.png,blank.png,4,"[""walnut.png""]","[""walnut.png""]","[""walnut.png""]","[""walnut.png""]",blank.png,blank.png,PB15.png,,,,,,,,,,,1,,#33ff3f,#808080,,,,,,,,,1000.9560000000056,,timeout,,,,,,,,,,,,,3,,,,,,,,,,,,,,,,,,,,,,,,,,,,,,,,,,,,,,,,,,,,,,,,,,,,,,,,,"[""walnut.png""]","[""peanut_cracker.png""]",,,,3,,,false,,1,,,,,black,white,1084307.54,1084305.725,1081620.446,1083280.195,1083321.45,1084322.406,,,,
ITI_late,canvas.Screen,2_4_3_6_1_0_1_0_0_0_4,2021-01-14T18:48:22.284Z,,,blank.png,"[""peanut_cracker.png""]",blank.png,blank.png,blank.png,blank.png,blank.png,blank.png,blank.png,blank.png,blank.png,blank.png,blank.png,,,,,,,,,,,,,,,,,,,,,,,,,,,,,"[""peanut_cracker.png""]","[""walnut.png""]",PB15.png,,,,,,,,,,,0,6,"[""walnut.png""]","[""walnut.png""]","[""walnut.png""]","[""walnut.png""]","[""walnut.png""]","[""walnut.png""]",blank.png,PB18.png,PB18.png,"[""walnut.png""]","[""walnut.png""]","[""walnut.png""]","[""walnut.png""]",blank.png,blank.png,"[""walnut.png""]","[""walnut.png""]","[""walnut.png""]","[""walnut.png""]","[""walnut.png""]","[""walnut.png""]",1,"[""peanut_cracker.png""]",blank.png,blank.png,blank.png,4,"[""walnut.png""]","[""walnut.png""]","[""walnut.png""]","[""walnut.png""]",blank.png,blank.png,PB15.png,,,,,,,,,,,1,,,,,,,,,,,,500.49399999994785,,timeout,,,,,,,,,,,,white,3,,,,,,,,,,,,,,,,,,,,,,,,,,,,,,,,,,,,,,,,,,,,,,,,,,,,,,,,,"[""walnut.png""]","[""peanut_cracker.png""]",,,,3,,,false,,1,,,,,,,1084807.4800000002,1084806.219,1084305.725,1084312.635,1084322.406,1084822.9,,,,
choice_sequence,flow.Sequence,2_4_3_6_1_0_1_0_0_0,2021-01-14T18:48:22.285Z,,,blank.png,"[""peanut_cracker.png""]",blank.png,blank.png,blank.png,blank.png,blank.png,blank.png,blank.png,blank.png,blank.png,blank.png,blank.png,,,,,,,,,,,,,,,,,,,,,,,,,,,,,"[""peanut_cracker.png""]","[""walnut.png""]",PB15.png,,,,,,,,,,,0,6,"[""walnut.png""]","[""walnut.png""]","[""walnut.png""]","[""walnut.png""]","[""walnut.png""]","[""walnut.png""]",blank.png,PB18.png,PB18.png,"[""walnut.png""]","[""walnut.png""]","[""walnut.png""]","[""walnut.png""]",blank.png,blank.png,"[""walnut.png""]","[""walnut.png""]","[""walnut.png""]","[""walnut.png""]","[""walnut.png""]","[""walnut.png""]",1,"[""peanut_cracker.png""]",blank.png,blank.png,blank.png,4,"[""walnut.png""]","[""walnut.png""]","[""walnut.png""]","[""walnut.png""]",blank.png,blank.png,PB15.png,,,,,,,,,,,1,,,,,,,,,,,,7656.9860000000335,,completion,,,,,,,,,,,,,3,,,,,,,,,,,,,,,,,,,,,,,,,,,,,,,,,,,,,,,,,,,,,,,,,,,,,,,,,"[""walnut.png""]","[""peanut_cracker.png""]",,,,3,,,false,,1,,,,,,,1084808.6949999998,1084806.219,1077132.552,1077140.4750000003,1077149.233,1084822.9,,,,
fixCross,canvas.Screen,2_4_3_6_1_0_1_0_0_1_0,2021-01-14T18:48:22.784Z,,,blank.png,blank.png,blank.png,blank.png,blank.png,blank.png,blank.png,"[""peanut_cracker.png""]",blank.png,blank.png,blank.png,blank.png,blank.png,,,,,,,,,,,,,,,,,,,,,,,,,,,,,"[""peanut_cracker.png""]","[""walnut.png""]",PB18.png,,,,,,,,,,,0,6,"[""walnut.png""]","[""walnut.png""]","[""walnut.png""]","[""walnut.png""]","[""walnut.png""]","[""walnut.png""]",blank.png,PB18.png,PB14.png,"[""walnut.png""]","[""walnut.png""]","[""walnut.png""]","[""walnut.png""]","[""walnut.png""]","[""walnut.png""]","[""walnut.png""]","[""walnut.png""]","[""walnut.png""]",blank.png,blank.png,blank.png,1,"[""peanut_cracker.png""]",blank.png,blank.png,blank.png,3,"[""walnut.png""]","[""walnut.png""]","[""walnut.png""]",blank.png,blank.png,blank.png,PB14.png,,,,,,,,,,,1,,,,,,,,,,,,1951.7090000000317,,timeout,,,,,,,,,,,,,4,,,,,,,,,,,,,,,,,,,,,,,,,,,,,,,,,,,,,,,,,,,,,,,,,,,,,,,,,"[""walnut.png""]","[""peanut_cracker.png""]",,,,3,,,false,,1,,,,,,,1085307.5150000001,1085306.681,1084806.219,1084831.6550000003,1084822.9,1086774.609,9,,,
timeout,canvas.Screen,2_4_3_6_1_0_1_0_0_1_1,2021-01-14T18:48:24.736Z,,,blank.png,blank.png,blank.png,blank.png,blank.png,blank.png,blank.png,"[""peanut_cracker.png""]",blank.png,blank.png,blank.png,blank.png,blank.png,,,,,,,,,,,,,,,,,,,,,,,,,,,,,"[""peanut_cracker.png""]","[""walnut.png""]",PB18.png,,,,,,,,,,,0,6,"[""walnut.png""]","[""walnut.png""]","[""walnut.png""]","[""walnut.png""]","[""walnut.png""]","[""walnut.png""]",blank.png,PB18.png,PB14.png,"[""walnut.png""]","[""walnut.png""]","[""walnut.png""]","[""walnut.png""]","[""walnut.png""]","[""walnut.png""]","[""walnut.png""]","[""walnut.png""]","[""walnut.png""]",blank.png,blank.png,blank.png,1,"[""peanut_cracker.png""]",blank.png,blank.png,blank.png,3,"[""walnut.png""]","[""walnut.png""]","[""walnut.png""]",blank.png,blank.png,blank.png,PB14.png,,,,,,,,,,,1,,,,,,,,,,,,1968.4329999999609,,timeout,,,,,,,,,,,,,4,,,,,,,,,,,,,,,,,,,,,,,,,,,,,,,,,,,,,,,,,,,,,,,,,,,,,,,,,"[""walnut.png""]","[""peanut_cracker.png""]",,,,3,,,false,,1,,,,,,,1087259.695,1087258.433,1085306.681,1086757.245,1086774.609,1088743.042,,,,
choice,canvas.Screen,2_4_3_6_1_0_1_0_0_1_2,2021-01-14T18:48:26.238Z,,,blank.png,blank.png,blank.png,blank.png,blank.png,blank.png,blank.png,"[""peanut_cracker.png""]",blank.png,blank.png,blank.png,blank.png,blank.png,,,,,,,,,,,,,,,,,,,,,,,,,,,,,"[""peanut_cracker.png""]","[""walnut.png""]",PB18.png,,,,,,,,,,,0,6,"[""walnut.png""]","[""walnut.png""]","[""walnut.png""]","[""walnut.png""]","[""walnut.png""]","[""walnut.png""]",blank.png,PB18.png,PB14.png,"[""walnut.png""]","[""walnut.png""]","[""walnut.png""]","[""walnut.png""]","[""walnut.png""]","[""walnut.png""]","[""walnut.png""]","[""walnut.png""]","[""walnut.png""]",blank.png,blank.png,blank.png,1,"[""peanut_cracker.png""]",blank.png,blank.png,blank.png,3,"[""walnut.png""]","[""walnut.png""]","[""walnut.png""]",blank.png,blank.png,blank.png,PB14.png,,,,,,,,,,,1,,,,,,,,,,,,479.46700000041164,,response,,,,,,,,,,,,,4,,,,,,,,,,,,,,,,,,,,,,,,,,,,,,,,,,,,,,,,,,,,,,,,,,,,,,,,,"[""walnut.png""]","[""peanut_cracker.png""]",,,,3,left,keydown(ArrowLeft),false,,1,,,,,,,1088761.4100000004,1087737.9000000004,1087258.433,1088735.5450000002,,1090394.563,,9,,
square,canvas.Screen,2_4_3_6_1_0_1_0_0_1_3,2021-01-14T18:48:28.857Z,,,blank.png,blank.png,blank.png,blank.png,blank.png,blank.png,blank.png,"[""peanut_cracker.png""]",blank.png,blank.png,blank.png,blank.png,blank.png,,,,,,,,,,,,,,,,,,,,,,,,,,,,,"[""peanut_cracker.png""]","[""walnut.png""]",PB18.png,,,,,,,,,,,0,6,"[""walnut.png""]","[""walnut.png""]","[""walnut.png""]","[""walnut.png""]","[""walnut.png""]","[""walnut.png""]",blank.png,PB18.png,PB14.png,"[""walnut.png""]","[""walnut.png""]","[""walnut.png""]","[""walnut.png""]","[""walnut.png""]","[""walnut.png""]","[""walnut.png""]","[""walnut.png""]","[""walnut.png""]",blank.png,blank.png,blank.png,1,"[""peanut_cracker.png""]",blank.png,blank.png,blank.png,3,"[""walnut.png""]","[""walnut.png""]","[""walnut.png""]",blank.png,blank.png,blank.png,PB14.png,,,,,,,,,,,1,,#33ff3f,#808080,,,,,,,,,1000.9499999999534,,timeout,,,,,,,,,,,,,4,,,,,,,,,,,,,,,,,,,,,,,,,,,,,,,,,,,,,,,,,,,,,,,,,,,,,,,,,"[""walnut.png""]","[""peanut_cracker.png""]",,,,3,,,false,,1,,,,,black,white,1091379.7850000004,1091378.832,1088743.042,1090324.7000000004,1090394.563,1091395.513,,,,
ITI_late,canvas.Screen,2_4_3_6_1_0_1_0_0_1_4,2021-01-14T18:48:29.108Z,,,blank.png,blank.png,blank.png,blank.png,blank.png,blank.png,blank.png,"[""peanut_cracker.png""]",blank.png,blank.png,blank.png,blank.png,blank.png,,,,,,,,,,,,,,,,,,,,,,,,,,,,,"[""peanut_cracker.png""]","[""walnut.png""]",PB18.png,,,,,,,,,,,0,6,"[""walnut.png""]","[""walnut.png""]","[""walnut.png""]","[""walnut.png""]","[""walnut.png""]","[""walnut.png""]",blank.png,PB18.png,PB14.png,"[""walnut.png""]","[""walnut.png""]","[""walnut.png""]","[""walnut.png""]","[""walnut.png""]","[""walnut.png""]","[""walnut.png""]","[""walnut.png""]","[""walnut.png""]",blank.png,blank.png,blank.png,1,"[""peanut_cracker.png""]",blank.png,blank.png,blank.png,3,"[""walnut.png""]","[""walnut.png""]","[""walnut.png""]",blank.png,blank.png,blank.png,PB14.png,,,,,,,,,,,1,,,,,,,,,,,,250.27600000007078,,timeout,,,,,,,,,,,,white,4,,,,,,,,,,,,,,,,,,,,,,,,,,,,,,,,,,,,,,,,,,,,,,,,,,,,,,,,,"[""walnut.png""]","[""peanut_cracker.png""]",,,,3,,,false,,1,,,,,,,1091630.79,1091629.108,1091378.832,1091384.655,1091395.513,1091645.789,,,,
choice_sequence,flow.Sequence,2_4_3_6_1_0_1_0_0_1,2021-01-14T18:48:29.109Z,,,blank.png,blank.png,blank.png,blank.png,blank.png,blank.png,blank.png,"[""peanut_cracker.png""]",blank.png,blank.png,blank.png,blank.png,blank.png,,,,,,,,,,,,,,,,,,,,,,,,,,,,,"[""peanut_cracker.png""]","[""walnut.png""]",PB18.png,,,,,,,,,,,0,6,"[""walnut.png""]","[""walnut.png""]","[""walnut.png""]","[""walnut.png""]","[""walnut.png""]","[""walnut.png""]",blank.png,PB18.png,PB14.png,"[""walnut.png""]","[""walnut.png""]","[""walnut.png""]","[""walnut.png""]","[""walnut.png""]","[""walnut.png""]","[""walnut.png""]","[""walnut.png""]","[""walnut.png""]",blank.png,blank.png,blank.png,1,"[""peanut_cracker.png""]",blank.png,blank.png,blank.png,3,"[""walnut.png""]","[""walnut.png""]","[""walnut.png""]",blank.png,blank.png,blank.png,PB14.png,,,,,,,,,,,1,,,,,,,,,,,,6806.208000000101,,completion,,,,,,,,,,,,,4,,,,,,,,,,,,,,,,,,,,,,,,,,,,,,,,,,,,,,,,,,,,,,,,,,,,,,,,,"[""walnut.png""]","[""peanut_cracker.png""]",,,,3,,,false,,1,,,,,,,1091631.56,1091629.108,1084806.219,1084827.1400000001,1084822.9,1091645.789,,,,
fixCross,canvas.Screen,2_4_3_6_1_0_1_0_0_2_0,2021-01-14T18:48:29.508Z,,,blank.png,blank.png,blank.png,blank.png,blank.png,blank.png,blank.png,"[""peanut_cracker.png""]",blank.png,blank.png,blank.png,blank.png,blank.png,,,,,,,,,,,,,,,,,,,,,,,,,,,,,"[""peanut_cracker.png""]","[""walnut.png""]",PB18.png,,,,,,,,,,,0,6,"[""walnut.png""]","[""walnut.png""]","[""walnut.png""]","[""walnut.png""]","[""walnut.png""]","[""walnut.png""]",blank.png,PB18.png,PB01.png,"[""walnut.png""]","[""walnut.png""]","[""walnut.png""]","[""walnut.png""]","[""walnut.png""]","[""walnut.png""]",blank.png,blank.png,blank.png,blank.png,blank.png,blank.png,1,"[""peanut_cracker.png""]",blank.png,blank.png,blank.png,0,blank.png,blank.png,blank.png,blank.png,blank.png,blank.png,PB01.png,,,,,,,,,,,1,,,,,,,,,,,,1668.12099999981,,timeout,,,,,,,,,,,,,4,,,,,,,,,,,,,,,,,,,,,,,,,,,,,,,,,,,,,,,,,,,,,,,,,,,,,,,,,"[""walnut.png""]","[""peanut_cracker.png""]",,,,3,,,false,,1,,,,,,,1092030.645,1092029.473,1091629.108,1091649.7449999999,1091645.789,1093313.91,10,,,
timeout,canvas.Screen,2_4_3_6_1_0_1_0_0_2_1,2021-01-14T18:48:31.276Z,,,blank.png,blank.png,blank.png,blank.png,blank.png,blank.png,blank.png,"[""peanut_cracker.png""]",blank.png,blank.png,blank.png,blank.png,blank.png,,,,,,,,,,,,,,,,,,,,,,,,,,,,,"[""peanut_cracker.png""]","[""walnut.png""]",PB18.png,,,,,,,,,,,0,6,"[""walnut.png""]","[""walnut.png""]","[""walnut.png""]","[""walnut.png""]","[""walnut.png""]","[""walnut.png""]",blank.png,PB18.png,PB01.png,"[""walnut.png""]","[""walnut.png""]","[""walnut.png""]","[""walnut.png""]","[""walnut.png""]","[""walnut.png""]",blank.png,blank.png,blank.png,blank.png,blank.png,blank.png,1,"[""peanut_cracker.png""]",blank.png,blank.png,blank.png,0,blank.png,blank.png,blank.png,blank.png,blank.png,blank.png,PB01.png,,,,,,,,,,,1,,,,,,,,,,,,1718.2060000000056,,timeout,,,,,,,,,,,,,4,,,,,,,,,,,,,,,,,,,,,,,,,,,,,,,,,,,,,,,,,,,,,,,,,,,,,,,,,"[""walnut.png""]","[""peanut_cracker.png""]",,,,3,,,false,,1,,,,,,,1093798.9,1093797.722,1092029.473,1093281.5350000004,1093313.91,1095032.116,,,,
choice,canvas.Screen,2_4_3_6_1_0_1_0_0_2_2,2021-01-14T18:48:32.513Z,,,blank.png,blank.png,blank.png,blank.png,blank.png,blank.png,blank.png,"[""peanut_cracker.png""]",blank.png,blank.png,blank.png,blank.png,blank.png,,,,,,,,,,,,,,,,,,,,,,,,,,,,,"[""peanut_cracker.png""]","[""walnut.png""]",PB18.png,,,,,,,,,,,0,6,"[""walnut.png""]","[""walnut.png""]","[""walnut.png""]","[""walnut.png""]","[""walnut.png""]","[""walnut.png""]",blank.png,PB18.png,PB01.png,"[""walnut.png""]","[""walnut.png""]","[""walnut.png""]","[""walnut.png""]","[""walnut.png""]","[""walnut.png""]",blank.png,blank.png,blank.png,blank.png,blank.png,blank.png,1,"[""peanut_cracker.png""]",blank.png,blank.png,blank.png,0,blank.png,blank.png,blank.png,blank.png,blank.png,blank.png,PB01.png,,,,,,,,,,,1,,,,,,,,,,,,320.84299999987707,,response,,,,,,,,,,,,,4,,,,,,,,,,,,,,,,,,,,,,,,,,,,,,,,,,,,,,,,,,,,,,,,,,,,,,,,,"[""walnut.png""]","[""peanut_cracker.png""]",,,,3,left,keydown(ArrowLeft),false,,1,,,,,,,1095035.47,1094118.565,1093797.722,1095007.3450000002,,1096183.194,,10,,
