sender,sender_type,sender_id,timestamp,meta,,Blank,DownLeft1,DownLeft2,DownLeft3,DownLeft4,DownLeft5,DownLeft6,DownRight1,DownRight2,DownRight3,DownRight4,DownRight5,DownRight6,FoodHabits_Fru_item1,FoodHabits_Fru_item2,FoodHabits_Fru_item3,FoodHabits_Fru_item4,FoodHabits_Fru_item5,FoodHabits_Fru_item6,FoodHabits_Fru_item7,FoodHabits_Meat_item1,FoodHabits_Meat_item2,FoodHabits_Meat_item3,FoodHabits_Meat_item4,FoodHabits_Meat_item5,FoodHabits_Meat_item6,FoodHabits_Meat_item7,FoodHabits_Swe_item1,FoodHabits_Swe_item2,FoodHabits_Swe_item3,FoodHabits_Swe_item4,FoodHabits_Swe_item5,FoodHabits_Swe_item6,FoodHabits_Swe_item7,FoodHabits_Veg_item1,FoodHabits_Veg_item2,FoodHabits_Veg_item3,FoodHabits_Veg_item4,FoodHabits_Veg_item5,FoodHabits_Veg_item6,FoodHabits_Veg_item7,ImgA,ImgB,LeftBar,PSS_item01,PSS_item02,PSS_item03,PSS_item04,PSS_item05,PSS_item06,PSS_item07,PSS_item08,PSS_item09,PSS_item10,RefA,RefB,RefB1,RefB2,RefB3,RefB4,RefB5,RefB6,RefB7,Ref_PB,RightBar,UpLeft1,UpLeft2,UpLeft3,UpLeft4,UpLeft5,UpLeft6,UpRight1,UpRight2,UpRight3,UpRight4,UpRight5,UpRight6,VarA,VarA1,VarA2,VarA3,VarA4,VarB,VarB1,VarB2,VarB3,VarB4,VarB5,VarB6,Var_PB,attCheck_fileA,attCheck_fileB,attCheck_fileC,attCheck_fileD,attCheck_options,attCheck_valueA,attCheck_valueB,attCheck_valueC,attCheck_valueD,attention_check,block,break1,browser_name,choseL,choseR,consent_form1,consent_form2,consentconfirmation_form1,consentconfirmation_form2,correct,correctResponse,diet,disorder,duration,edu,ended_on,enjoy,full_version,gender,group,hunger,img,imgTask,input_age,input_meal,input_occ,input_remark,lateRespFeed,list,major_version,message,mixQ_item1,mixQ_item2,mixQ_item3,mixQ_item4,mixQ_item5,name,navigator_appName,navigator_userAgent,os,pracQ1_IDa,pracQ1_IDb,pracQ1_IDc,pracQ1_IDd,pracQ1_optionA,pracQ1_optionB,pracQ1_optionC,pracQ1_optionD,pracQ1_valueA,pracQ1_valueB,pracQ1_valueC,pracQ1_valueD,pracQ2_IDa,pracQ2_IDb,pracQ2_IDc,pracQ2_optionA,pracQ2_optionB,pracQ2_optionC,pracQ2_valueA,pracQ2_valueB,pracQ2_valueC,pracQ4_IDa,pracQ4_IDb,pracQ4_IDc,pracQ4_IDd,pracQ4_optionA,pracQ4_optionB,pracQ4_optionC,pracQ4_optionD,pracQ4_valueA,pracQ4_valueB,pracQ4_valueC,pracQ4_valueD,pracQ5_IDa,pracQ5_IDb,pracQ5_IDc,pracQ5_IDd,pracQ5_optionA,pracQ5_optionB,pracQ5_optionC,pracQ5_optionD,pracQ5_valueA,pracQ5_valueB,pracQ5_valueC,pracQ5_valueD,prefHealty,prefUnhealthy,prolific_ID,psessionID,pstudyID,rep,response,response_action,skip,snack,sublock,subtitle,task_difficulty,task_engagement,task_focus,textL,textR,time_commit,time_end,time_render,time_run,time_show,time_switch,trial_count,trial_countO,url,valence
Title,html.Page,0,2021-05-03T14:26:55.785Z,"{""labjs_version"":""20.2.2"",""labjs_build"":{""flavor"":""production"",""commit"":""a25486e0c714a0ae2ce03ff94b7bb6896854dcfa""},""location"":""https://run.pavlovia.org/E3lab/rebund/html/?PROLIFIC_PID=5f355f594bc5b1508a8432d6&SESSION_ID=0r3orr91ijh&STUDY_ID=60008f34cd719d13b0d706dd&preview=1"",""userAgent"":""Mozilla/5.0 (Macintosh; Intel Mac OS X 10_15_7) AppleWebKit/605.1.15 (KHTML, like Gecko) Version/14.1 Safari/605.1.15"",""platform"":""MacIntel"",""language"":""en-gb"",""locale"":""en-GB"",""timeZone"":""Europe/Zurich"",""timezoneOffset"":-120,""screen_width"":1440,""screen_height"":900,""scroll_width"":1440,""scroll_height"":772,""window_innerWidth"":1440,""window_innerHeight"":820,""devicePixelRatio"":2}",,,,,,,,,,,,,,,,,,,,,,,,,,,,,,,,,,,,,,,,,,,,,,,,,,,,,,,,,,,,,,,,,,,,,,,,,,,,,,,,,,,,,,,,,,,,,,,,,,,,,,,,,,,,,,,,,,,2199,,form submission,,,,,,,,,,,,,,,,,,,,,,,,,,,,,,,,,,,,,,,,,,,,,,,,,,,,,,,,,,,,,,,,,,,,,,,,,,,,,,,,,,,,,,,8717,8717,6509,6468,6518,8747,,,"{""PROLIFIC_PID"":""5f355f594bc5b1508a8432d6"",""SESSION_ID"":""0r3orr91ijh"",""STUDY_ID"":""60008f34cd719d13b0d706dd"",""preview"":""1""}",
get_systemInfo,canvas.Screen,1,2021-05-03T14:26:55.816Z,,,,,,,,,,,,,,,,,,,,,,,,,,,,,,,,,,,,,,,,,,,,,,,,,,,,,,,,,,,,,,,,,,,,,,,,,,,,,,,,,,,,,,,,,,,,,,,,,,,,,,,,,Safari,,,,,,,,,,,1235,,timeout,,14.1,,,,,,,,,,,,14,,,,,,,,Netscape,"Mozilla/5.0 (Macintosh; Intel Mac OS X 10_15_7) AppleWebKit/605.1.15 (KHTML, like Gecko) Version/14.1 Safari/605.1.15",MacOS,,,,,,,,,,,,,,,,,,,,,,,,,,,,,,,,,,,,,,,,,,,,,,,,5f355f594bc5b1508a8432d6,,60008f34cd719d13b0d706dd,,,,,,,,,,,,,8748,8747,8729,8718,8747,9982,,,,
ConsentForm,html.Form,2_0,2021-05-03T14:27:05.763Z,,,,,,,,,,,,,,,,,,,,,,,,,,,,,,,,,,,,,,,,,,,,,,,,,,,,,,,,,,,,,,,,,,,,,,,,,,,,,,,,,,,,,,,,,,,,,,,,,,,,,,,,,,,,true,true,,,,,,,8713,,form submission,,,,,,,,,,,,,,,,,,,,,,,,,,,,,,,,,,,,,,,,,,,,,,,,,,,,,,,,,,,,,,,,,,,,,,,,,,,,,,,,,,,,,,,18695,18695,8747,9965,9982,18725,,,,
PepTalk,html.Page,2_1,2021-05-03T14:27:07.226Z,,,,,,,,,,,,,,,,,,,,,,,,,,,,,,,,,,,,,,,,,,,,,,,,,,,,,,,,,,,,,,,,,,,,,,,,,,,,,,,,,,,,,,,,,,,,,,,,,,,,,,,,,,,,,,,,,,,,1433,,form submission,,,,,,,,,,,,,,,,,,,,,,,,,,,,,,,,,,,,,,,,,,,,,,,,,,,,,,,,,,,,,,,,,,,,,,,,,,,,,,,,,,,,,,,20158,20158,18709,18695,18725,20197,,,,
Demographics,html.Form,2_2,2021-05-03T14:27:16.990Z,,,,,,,,,,,,,,,,,,,,,,,,,,,,,,,,,,,,,,,,,,,,,,,,,,,,,,,,,,,,,,,,,,,,,,,,,,,,,,,,,,,,,,,,,,,,,,,,,,,,,,,,,,,,,,,,,,,,9717,3,form submission,,,2,,,,,25,,stu,,,,,,,,,,,,,,,,,,,,,,,,,,,,,,,,,,,,,,,,,,,,,,,,,,,,,,,,,,,,,,,,,,,,,,,,,,,,,29915,29914,20181,20158,20197,29947,,,,
InclusionCrit,html.Form,2_3,2021-05-03T14:27:20.175Z,,,,,,,,,,,,,,,,,,,,,,,,,,,,,,,,,,,,,,,,,,,,,,,,,,,,,,,,,,,,,,,,,,,,,,,,,,,,,,,,,,,,,,,,,,,,,,,,,,,,,,,,,,,,,,,,,,1,1,3149,,form submission,1,,,,,,,,,,,,,,,,,,,,,,,,,,,,,,,,,,,,,,,,,,,,,,,,,,,,,,,,,,,,,,,,,,,,,,,,,,,,,,,,,,,,,,33096,33096,29931,29915,29947,33119,,,,
Selection,html.Page,2_4_0,2021-05-03T14:27:22.509Z,,,,,,,,,,,,,,,,,,,,,,,,,,,,,,,,,,,,,,,,,,,,,,,,,,,,,,,,,,,,,,,,,,,,,,,,,,,,,,,,,,,,,,,,,,,,,,,,,,,,,,,,,,,,,,,,,,,,2309,,form submission,,,,,,,,,,,,,,,,,,,,,,,,,,,,,,,,,,,,,,,,,,,,,,,,,,,,,,,,,,,,,,,,,,,,,,,,,,,,,,,0,,,,,,,,35429,35428,33102,33097,33119,35463,,,,
Load,html.Page,2_4_1,2021-05-03T14:27:22.543Z,,,,,,,,,,,,,,,,,,,,,,,,,,,,,,,,,,,,,,,,,,,,,,,,,,,,,,,,,,,,,,,,,,,,,,,,,,,,,,,,,,,,,,,,,,,,,,,,,,,,,,,,,,,,,,,,,,,,8833,,timeout,,,,,,,,,,,,,,,,,,,,,,,,,,,,,,,,,,,,,,,,,,,,,,,,,,,,,,,,,,,,,,,,,,,,,,,,,,,,,,,,,,,,,,,35463,35463,35446,35429,35463,44296,,,,
ratings_instructions,html.Screen,2_4_2_0,2021-05-03T14:27:32.443Z,,,,,,,,,,,,,,,,,,,,,,,,,,,,,,,,,,,,,,,,,,,,,,,,,,,,,,,,,,,,,,,,,,,,,,,,,,,,,,,,,,,,,,,,,,,,,,,,,,,,,,,,,,,,,,,,,,,,9783,,response,,,,,,,,,,,,,,,,,,,,,,,,,,,,,,,,,,,,,,,,,,,,,,,,,,,,,,,,,,,,,,,,,,,,,,,,,,,,continue,keypress(Space),false,,,,,,,,,45357,45246,35463,44281,44296,45396,0,0,,
fixCross,canvas.Screen,2_4_2_1_0_0,2021-05-03T14:27:32.958Z,,,,,,,,,,,,,,,,,,,,,,,,,,,,,,,,,,,,,,,,,,,,,,,,,,,,,,,,,,,,,,,,,,,,,,,,,,,,,,,,,,,,,,,,,,,,,,,,,,,,,,,,,,,,,,,,,,,,499,,timeout,,,,healthy,,cherry.png,,,,,,,,,,,,,,,cherry,,,,,,,,,,,,,,,,,,,,,,,,,,,,,,,,,,,,,,,,,,,,,,,,,,,,,,,,,false,,,,,,,,,45872,45872,45379,45357,45396,45895,,,,
Rating,html.Form,2_4_2_1_0_1,2021-05-03T14:27:34.171Z,,,,,,,,,,,,,,,,,,,,,,,,,,,,,,,,,,,,,,,,,,,,,,,,,,,,,,,,,,,,,,,,,,,,,,,,,,,,,,,,,,,,,,,,,,,,,,,,,,,,,,,,,,,,,,,,,,,,1189,,form submission,,,,healthy,,cherry.png,,,,,,,,,,,,,,,cherry,,,,,,,,,,,,,,,,,,,,,,,,,,,,,,,,,,,,,,,,,,,,,,,,,,,,,,,,,false,,,,,,,,,47085,47084,45872,45872,45895,47110,,,,50
rating_sequence,flow.Sequence,2_4_2_1_0,2021-05-03T14:27:34.171Z,,,,,,,,,,,,,,,,,,,,,,,,,,,,,,,,,,,,,,,,,,,,,,,,,,,,,,,,,,,,,,,,,,,,,,,,,,,,,,,,,,,,,,,,,,,,,,,,,,,,,,,,,,,,,,,,,,,,1688,,completion,,,,healthy,,cherry.png,,,,,,,,,,,,,,,cherry,,,,,,,,,,,,,,,,,,,,,,,,,,,,,,,,,,,,,,,,,,,,,,,,,,,,,,,,,false,,,,,,,,,47085,47084,45379,45357,45396,47110,,,,
fixCross,canvas.Screen,2_4_2_1_1_0,2021-05-03T14:27:34.673Z,,,,,,,,,,,,,,,,,,,,,,,,,,,,,,,,,,,,,,,,,,,,,,,,,,,,,,,,,,,,,,,,,,,,,,,,,,,,,,,,,,,,,,,,,,,,,,,,,,,,,,,,,,,,,,,,,,,,500,,timeout,,,,unhealthy,,m&m.png,,,,,,,,,,,,,,,m&m,,,,,,,,,,,,,,,,,,,,,,,,,,,,,,,,,,,,,,,,,,,,,,,,,,,,,,,,,false,,,,,,,,,47586,47586,47096,47085,47110,47610,,,,
Rating,html.Form,2_4_2_1_1_1,2021-05-03T14:27:35.174Z,,,,,,,,,,,,,,,,,,,,,,,,,,,,,,,,,,,,,,,,,,,,,,,,,,,,,,,,,,,,,,,,,,,,,,,,,,,,,,,,,,,,,,,,,,,,,,,,,,,,,,,,,,,,,,,,,,,,477,,form submission,,,,unhealthy,,m&m.png,,,,,,,,,,,,,,,m&m,,,,,,,,,,,,,,,,,,,,,,,,,,,,,,,,,,,,,,,,,,,,,,,,,,,,,,,,,false,,,,,,,,,48087,48087,47586,47587,47610,48107,,,,50
rating_sequence,flow.Sequence,2_4_2_1_1,2021-05-03T14:27:35.174Z,,,,,,,,,,,,,,,,,,,,,,,,,,,,,,,,,,,,,,,,,,,,,,,,,,,,,,,,,,,,,,,,,,,,,,,,,,,,,,,,,,,,,,,,,,,,,,,,,,,,,,,,,,,,,,,,,,,,977,,completion,,,,unhealthy,,m&m.png,,,,,,,,,,,,,,,m&m,,,,,,,,,,,,,,,,,,,,,,,,,,,,,,,,,,,,,,,,,,,,,,,,,,,,,,,,,false,,,,,,,,,48087,48087,47096,47085,47110,48107,,,,
fixCross,canvas.Screen,2_4_2_1_2_0,2021-05-03T14:27:35.680Z,,,,,,,,,,,,,,,,,,,,,,,,,,,,,,,,,,,,,,,,,,,,,,,,,,,,,,,,,,,,,,,,,,,,,,,,,,,,,,,,,,,,,,,,,,,,,,,,,,,,,,,,,,,,,,,,,,,,511,,timeout,,,,healthy,,raspberry.png,,,,,,,,,,,,,,,raspberry,,,,,,,,,,,,,,,,,,,,,,,,,,,,,,,,,,,,,,,,,,,,,,,,,,,,,,,,,false,,,,,,,,,48593,48593,48090,48087,48107,48618,,,,
Rating,html.Form,2_4_2_1_2_1,2021-05-03T14:27:37.918Z,,,,,,,,,,,,,,,,,,,,,,,,,,,,,,,,,,,,,,,,,,,,,,,,,,,,,,,,,,,,,,,,,,,,,,,,,,,,,,,,,,,,,,,,,,,,,,,,,,,,,,,,,,,,,,,,,,,,2213,,form submission,,,,healthy,,raspberry.png,,,,,,,,,,,,,,,raspberry,,,,,,,,,,,,,,,,,,,,,,,,,,,,,,,,,,,,,,,,,,,,,,,,,,,,,,,,,false,,,,,,,,,50831,50831,48593,48593,48618,50864,,,,100
rating_sequence,flow.Sequence,2_4_2_1_2,2021-05-03T14:27:37.919Z,,,,,,,,,,,,,,,,,,,,,,,,,,,,,,,,,,,,,,,,,,,,,,,,,,,,,,,,,,,,,,,,,,,,,,,,,,,,,,,,,,,,,,,,,,,,,,,,,,,,,,,,,,,,,,,,,,,,2724,,completion,,,,healthy,,raspberry.png,,,,,,,,,,,,,,,raspberry,,,,,,,,,,,,,,,,,,,,,,,,,,,,,,,,,,,,,,,,,,,,,,,,,,,,,,,,,false,,,,,,,,,50831,50831,48090,48087,48107,50864,,,,
fixCross,canvas.Screen,2_4_2_1_3_0,2021-05-03T14:27:38.439Z,,,,,,,,,,,,,,,,,,,,,,,,,,,,,,,,,,,,,,,,,,,,,,,,,,,,,,,,,,,,,,,,,,,,,,,,,,,,,,,,,,,,,,,,,,,,,,,,,,,,,,,,,,,,,,,,,,,,512,,timeout,,,,healthy,,blueberry.png,,,,,,,,,,,,,,,blueberry,,,,,,,,,,,,,,,,,,,,,,,,,,,,,,,,,,,,,,,,,,,,,,,,,,,,,,,,,false,,,,,,,,,51352.00000000001,51352,50848,50831,50864,51376,,,,
Rating,html.Form,2_4_2_1_3_1,2021-05-03T14:27:38.839Z,,,,,,,,,,,,,,,,,,,,,,,,,,,,,,,,,,,,,,,,,,,,,,,,,,,,,,,,,,,,,,,,,,,,,,,,,,,,,,,,,,,,,,,,,,,,,,,,,,,,,,,,,,,,,,,,,,,,376,,form submission,,,,healthy,,blueberry.png,,,,,,,,,,,,,,,blueberry,,,,,,,,,,,,,,,,,,,,,,,,,,,,,,,,,,,,,,,,,,,,,,,,,,,,,,,,,false,,,,,,,,,51752,51752,51352,51352.00000000001,51376,51771,,,,50
rating_sequence,flow.Sequence,2_4_2_1_3,2021-05-03T14:27:38.839Z,,,,,,,,,,,,,,,,,,,,,,,,,,,,,,,,,,,,,,,,,,,,,,,,,,,,,,,,,,,,,,,,,,,,,,,,,,,,,,,,,,,,,,,,,,,,,,,,,,,,,,,,,,,,,,,,,,,,888,,completion,,,,healthy,,blueberry.png,,,,,,,,,,,,,,,blueberry,,,,,,,,,,,,,,,,,,,,,,,,,,,,,,,,,,,,,,,,,,,,,,,,,,,,,,,,,false,,,,,,,,,51752,51752,50848,50831,50864,51771,,,,
fixCross,canvas.Screen,2_4_2_1_4_0,2021-05-03T14:27:39.347Z,,,,,,,,,,,,,,,,,,,,,,,,,,,,,,,,,,,,,,,,,,,,,,,,,,,,,,,,,,,,,,,,,,,,,,,,,,,,,,,,,,,,,,,,,,,,,,,,,,,,,,,,,,,,,,,,,,,,512,,timeout,,,,healthy,,orange.png,,,,,,,,,,,,,,,orange,,,,,,,,,,,,,,,,,,,,,,,,,,,,,,,,,,,,,,,,,,,,,,,,,,,,,,,,,false,,,,,,,,,52259,52259,51754,51752,51771,52283,,,,
Rating,html.Form,2_4_2_1_4_1,2021-05-03T14:27:39.819Z,,,,,,,,,,,,,,,,,,,,,,,,,,,,,,,,,,,,,,,,,,,,,,,,,,,,,,,,,,,,,,,,,,,,,,,,,,,,,,,,,,,,,,,,,,,,,,,,,,,,,,,,,,,,,,,,,,,,448,,form submission,,,,healthy,,orange.png,,,,,,,,,,,,,,,orange,,,,,,,,,,,,,,,,,,,,,,,,,,,,,,,,,,,,,,,,,,,,,,,,,,,,,,,,,false,,,,,,,,,52731,52731,52259,52259,52283,52763,,,,50
rating_sequence,flow.Sequence,2_4_2_1_4,2021-05-03T14:27:39.819Z,,,,,,,,,,,,,,,,,,,,,,,,,,,,,,,,,,,,,,,,,,,,,,,,,,,,,,,,,,,,,,,,,,,,,,,,,,,,,,,,,,,,,,,,,,,,,,,,,,,,,,,,,,,,,,,,,,,,960,,completion,,,,healthy,,orange.png,,,,,,,,,,,,,,,orange,,,,,,,,,,,,,,,,,,,,,,,,,,,,,,,,,,,,,,,,,,,,,,,,,,,,,,,,,false,,,,,,,,,52731,52731,51754,51752,51771,52763,,,,
fixCross,canvas.Screen,2_4_2_1_5_0,2021-05-03T14:27:40.338Z,,,,,,,,,,,,,,,,,,,,,,,,,,,,,,,,,,,,,,,,,,,,,,,,,,,,,,,,,,,,,,,,,,,,,,,,,,,,,,,,,,,,,,,,,,,,,,,,,,,,,,,,,,,,,,,,,,,,510,,timeout,,,,unhealthy,,marshmallow.png,,,,,,,,,,,,,,,marshmallow,,,,,,,,,,,,,,,,,,,,,,,,,,,,,,,,,,,,,,,,,,,,,,,,,,,,,,,,,false,,,,,,,,,53250,53250,52747,52731,52763,53273,,,,
Rating,html.Form,2_4_2_1_5_1,2021-05-03T14:27:40.831Z,,,,,,,,,,,,,,,,,,,,,,,,,,,,,,,,,,,,,,,,,,,,,,,,,,,,,,,,,,,,,,,,,,,,,,,,,,,,,,,,,,,,,,,,,,,,,,,,,,,,,,,,,,,,,,,,,,,,470,,form submission,,,,unhealthy,,marshmallow.png,,,,,,,,,,,,,,,marshmallow,,,,,,,,,,,,,,,,,,,,,,,,,,,,,,,,,,,,,,,,,,,,,,,,,,,,,,,,,false,,,,,,,,,53743,53743,53250,53250,53273,53770,,,,50
rating_sequence,flow.Sequence,2_4_2_1_5,2021-05-03T14:27:40.831Z,,,,,,,,,,,,,,,,,,,,,,,,,,,,,,,,,,,,,,,,,,,,,,,,,,,,,,,,,,,,,,,,,,,,,,,,,,,,,,,,,,,,,,,,,,,,,,,,,,,,,,,,,,,,,,,,,,,,980,,completion,,,,unhealthy,,marshmallow.png,,,,,,,,,,,,,,,marshmallow,,,,,,,,,,,,,,,,,,,,,,,,,,,,,,,,,,,,,,,,,,,,,,,,,,,,,,,,,false,,,,,,,,,53743,53743,52747,52731,52763,53770,,,,
fixCross,canvas.Screen,2_4_2_1_6_0,2021-05-03T14:27:41.348Z,,,,,,,,,,,,,,,,,,,,,,,,,,,,,,,,,,,,,,,,,,,,,,,,,,,,,,,,,,,,,,,,,,,,,,,,,,,,,,,,,,,,,,,,,,,,,,,,,,,,,,,,,,,,,,,,,,,,516,,timeout,,,,healthy,,apple.png,,,,,,,,,,,,,,,apple,,,,,,,,,,,,,,,,,,,,,,,,,,,,,,,,,,,,,,,,,,,,,,,,,,,,,,,,,false,,,,,,,,,54259,54259,53754,53743,53770,54286,,,,
Rating,html.Form,2_4_2_1_6_1,2021-05-03T14:27:41.819Z,,,,,,,,,,,,,,,,,,,,,,,,,,,,,,,,,,,,,,,,,,,,,,,,,,,,,,,,,,,,,,,,,,,,,,,,,,,,,,,,,,,,,,,,,,,,,,,,,,,,,,,,,,,,,,,,,,,,445,,form submission,,,,healthy,,apple.png,,,,,,,,,,,,,,,apple,,,,,,,,,,,,,,,,,,,,,,,,,,,,,,,,,,,,,,,,,,,,,,,,,,,,,,,,,false,,,,,,,,,54731,54731,54259,54260,54286,54762,,,,50
rating_sequence,flow.Sequence,2_4_2_1_6,2021-05-03T14:27:41.819Z,,,,,,,,,,,,,,,,,,,,,,,,,,,,,,,,,,,,,,,,,,,,,,,,,,,,,,,,,,,,,,,,,,,,,,,,,,,,,,,,,,,,,,,,,,,,,,,,,,,,,,,,,,,,,,,,,,,,961,,completion,,,,healthy,,apple.png,,,,,,,,,,,,,,,apple,,,,,,,,,,,,,,,,,,,,,,,,,,,,,,,,,,,,,,,,,,,,,,,,,,,,,,,,,false,,,,,,,,,54731,54731,53754,53743,53770,54762,,,,
fixCross,canvas.Screen,2_4_2_1_7_0,2021-05-03T14:27:42.337Z,,,,,,,,,,,,,,,,,,,,,,,,,,,,,,,,,,,,,,,,,,,,,,,,,,,,,,,,,,,,,,,,,,,,,,,,,,,,,,,,,,,,,,,,,,,,,,,,,,,,,,,,,,,,,,,,,,,,507,,timeout,,,,healthy,,pear.png,,,,,,,,,,,,,,,pear,,,,,,,,,,,,,,,,,,,,,,,,,,,,,,,,,,,,,,,,,,,,,,,,,,,,,,,,,false,,,,,,,,,55249,55248,54744,54731,54762,55269,,,,
Rating,html.Form,2_4_2_1_7_1,2021-05-03T14:27:42.798Z,,,,,,,,,,,,,,,,,,,,,,,,,,,,,,,,,,,,,,,,,,,,,,,,,,,,,,,,,,,,,,,,,,,,,,,,,,,,,,,,,,,,,,,,,,,,,,,,,,,,,,,,,,,,,,,,,,,,440,,form submission,,,,healthy,,pear.png,,,,,,,,,,,,,,,pear,,,,,,,,,,,,,,,,,,,,,,,,,,,,,,,,,,,,,,,,,,,,,,,,,,,,,,,,,false,,,,,,,,,55710,55709,55248,55249,55269,55752,,,,50
rating_sequence,flow.Sequence,2_4_2_1_7,2021-05-03T14:27:42.798Z,,,,,,,,,,,,,,,,,,,,,,,,,,,,,,,,,,,,,,,,,,,,,,,,,,,,,,,,,,,,,,,,,,,,,,,,,,,,,,,,,,,,,,,,,,,,,,,,,,,,,,,,,,,,,,,,,,,,947,,completion,,,,healthy,,pear.png,,,,,,,,,,,,,,,pear,,,,,,,,,,,,,,,,,,,,,,,,,,,,,,,,,,,,,,,,,,,,,,,,,,,,,,,,,false,,,,,,,,,55710,55709,54744,54731,54762,55752,,,,
fixCross,canvas.Screen,2_4_2_1_8_0,2021-05-03T14:27:43.329Z,,,,,,,,,,,,,,,,,,,,,,,,,,,,,,,,,,,,,,,,,,,,,,,,,,,,,,,,,,,,,,,,,,,,,,,,,,,,,,,,,,,,,,,,,,,,,,,,,,,,,,,,,,,,,,,,,,,,509,,timeout,,,,unhealthy,,candy.png,,,,,,,,,,,,,,,candy,,,,,,,,,,,,,,,,,,,,,,,,,,,,,,,,,,,,,,,,,,,,,,,,,,,,,,,,,false,,,,,,,,,56240,56240,55735,55710,55752,56261,,,,
Rating,html.Form,2_4_2_1_8_1,2021-05-03T14:27:43.860Z,,,,,,,,,,,,,,,,,,,,,,,,,,,,,,,,,,,,,,,,,,,,,,,,,,,,,,,,,,,,,,,,,,,,,,,,,,,,,,,,,,,,,,,,,,,,,,,,,,,,,,,,,,,,,,,,,,,,510,,form submission,,,,unhealthy,,candy.png,,,,,,,,,,,,,,,candy,,,,,,,,,,,,,,,,,,,,,,,,,,,,,,,,,,,,,,,,,,,,,,,,,,,,,,,,,false,,,,,,,,,56771,56771,56240,56240,56261,56809,,,,50
rating_sequence,flow.Sequence,2_4_2_1_8,2021-05-03T14:27:43.860Z,,,,,,,,,,,,,,,,,,,,,,,,,,,,,,,,,,,,,,,,,,,,,,,,,,,,,,,,,,,,,,,,,,,,,,,,,,,,,,,,,,,,,,,,,,,,,,,,,,,,,,,,,,,,,,,,,,,,1019,,completion,,,,unhealthy,,candy.png,,,,,,,,,,,,,,,candy,,,,,,,,,,,,,,,,,,,,,,,,,,,,,,,,,,,,,,,,,,,,,,,,,,,,,,,,,false,,,,,,,,,56771,56771,55735,55710,55752,56809,,,,
fixCross,canvas.Screen,2_4_2_1_9_0,2021-05-03T14:27:44.385Z,,,,,,,,,,,,,,,,,,,,,,,,,,,,,,,,,,,,,,,,,,,,,,,,,,,,,,,,,,,,,,,,,,,,,,,,,,,,,,,,,,,,,,,,,,,,,,,,,,,,,,,,,,,,,,,,,,,,509,,timeout,,,,unhealthy,,gummybear.png,,,,,,,,,,,,,,,gummybear,,,,,,,,,,,,,,,,,,,,,,,,,,,,,,,,,,,,,,,,,,,,,,,,,,,,,,,,,false,,,,,,,,,57297.00000000001,57296,56792,56772,56809,57318,,,,
Rating,html.Form,2_4_2_1_9_1,2021-05-03T14:27:44.855Z,,,,,,,,,,,,,,,,,,,,,,,,,,,,,,,,,,,,,,,,,,,,,,,,,,,,,,,,,,,,,,,,,,,,,,,,,,,,,,,,,,,,,,,,,,,,,,,,,,,,,,,,,,,,,,,,,,,,448,,form submission,,,,unhealthy,,gummybear.png,,,,,,,,,,,,,,,gummybear,,,,,,,,,,,,,,,,,,,,,,,,,,,,,,,,,,,,,,,,,,,,,,,,,,,,,,,,,false,,,,,,,,,57766,57766,57296,57297.00000000001,57318,57800,,,,50
rating_sequence,flow.Sequence,2_4_2_1_9,2021-05-03T14:27:44.855Z,,,,,,,,,,,,,,,,,,,,,,,,,,,,,,,,,,,,,,,,,,,,,,,,,,,,,,,,,,,,,,,,,,,,,,,,,,,,,,,,,,,,,,,,,,,,,,,,,,,,,,,,,,,,,,,,,,,,957,,completion,,,,unhealthy,,gummybear.png,,,,,,,,,,,,,,,gummybear,,,,,,,,,,,,,,,,,,,,,,,,,,,,,,,,,,,,,,,,,,,,,,,,,,,,,,,,,false,,,,,,,,,57766,57766,56792,56772,56809,57800,,,,
fixCross,canvas.Screen,2_4_2_1_10_0,2021-05-03T14:27:45.377Z,,,,,,,,,,,,,,,,,,,,,,,,,,,,,,,,,,,,,,,,,,,,,,,,,,,,,,,,,,,,,,,,,,,,,,,,,,,,,,,,,,,,,,,,,,,,,,,,,,,,,,,,,,,,,,,,,,,,510,,timeout,,,,unhealthy,,liqorice.png,,,,,,,,,,,,,,,liquorice,,,,,,,,,,,,,,,,,,,,,,,,,,,,,,,,,,,,,,,,,,,,,,,,,,,,,,,,,false,,,,,,,,,58288.00000000001,58288,57783,57766,57800,58310,,,,
Rating,html.Form,2_4_2_1_10_1,2021-05-03T14:27:45.964Z,,,,,,,,,,,,,,,,,,,,,,,,,,,,,,,,,,,,,,,,,,,,,,,,,,,,,,,,,,,,,,,,,,,,,,,,,,,,,,,,,,,,,,,,,,,,,,,,,,,,,,,,,,,,,,,,,,,,565,,form submission,,,,unhealthy,,liqorice.png,,,,,,,,,,,,,,,liquorice,,,,,,,,,,,,,,,,,,,,,,,,,,,,,,,,,,,,,,,,,,,,,,,,,,,,,,,,,false,,,,,,,,,58875,58875,58288,58288.00000000001,58310,58907,,,,50
rating_sequence,flow.Sequence,2_4_2_1_10,2021-05-03T14:27:45.964Z,,,,,,,,,,,,,,,,,,,,,,,,,,,,,,,,,,,,,,,,,,,,,,,,,,,,,,,,,,,,,,,,,,,,,,,,,,,,,,,,,,,,,,,,,,,,,,,,,,,,,,,,,,,,,,,,,,,,1075,,completion,,,,unhealthy,,liqorice.png,,,,,,,,,,,,,,,liquorice,,,,,,,,,,,,,,,,,,,,,,,,,,,,,,,,,,,,,,,,,,,,,,,,,,,,,,,,,false,,,,,,,,,58875,58875,57783,57766,57800,58907,,,,
fixCross,canvas.Screen,2_4_2_1_11_0,2021-05-03T14:27:46.484Z,,,,,,,,,,,,,,,,,,,,,,,,,,,,,,,,,,,,,,,,,,,,,,,,,,,,,,,,,,,,,,,,,,,,,,,,,,,,,,,,,,,,,,,,,,,,,,,,,,,,,,,,,,,,,,,,,,,,504,,timeout,,,,healthy,,strawberry.png,,,,,,,,,,,,,,,strawberry,,,,,,,,,,,,,,,,,,,,,,,,,,,,,,,,,,,,,,,,,,,,,,,,,,,,,,,,,false,,,,,,,,,59395,59395,58891,58875,58907,59411,,,,
Rating,html.Form,2_4_2_1_11_1,2021-05-03T14:27:46.993Z,,,,,,,,,,,,,,,,,,,,,,,,,,,,,,,,,,,,,,,,,,,,,,,,,,,,,,,,,,,,,,,,,,,,,,,,,,,,,,,,,,,,,,,,,,,,,,,,,,,,,,,,,,,,,,,,,,,,492,,form submission,,,,healthy,,strawberry.png,,,,,,,,,,,,,,,strawberry,,,,,,,,,,,,,,,,,,,,,,,,,,,,,,,,,,,,,,,,,,,,,,,,,,,,,,,,,false,,,,,,,,,59904,59903,59395,59395,59411,59935,,,,50
rating_sequence,flow.Sequence,2_4_2_1_11,2021-05-03T14:27:46.993Z,,,,,,,,,,,,,,,,,,,,,,,,,,,,,,,,,,,,,,,,,,,,,,,,,,,,,,,,,,,,,,,,,,,,,,,,,,,,,,,,,,,,,,,,,,,,,,,,,,,,,,,,,,,,,,,,,,,,996,,completion,,,,healthy,,strawberry.png,,,,,,,,,,,,,,,strawberry,,,,,,,,,,,,,,,,,,,,,,,,,,,,,,,,,,,,,,,,,,,,,,,,,,,,,,,,,false,,,,,,,,,59904,59903,58891,58875,58907,59935,,,,
fixCross,canvas.Screen,2_4_2_1_12_0,2021-05-03T14:27:47.515Z,,,,,,,,,,,,,,,,,,,,,,,,,,,,,,,,,,,,,,,,,,,,,,,,,,,,,,,,,,,,,,,,,,,,,,,,,,,,,,,,,,,,,,,,,,,,,,,,,,,,,,,,,,,,,,,,,,,,516,,timeout,,,,unhealthy,,maltesers.png,,,,,,,,,,,,,,,malteser,,,,,,,,,,,,,,,,,,,,,,,,,,,,,,,,,,,,,,,,,,,,,,,,,,,,,,,,,false,,,,,,,,,60426,60423,59918,59904,59935,60451,,,,
Rating,html.Form,2_4_2_1_12_1,2021-05-03T14:27:48.208Z,,,,,,,,,,,,,,,,,,,,,,,,,,,,,,,,,,,,,,,,,,,,,,,,,,,,,,,,,,,,,,,,,,,,,,,,,,,,,,,,,,,,,,,,,,,,,,,,,,,,,,,,,,,,,,,,,,,,667,,form submission,,,,unhealthy,,maltesers.png,,,,,,,,,,,,,,,malteser,,,,,,,,,,,,,,,,,,,,,,,,,,,,,,,,,,,,,,,,,,,,,,,,,,,,,,,,,false,,,,,,,,,61118,61118,60423,60426,60451,61159,,,,50
rating_sequence,flow.Sequence,2_4_2_1_12,2021-05-03T14:27:48.208Z,,,,,,,,,,,,,,,,,,,,,,,,,,,,,,,,,,,,,,,,,,,,,,,,,,,,,,,,,,,,,,,,,,,,,,,,,,,,,,,,,,,,,,,,,,,,,,,,,,,,,,,,,,,,,,,,,,,,1183,,completion,,,,unhealthy,,maltesers.png,,,,,,,,,,,,,,,malteser,,,,,,,,,,,,,,,,,,,,,,,,,,,,,,,,,,,,,,,,,,,,,,,,,,,,,,,,,false,,,,,,,,,61119,61118,59918,59904,59935,61159,,,,
fixCross,canvas.Screen,2_4_2_1_13_0,2021-05-03T14:27:48.737Z,,,,,,,,,,,,,,,,,,,,,,,,,,,,,,,,,,,,,,,,,,,,,,,,,,,,,,,,,,,,,,,,,,,,,,,,,,,,,,,,,,,,,,,,,,,,,,,,,,,,,,,,,,,,,,,,,,,,510,,timeout,,,,healthy,,coconut.png,,,,,,,,,,,,,,,coconut,,,,,,,,,,,,,,,,,,,,,,,,,,,,,,,,,,,,,,,,,,,,,,,,,,,,,,,,,false,,,,,,,,,61647,61647,61142,61119,61159,61669,,,,
Rating,html.Form,2_4_2_1_13_1,2021-05-03T14:27:49.244Z,,,,,,,,,,,,,,,,,,,,,,,,,,,,,,,,,,,,,,,,,,,,,,,,,,,,,,,,,,,,,,,,,,,,,,,,,,,,,,,,,,,,,,,,,,,,,,,,,,,,,,,,,,,,,,,,,,,,485,,form submission,,,,healthy,,coconut.png,,,,,,,,,,,,,,,coconut,,,,,,,,,,,,,,,,,,,,,,,,,,,,,,,,,,,,,,,,,,,,,,,,,,,,,,,,,false,,,,,,,,,62154,62154,61647,61648,61669,62187,,,,50
rating_sequence,flow.Sequence,2_4_2_1_13,2021-05-03T14:27:49.244Z,,,,,,,,,,,,,,,,,,,,,,,,,,,,,,,,,,,,,,,,,,,,,,,,,,,,,,,,,,,,,,,,,,,,,,,,,,,,,,,,,,,,,,,,,,,,,,,,,,,,,,,,,,,,,,,,,,,,995,,completion,,,,healthy,,coconut.png,,,,,,,,,,,,,,,coconut,,,,,,,,,,,,,,,,,,,,,,,,,,,,,,,,,,,,,,,,,,,,,,,,,,,,,,,,,false,,,,,,,,,62155,62154,61142,61119,61159,62187,,,,
fixCross,canvas.Screen,2_4_2_1_14_0,2021-05-03T14:27:49.765Z,,,,,,,,,,,,,,,,,,,,,,,,,,,,,,,,,,,,,,,,,,,,,,,,,,,,,,,,,,,,,,,,,,,,,,,,,,,,,,,,,,,,,,,,,,,,,,,,,,,,,,,,,,,,,,,,,,,,510,,timeout,,,,healthy,,grape.png,,,,,,,,,,,,,,,grape,,,,,,,,,,,,,,,,,,,,,,,,,,,,,,,,,,,,,,,,,,,,,,,,,,,,,,,,,false,,,,,,,,,62675.00000000001,62674,62170,62155,62187,62697,,,,
Rating,html.Form,2_4_2_1_14_1,2021-05-03T14:27:50.255Z,,,,,,,,,,,,,,,,,,,,,,,,,,,,,,,,,,,,,,,,,,,,,,,,,,,,,,,,,,,,,,,,,,,,,,,,,,,,,,,,,,,,,,,,,,,,,,,,,,,,,,,,,,,,,,,,,,,,469.0000000000073,,form submission,,,,healthy,,grape.png,,,,,,,,,,,,,,,grape,,,,,,,,,,,,,,,,,,,,,,,,,,,,,,,,,,,,,,,,,,,,,,,,,,,,,,,,,false,,,,,,,,,63166.00000000001,63166.00000000001,62674,62675.00000000001,62697,63195,,,,50
rating_sequence,flow.Sequence,2_4_2_1_14,2021-05-03T14:27:50.256Z,,,,,,,,,,,,,,,,,,,,,,,,,,,,,,,,,,,,,,,,,,,,,,,,,,,,,,,,,,,,,,,,,,,,,,,,,,,,,,,,,,,,,,,,,,,,,,,,,,,,,,,,,,,,,,,,,,,,979.0000000000073,,completion,,,,healthy,,grape.png,,,,,,,,,,,,,,,grape,,,,,,,,,,,,,,,,,,,,,,,,,,,,,,,,,,,,,,,,,,,,,,,,,,,,,,,,,false,,,,,,,,,63166.00000000001,63166.00000000001,62170,62155,62187,63195,,,,
fixCross,canvas.Screen,2_4_2_1_15_0,2021-05-03T14:27:50.773Z,,,,,,,,,,,,,,,,,,,,,,,,,,,,,,,,,,,,,,,,,,,,,,,,,,,,,,,,,,,,,,,,,,,,,,,,,,,,,,,,,,,,,,,,,,,,,,,,,,,,,,,,,,,,,,,,,,,,504,,timeout,,,,unhealthy,,chocolate.png,,,,,,,,,,,,,,,chocolate,,,,,,,,,,,,,,,,,,,,,,,,,,,,,,,,,,,,,,,,,,,,,,,,,,,,,,,,,false,,,,,,,,,63683,63682,63178,63166.00000000001,63195,63699,,,,
Rating,html.Form,2_4_2_1_15_1,2021-05-03T14:27:51.446Z,,,,,,,,,,,,,,,,,,,,,,,,,,,,,,,,,,,,,,,,,,,,,,,,,,,,,,,,,,,,,,,,,,,,,,,,,,,,,,,,,,,,,,,,,,,,,,,,,,,,,,,,,,,,,,,,,,,,656.9999999999927,,form submission,,,,unhealthy,,chocolate.png,,,,,,,,,,,,,,,chocolate,,,,,,,,,,,,,,,,,,,,,,,,,,,,,,,,,,,,,,,,,,,,,,,,,,,,,,,,,false,,,,,,,,,64355.99999999999,64355.99999999999,63682,63683,63699,64387,,,,50
rating_sequence,flow.Sequence,2_4_2_1_15,2021-05-03T14:27:51.446Z,,,,,,,,,,,,,,,,,,,,,,,,,,,,,,,,,,,,,,,,,,,,,,,,,,,,,,,,,,,,,,,,,,,,,,,,,,,,,,,,,,,,,,,,,,,,,,,,,,,,,,,,,,,,,,,,,,,,1160.9999999999927,,completion,,,,unhealthy,,chocolate.png,,,,,,,,,,,,,,,chocolate,,,,,,,,,,,,,,,,,,,,,,,,,,,,,,,,,,,,,,,,,,,,,,,,,,,,,,,,,false,,,,,,,,,64357,64355.99999999999,63178,63166.00000000001,63195,64387,,,,
fixCross,canvas.Screen,2_4_2_1_16_0,2021-05-03T14:27:51.965Z,,,,,,,,,,,,,,,,,,,,,,,,,,,,,,,,,,,,,,,,,,,,,,,,,,,,,,,,,,,,,,,,,,,,,,,,,,,,,,,,,,,,,,,,,,,,,,,,,,,,,,,,,,,,,,,,,,,,515,,timeout,,,,unhealthy,,chocolate_truffle.png,,,,,,,,,,,,,,,chocolate truffle,,,,,,,,,,,,,,,,,,,,,,,,,,,,,,,,,,,,,,,,,,,,,,,,,,,,,,,,,false,,,,,,,,,64875,64875,64371,64357,64387,64902,,,,
Rating,html.Form,2_4_2_1_16_1,2021-05-03T14:27:52.629Z,,,,,,,,,,,,,,,,,,,,,,,,,,,,,,,,,,,,,,,,,,,,,,,,,,,,,,,,,,,,,,,,,,,,,,,,,,,,,,,,,,,,,,,,,,,,,,,,,,,,,,,,,,,,,,,,,,,,637,,form submission,,,,unhealthy,,chocolate_truffle.png,,,,,,,,,,,,,,,chocolate truffle,,,,,,,,,,,,,,,,,,,,,,,,,,,,,,,,,,,,,,,,,,,,,,,,,,,,,,,,,false,,,,,,,,,65539,65539,64875,64875,64902,65581,,,,50
rating_sequence,flow.Sequence,2_4_2_1_16,2021-05-03T14:27:52.629Z,,,,,,,,,,,,,,,,,,,,,,,,,,,,,,,,,,,,,,,,,,,,,,,,,,,,,,,,,,,,,,,,,,,,,,,,,,,,,,,,,,,,,,,,,,,,,,,,,,,,,,,,,,,,,,,,,,,,1152,,completion,,,,unhealthy,,chocolate_truffle.png,,,,,,,,,,,,,,,chocolate truffle,,,,,,,,,,,,,,,,,,,,,,,,,,,,,,,,,,,,,,,,,,,,,,,,,,,,,,,,,false,,,,,,,,,65539,65539,64371,64357,64387,65581,,,,
fixCross,canvas.Screen,2_4_2_1_17_0,2021-05-03T14:27:53.159Z,,,,,,,,,,,,,,,,,,,,,,,,,,,,,,,,,,,,,,,,,,,,,,,,,,,,,,,,,,,,,,,,,,,,,,,,,,,,,,,,,,,,,,,,,,,,,,,,,,,,,,,,,,,,,,,,,,,,515,,timeout,,,,unhealthy,,praline.png,,,,,,,,,,,,,,,praline,,,,,,,,,,,,,,,,,,,,,,,,,,,,,,,,,,,,,,,,,,,,,,,,,,,,,,,,,false,,,,,,,,,66069,66068,65564,65539,65581,66096,,,,
Rating,html.Form,2_4_2_1_17_1,2021-05-03T14:27:55.173Z,,,,,,,,,,,,,,,,,,,,,,,,,,,,,,,,,,,,,,,,,,,,,,,,,,,,,,,,,,,,,,,,,,,,,,,,,,,,,,,,,,,,,,,,,,,,,,,,,,,,,,,,,,,,,,,,,,,,1987,,form submission,,,,unhealthy,,praline.png,,,,,,,,,,,,,,,praline,,,,,,,,,,,,,,,,,,,,,,,,,,,,,,,,,,,,,,,,,,,,,,,,,,,,,,,,,false,,,,,,,,,68083,68083,66068,66069,66096,68111,,,,100
rating_sequence,flow.Sequence,2_4_2_1_17,2021-05-03T14:27:55.173Z,,,,,,,,,,,,,,,,,,,,,,,,,,,,,,,,,,,,,,,,,,,,,,,,,,,,,,,,,,,,,,,,,,,,,,,,,,,,,,,,,,,,,,,,,,,,,,,,,,,,,,,,,,,,,,,,,,,,2502,,completion,,,,unhealthy,,praline.png,,,,,,,,,,,,,,,praline,,,,,,,,,,,,,,,,,,,,,,,,,,,,,,,,,,,,,,,,,,,,,,,,,,,,,,,,,false,,,,,,,,,68083,68083,65564,65539,65581,68111,,,,
rating_loop,flow.Loop,2_4_2_1,2021-05-03T14:27:55.174Z,,,,,,,,,,,,,,,,,,,,,,,,,,,,,,,,,,,,,,,,,,,,,,,,,,,,,,,,,,,,,,,,,,,,,,,,,,,,,,,,,,,,,,,,,,,,,,,,,,,,,,,,,,,,,,,,,,,,22687,,completion,,,,,,,,,,,,,,,,,,,,,,,,,,,,,,,,,,,,,,,,,,,,,,,,,,,,,,,,,,,,,,,,,,,,,,,,,,,,,,false,,,,,,,,,68083,68083,45379,45357,45396,68111,,,,
data_transmission,html.Screen,2_4_2_2,2021-05-03T14:27:55.179Z,,,,,,,,,,,,,,,,,,,,,,,,,,,,,,,,,,,,,,,,,,,,,,,,,,,,,,,,,,,,,,,,,,,,,,,,,,,,,,,,,,,,,,,,,,,,,,,,,,,,,,,,,,,,,,,,,,,,NaN,,no compatible backend,,,,,,,,,,,,,,,Transferring data,,,,,,,,,,,,,,,,,,,,,,,,,,,,,,,,,,,,,,,,,,,,,,,,,,,,,,,,,,,,,,,false,,,Please wait a second…,,,,,,68089,68089,,68083,,68111,,,,
instructions,html.Screen,2_4_2_3,2021-05-03T14:27:59.448Z,,,,,,,,,,,,,,,,,,,,,,,,,,,,,,,,,,,,,,,,,,,,,,,,,,,,,,,,,,,,,,,,,,,,,,,,,,,,,,,,,,,,,,,,,,,,,,,,,,,,,,,,,,,,,,,,,,,,4246,,done,,,,,,,,,,,,,,,,,,,,,,,,,,,,,,,,,,,,,,,,,,,,,,,,,,,,,,,,,,,,,,,,,,,,,,,,,,,,,,false,,,,,,,,,72357,72357,68094,68089,68111,72418,,,,
Q1,html.Screen,2_4_2_4_0,2021-05-03T14:28:01.060Z,,,,,,,,,,,,,,,,,,,,,,,,,,,,,,,,,,,,,,,,,,,,,,,,,,,,,,,,,,,,,,,,,,,,,,,,,,,,,,,,,,,,,,,,,,,,,,,,,,,,,,,,,,,,,,,,false,input_Q1==3,,,1479,,response,,,,,,,,,,,,,,,,,,,,,,,,,Q1_i4,Q1_i1,Q1_i3,Q1_i2,4,1,3,2,false,false,correct,false,,,,,,,,,,,,,,,,,,,,,,,,,,,,,,,,,,,,,,,,,click #Q1_i3,false,,,,,,,,,73969.00000000001,73852,72373,72357,72418,73990,,,,
Q1_correct,html.Screen,2_4_2_4_1,2021-05-03T14:28:01.332Z,,,,,,,,,,,,,,,,,,,,,,,,,,,,,,,,,,,,,,,,,,,,,,,,,,,,,,,,,,,,,,,,,,,,,,,,,,,,,,,,,,,,,,,,,,,,,,,,,,,,,,,,,,,,,,,,,,,,151,,response,,,,,,,,,,,,,,,,,,,,,,,,,,,,,,,,,,,,,,,,,,,,,,,,,,,,,,,,,,,,,,,,,,,,,,,,,,,,,keypress,false,,,,,,,,,74241,74125,73974,73969.00000000001,73990,74281,,,,
Q2,html.Screen,2_4_2_4_2,2021-05-03T14:28:02.493Z,,,,,,,,,,,,,,,,,,,,,,,,,,,,,,,,,,,,,,,,,,,,,,,,,,,,,,,,,,,,,,,,,,,,,,,,,,,,,,,,,,,,,,,,,,,,,,,,,,,,,,,,,,,,,,,,,,,,1042,,response,,,,,,,,,,,,,,,,,,,,,,,,,,,,,,,,,,,,,Q2_i2,Q2_i1,Q2_i3,Option 2,Option 1,Same amount,opt2,correct,same,,,,,,,,,,,,,,,,,,,,,,,,,,,,,,,,click #Q2_i1,false,,,,,,,,,75402,75285,74243,74242,74281,75437,,,,
Q2_correct,html.Screen,2_4_2_4_3,2021-05-03T14:28:02.749Z,,,,,,,,,,,,,,,,,,,,,,,,,,,,,,,,,,,,,,,,,,,,,,,,,,,,,,,,,,,,,,,,,,,,,,,,,,,,,,,,,,,,,,,,,,,,,,,,,,,,,,,,,,,,,,,,,,,,122,,response,,,,,,,,,,,,,,,,,,,,,,,,,,,,,,,,,,,,,,,,,,,,,,,,,,,,,,,,,,,,,,,,,,,,,,,,,,,,,keypress,false,,,,,,,,,75658,75542,75420,75402,75437,75738,,,,
Q4,html.Screen,2_4_2_4_4,2021-05-03T14:28:04.056Z,,,,,,,,,,,,,,,,,,,,,,,,,,,,,,,,,,,,,,,,,,,,,,,,,,,,,,,,,,,,,,,,,,,,,,,,,,,,,,,,,,,,,,,,,,,,,,,,,,,,,,,,,,,,,,,,,,,,1173.0000000000146,,response,,,,,,,,,,,,,,,,,,,,,,,,,,,,,,,,,,,,,,,,,,,,,,Q4_i1,Q4_i4,Q4_i2,Q4_i3,Press the arrow key that corresponds with the snack option I prefer,Press the space key,Indicate the number of food items in each snack option,Press the arrow key that corresponds with the snack option with more food items,correct,pressspace,indicate,morefood,,,,,,,,,,,,,,,,,,,,click #Q4_i1,false,,,,,,,,,76965,76847.00000000001,75674,75658,75738,76987,,,,
Q4_correct,html.Screen,2_4_2_4_5,2021-05-03T14:28:04.267Z,,,,,,,,,,,,,,,,,,,,,,,,,,,,,,,,,,,,,,,,,,,,,,,,,,,,,,,,,,,,,,,,,,,,,,,,,,,,,,,,,,,,,,,,,,,,,,,,,,,,,,,,,,,,,,,,,,,,90,,response,,,,,,,,,,,,,,,,,,,,,,,,,,,,,,,,,,,,,,,,,,,,,,,,,,,,,,,,,,,,,,,,,,,,,,,,,,,,,keypress,false,,,,,,,,,77176,77060,76970,76965,76987,77263,,,,
Q5,html.Screen,2_4_2_4_6,2021-05-03T14:28:06.144Z,,,,,,,,,,,,,,,,,,,,,,,,,,,,,,,,,,,,,,,,,,,,,,,,,,,,,,,,,,,,,,,,,,,,,,,,,,,,,,,,,,,,,,,,,,,,,,,,,,,,,,,,,,,,,,,,,,,,1744,,response,,,,,,,,,,,,,,,,,,,,,,,,,,,,,,,,,,,,,,,,,,,,,,,,,,,,,,,,,,Q5_i3,Q5_i1,Q5_i4,Q5_i2,There are more slices of kiwi in snack Option 1,Snack Option 2 has been chosen,Snack Option 1 has been chosen,There are more pieces of chocolate in snack Option 2,morekiwi1,correct,chose1,morechoc2,,,,,,,,click #Q5_i1,false,,,,,,,,,79053,78936,77192,77176,77263,79095,,,,
Q5_correct,html.Screen,2_4_2_4_7,2021-05-03T14:28:06.438Z,,,,,,,,,,,,,,,,,,,,,,,,,,,,,,,,,,,,,,,,,,,,,,,,,,,,,,,,,,,,,,,,,,,,,,,,,,,,,,,,,,,,,,,,,,,,,,,,,,,,,,,,,,,,,,,,,,,,151,,response,,,,,,,,,,,,,,,,,,,,,,,,,,,,,,,,,,,,,,,,,,,,,,,,,,,,,,,,,,,,,,,,,,,,,,,,,,,,,keypress,false,,,,,,,,,79347.00000000001,79230,79079,79053,79095,79381,,,,
practice_sequence,flow.Sequence,2_4_2_4,2021-05-03T14:28:06.438Z,,,,,,,,,,,,,,,,,,,,,,,,,,,,,,,,,,,,,,,,,,,,,,,,,,,,,,,,,,,,,,,,,,,,,,,,,,,,,,,,,,,,,,,,,,,,,,,,,,,,,,,,,,,,,,,,,,,,6812,,completion,,,,,,,,,,,,,,,,,,,,,,,,,,,,,,,,,,,,,,,,,,,,,,,,,,,,,,,,,,,,,,,,,,,,,,,,,,,,,,false,,,,,,,,,79347.00000000001,79230,72373,72357,72418,79381,,,,
final_instru,html.Screen,2_4_2_5,2021-05-03T14:28:10.893Z,,,,,,,,,,,,,,,,,,,,,,,,,,,,,,,,,,,,,,,,,,,,,,,,,,,,,,,,,,,,,,,,,,,,,,,,,,,,,,,,,,,,,,,,,,,,,,,,,,,,,,,,,,,,,,,,,,,,4420,,done,,,,,,,,,,,,,,,,,,,,,,,,,,,,,,,,,,,,,,,,,,,,,,,,,,,,,,,,,,,,,,,,,,,,,,,,,,,,,,false,,,,,,,,,83802,83801,79365,79347.00000000001,79381,83832,,,,
blank_screen,canvas.Screen,2_4_2_6_0,2021-05-03T14:28:12.913Z,,,,,,,,,,,,,,,,,,,,,,,,,,,,,,,,,,,,,,,,,,,,,,,,,,,,,,,,,,,,,,,,,,,,,,,,,,,,,,,,,,,,,,,,,,,,,,,,,,,,,,,,,,,,,,,,,,,,2018,,timeout,,,,,,,,,,,,,,,,,,,,,,,,,,,,,,,,,,,,,,,,,,,,,,,,,,,,,,,,,,,,,,,,,,,,,,,,,,,,,,false,,,,,,,,,85821,85821,83816,83802,83832,85850,,,,
fixCross,canvas.Screen,2_4_2_6_1_0_0_0_0_0_0,2021-05-03T14:28:13.468Z,,,blank.png,"[""praline.png""]",blank.png,blank.png,blank.png,blank.png,blank.png,blank.png,blank.png,blank.png,blank.png,blank.png,blank.png,,,,,,,,,,,,,,,,,,,,,,,,,,,,,"[""praline.png""]","[""raspberry.png""]",PB17.png,,,,,,,,,,,0,6,"[""raspberry.png""]","[""raspberry.png""]","[""raspberry.png""]","[""raspberry.png""]","[""raspberry.png""]","[""raspberry.png""]",blank.png,PB18.png,PB18.png,"[""raspberry.png""]","[""raspberry.png""]","[""raspberry.png""]","[""raspberry.png""]","[""raspberry.png""]","[""raspberry.png""]","[""raspberry.png""]","[""raspberry.png""]","[""raspberry.png""]","[""raspberry.png""]","[""raspberry.png""]","[""raspberry.png""]",1,"[""praline.png""]",blank.png,blank.png,blank.png,6,"[""raspberry.png""]","[""raspberry.png""]","[""raspberry.png""]","[""raspberry.png""]","[""raspberry.png""]","[""raspberry.png""]",PB17.png,,,,,,,,,,,1,,,,,,,,,,,,,611,,timeout,,,,,,,,,,,,,3,,,,,,,,,,,,,,,,,,,,,,,,,,,,,,,,,,,,,,,,,,,,,,,,,,,,,,,,,"[""raspberry.png""]","[""praline.png""]",,,,2,,,false,,1,,,,,,,86377,86376,85821,85840,85850,86461,1,,,
timeout,canvas.Screen,2_4_2_6_1_0_0_0_0_0_1,2021-05-03T14:28:14.028Z,,,blank.png,"[""praline.png""]",blank.png,blank.png,blank.png,blank.png,blank.png,blank.png,blank.png,blank.png,blank.png,blank.png,blank.png,,,,,,,,,,,,,,,,,,,,,,,,,,,,,"[""praline.png""]","[""raspberry.png""]",PB17.png,,,,,,,,,,,0,6,"[""raspberry.png""]","[""raspberry.png""]","[""raspberry.png""]","[""raspberry.png""]","[""raspberry.png""]","[""raspberry.png""]",blank.png,PB18.png,PB18.png,"[""raspberry.png""]","[""raspberry.png""]","[""raspberry.png""]","[""raspberry.png""]","[""raspberry.png""]","[""raspberry.png""]","[""raspberry.png""]","[""raspberry.png""]","[""raspberry.png""]","[""raspberry.png""]","[""raspberry.png""]","[""raspberry.png""]",1,"[""praline.png""]",blank.png,blank.png,blank.png,6,"[""raspberry.png""]","[""raspberry.png""]","[""raspberry.png""]","[""raspberry.png""]","[""raspberry.png""]","[""raspberry.png""]",PB17.png,,,,,,,,,,,1,,,,,,,,,,,,,609,,timeout,,,,,,,,,,,,,3,,,,,,,,,,,,,,,,,,,,,,,,,,,,,,,,,,,,,,,,,,,,,,,,,,,,,,,,,"[""raspberry.png""]","[""praline.png""]",,,,2,,,false,,1,,,,,,,86937,86936,86376,86445.00000000001,86461,87070,,,,
choice,canvas.Screen,2_4_2_6_1_0_0_0_0_0_2,2021-05-03T14:28:14.301Z,,,blank.png,"[""praline.png""]",blank.png,blank.png,blank.png,blank.png,blank.png,blank.png,blank.png,blank.png,blank.png,blank.png,blank.png,,,,,,,,,,,,,,,,,,,,,,,,,,,,,"[""praline.png""]","[""raspberry.png""]",PB17.png,,,,,,,,,,,0,6,"[""raspberry.png""]","[""raspberry.png""]","[""raspberry.png""]","[""raspberry.png""]","[""raspberry.png""]","[""raspberry.png""]",blank.png,PB18.png,PB18.png,"[""raspberry.png""]","[""raspberry.png""]","[""raspberry.png""]","[""raspberry.png""]","[""raspberry.png""]","[""raspberry.png""]","[""raspberry.png""]","[""raspberry.png""]","[""raspberry.png""]","[""raspberry.png""]","[""raspberry.png""]","[""raspberry.png""]",1,"[""praline.png""]",blank.png,blank.png,blank.png,6,"[""raspberry.png""]","[""raspberry.png""]","[""raspberry.png""]","[""raspberry.png""]","[""raspberry.png""]","[""raspberry.png""]",PB17.png,,,,,,,,,,,1,,,,,,,,,,,,,156,,response,,,,,,,,,,,,,3,,,,,,,,,,,,,,,,,,,,,,,,,,,,,,,,,,,,,,,,,,,,,,,,,,,,,,,,,"[""raspberry.png""]","[""praline.png""]",,,,2,left,keydown(ArrowLeft),false,,1,,,,,,,87209,87092,86936,87052,87070,87241,,1,,
square,canvas.Screen,2_4_2_6_1_0_0_0_0_0_3,2021-05-03T14:28:15.324Z,,,blank.png,"[""praline.png""]",blank.png,blank.png,blank.png,blank.png,blank.png,blank.png,blank.png,blank.png,blank.png,blank.png,blank.png,,,,,,,,,,,,,,,,,,,,,,,,,,,,,"[""praline.png""]","[""raspberry.png""]",PB17.png,,,,,,,,,,,0,6,"[""raspberry.png""]","[""raspberry.png""]","[""raspberry.png""]","[""raspberry.png""]","[""raspberry.png""]","[""raspberry.png""]",blank.png,PB18.png,PB18.png,"[""raspberry.png""]","[""raspberry.png""]","[""raspberry.png""]","[""raspberry.png""]","[""raspberry.png""]","[""raspberry.png""]","[""raspberry.png""]","[""raspberry.png""]","[""raspberry.png""]","[""raspberry.png""]","[""raspberry.png""]","[""raspberry.png""]",1,"[""praline.png""]",blank.png,blank.png,blank.png,6,"[""raspberry.png""]","[""raspberry.png""]","[""raspberry.png""]","[""raspberry.png""]","[""raspberry.png""]","[""raspberry.png""]",PB17.png,,,,,,,,,,,1,,,#33ff3f,#808080,,,,,,,,,1006,,timeout,,,,,,,,,,,,,3,,,,,,,,,,,,,,,,,,,,,,,,,,,,,,,,,,,,,,,,,,,,,,,,,,,,,,,,,"[""raspberry.png""]","[""praline.png""]",,,,2,,,false,,1,,,,,black,white,88232,88231,87224,87214,87241,88247,,,,
ITI_late,canvas.Screen,2_4_2_6_1_0_0_0_0_0_4,2021-05-03T14:28:16.578Z,,,blank.png,"[""praline.png""]",blank.png,blank.png,blank.png,blank.png,blank.png,blank.png,blank.png,blank.png,blank.png,blank.png,blank.png,,,,,,,,,,,,,,,,,,,,,,,,,,,,,"[""praline.png""]","[""raspberry.png""]",PB17.png,,,,,,,,,,,0,6,"[""raspberry.png""]","[""raspberry.png""]","[""raspberry.png""]","[""raspberry.png""]","[""raspberry.png""]","[""raspberry.png""]",blank.png,PB18.png,PB18.png,"[""raspberry.png""]","[""raspberry.png""]","[""raspberry.png""]","[""raspberry.png""]","[""raspberry.png""]","[""raspberry.png""]","[""raspberry.png""]","[""raspberry.png""]","[""raspberry.png""]","[""raspberry.png""]","[""raspberry.png""]","[""raspberry.png""]",1,"[""praline.png""]",blank.png,blank.png,blank.png,6,"[""raspberry.png""]","[""raspberry.png""]","[""raspberry.png""]","[""raspberry.png""]","[""raspberry.png""]","[""raspberry.png""]",PB17.png,,,,,,,,,,,1,,,,,,,,,,,,,1255,,timeout,,,,,,,,,,,,white,3,,,,,,,,,,,,,,,,,,,,,,,,,,,,,,,,,,,,,,,,,,,,,,,,,,,,,,,,,"[""raspberry.png""]","[""praline.png""]",,,,2,,,false,,1,,,,,,,89486,89486,88231,88235,88247,89502,,,,
choice_sequence,flow.Sequence,2_4_2_6_1_0_0_0_0_0,2021-05-03T14:28:16.578Z,,,blank.png,"[""praline.png""]",blank.png,blank.png,blank.png,blank.png,blank.png,blank.png,blank.png,blank.png,blank.png,blank.png,blank.png,,,,,,,,,,,,,,,,,,,,,,,,,,,,,"[""praline.png""]","[""raspberry.png""]",PB17.png,,,,,,,,,,,0,6,"[""raspberry.png""]","[""raspberry.png""]","[""raspberry.png""]","[""raspberry.png""]","[""raspberry.png""]","[""raspberry.png""]",blank.png,PB18.png,PB18.png,"[""raspberry.png""]","[""raspberry.png""]","[""raspberry.png""]","[""raspberry.png""]","[""raspberry.png""]","[""raspberry.png""]","[""raspberry.png""]","[""raspberry.png""]","[""raspberry.png""]","[""raspberry.png""]","[""raspberry.png""]","[""raspberry.png""]",1,"[""praline.png""]",blank.png,blank.png,blank.png,6,"[""raspberry.png""]","[""raspberry.png""]","[""raspberry.png""]","[""raspberry.png""]","[""raspberry.png""]","[""raspberry.png""]",PB17.png,,,,,,,,,,,1,,,,,,,,,,,,,3636,,completion,,,,,,,,,,,,,3,,,,,,,,,,,,,,,,,,,,,,,,,,,,,,,,,,,,,,,,,,,,,,,,,,,,,,,,,"[""raspberry.png""]","[""praline.png""]",,,,2,,,false,,1,,,,,,,89486,89486,85821,85839,85850,89502,,,,
fixCross,canvas.Screen,2_4_2_6_1_0_0_0_0_1_0,2021-05-03T14:28:17.020Z,,,blank.png,"[""praline.png""]",blank.png,blank.png,blank.png,blank.png,blank.png,blank.png,blank.png,blank.png,blank.png,blank.png,blank.png,,,,,,,,,,,,,,,,,,,,,,,,,,,,,"[""praline.png""]","[""raspberry.png""]",PB15.png,,,,,,,,,,,0,6,"[""raspberry.png""]","[""raspberry.png""]","[""raspberry.png""]","[""raspberry.png""]","[""raspberry.png""]","[""raspberry.png""]",blank.png,PB18.png,PB18.png,"[""raspberry.png""]","[""raspberry.png""]","[""raspberry.png""]","[""raspberry.png""]",blank.png,blank.png,"[""raspberry.png""]","[""raspberry.png""]","[""raspberry.png""]","[""raspberry.png""]","[""raspberry.png""]","[""raspberry.png""]",1,"[""praline.png""]",blank.png,blank.png,blank.png,4,"[""raspberry.png""]","[""raspberry.png""]","[""raspberry.png""]","[""raspberry.png""]",blank.png,blank.png,PB15.png,,,,,,,,,,,1,,,,,,,,,,,,,493,,timeout,,,,,,,,,,,,,3,,,,,,,,,,,,,,,,,,,,,,,,,,,,,,,,,,,,,,,,,,,,,,,,,,,,,,,,,"[""raspberry.png""]","[""praline.png""]",,,,2,,,false,,1,,,,,,,89928,89928,89486,89489,89502,89995,2,,,
timeout,canvas.Screen,2_4_2_6_1_0_0_0_0_1_1,2021-05-03T14:28:17.574Z,,,blank.png,"[""praline.png""]",blank.png,blank.png,blank.png,blank.png,blank.png,blank.png,blank.png,blank.png,blank.png,blank.png,blank.png,,,,,,,,,,,,,,,,,,,,,,,,,,,,,"[""praline.png""]","[""raspberry.png""]",PB15.png,,,,,,,,,,,0,6,"[""raspberry.png""]","[""raspberry.png""]","[""raspberry.png""]","[""raspberry.png""]","[""raspberry.png""]","[""raspberry.png""]",blank.png,PB18.png,PB18.png,"[""raspberry.png""]","[""raspberry.png""]","[""raspberry.png""]","[""raspberry.png""]",blank.png,blank.png,"[""raspberry.png""]","[""raspberry.png""]","[""raspberry.png""]","[""raspberry.png""]","[""raspberry.png""]","[""raspberry.png""]",1,"[""praline.png""]",blank.png,blank.png,blank.png,4,"[""raspberry.png""]","[""raspberry.png""]","[""raspberry.png""]","[""raspberry.png""]",blank.png,blank.png,PB15.png,,,,,,,,,,,1,,,,,,,,,,,,,508,,timeout,,,,,,,,,,,,,3,,,,,,,,,,,,,,,,,,,,,,,,,,,,,,,,,,,,,,,,,,,,,,,,,,,,,,,,,"[""raspberry.png""]","[""praline.png""]",,,,2,,,false,,1,,,,,,,90483,90482,89928,89975.00000000001,89995,90503,,,,
choice,canvas.Screen,2_4_2_6_1_0_0_0_0_1_2,2021-05-03T14:28:17.746Z,,,blank.png,"[""praline.png""]",blank.png,blank.png,blank.png,blank.png,blank.png,blank.png,blank.png,blank.png,blank.png,blank.png,blank.png,,,,,,,,,,,,,,,,,,,,,,,,,,,,,"[""praline.png""]","[""raspberry.png""]",PB15.png,,,,,,,,,,,0,6,"[""raspberry.png""]","[""raspberry.png""]","[""raspberry.png""]","[""raspberry.png""]","[""raspberry.png""]","[""raspberry.png""]",blank.png,PB18.png,PB18.png,"[""raspberry.png""]","[""raspberry.png""]","[""raspberry.png""]","[""raspberry.png""]",blank.png,blank.png,"[""raspberry.png""]","[""raspberry.png""]","[""raspberry.png""]","[""raspberry.png""]","[""raspberry.png""]","[""raspberry.png""]",1,"[""praline.png""]",blank.png,blank.png,blank.png,4,"[""raspberry.png""]","[""raspberry.png""]","[""raspberry.png""]","[""raspberry.png""]",blank.png,blank.png,PB15.png,,,,,,,,,,,1,,,,,,,,,,,,,55,,response,,,,,,,,,,,,,3,,,,,,,,,,,,,,,,,,,,,,,,,,,,,,,,,,,,,,,,,,,,,,,,,,,,,,,,,"[""raspberry.png""]","[""praline.png""]",,,,2,left,keydown(ArrowLeft),false,,1,,,,,,,90654,90537,90482,90486,90503,90690,,2,,
square,canvas.Screen,2_4_2_6_1_0_0_0_0_1_3,2021-05-03T14:28:18.771Z,,,blank.png,"[""praline.png""]",blank.png,blank.png,blank.png,blank.png,blank.png,blank.png,blank.png,blank.png,blank.png,blank.png,blank.png,,,,,,,,,,,,,,,,,,,,,,,,,,,,,"[""praline.png""]","[""raspberry.png""]",PB15.png,,,,,,,,,,,0,6,"[""raspberry.png""]","[""raspberry.png""]","[""raspberry.png""]","[""raspberry.png""]","[""raspberry.png""]","[""raspberry.png""]",blank.png,PB18.png,PB18.png,"[""raspberry.png""]","[""raspberry.png""]","[""raspberry.png""]","[""raspberry.png""]",blank.png,blank.png,"[""raspberry.png""]","[""raspberry.png""]","[""raspberry.png""]","[""raspberry.png""]","[""raspberry.png""]","[""raspberry.png""]",1,"[""praline.png""]",blank.png,blank.png,blank.png,4,"[""raspberry.png""]","[""raspberry.png""]","[""raspberry.png""]","[""raspberry.png""]",blank.png,blank.png,PB15.png,,,,,,,,,,,1,,,#33ff3f,#808080,,,,,,,,,1005,,timeout,,,,,,,,,,,,,3,,,,,,,,,,,,,,,,,,,,,,,,,,,,,,,,,,,,,,,,,,,,,,,,,,,,,,,,,"[""raspberry.png""]","[""praline.png""]",,,,2,,,false,,1,,,,,black,white,91680,91679,90674,90657,90690,91695,,,,
ITI_late,canvas.Screen,2_4_2_6_1_0_0_0_0_1_4,2021-05-03T14:28:19.276Z,,,blank.png,"[""praline.png""]",blank.png,blank.png,blank.png,blank.png,blank.png,blank.png,blank.png,blank.png,blank.png,blank.png,blank.png,,,,,,,,,,,,,,,,,,,,,,,,,,,,,"[""praline.png""]","[""raspberry.png""]",PB15.png,,,,,,,,,,,0,6,"[""raspberry.png""]","[""raspberry.png""]","[""raspberry.png""]","[""raspberry.png""]","[""raspberry.png""]","[""raspberry.png""]",blank.png,PB18.png,PB18.png,"[""raspberry.png""]","[""raspberry.png""]","[""raspberry.png""]","[""raspberry.png""]",blank.png,blank.png,"[""raspberry.png""]","[""raspberry.png""]","[""raspberry.png""]","[""raspberry.png""]","[""raspberry.png""]","[""raspberry.png""]",1,"[""praline.png""]",blank.png,blank.png,blank.png,4,"[""raspberry.png""]","[""raspberry.png""]","[""raspberry.png""]","[""raspberry.png""]",blank.png,blank.png,PB15.png,,,,,,,,,,,1,,,,,,,,,,,,,505,,timeout,,,,,,,,,,,,white,3,,,,,,,,,,,,,,,,,,,,,,,,,,,,,,,,,,,,,,,,,,,,,,,,,,,,,,,,,"[""raspberry.png""]","[""praline.png""]",,,,2,,,false,,1,,,,,,,92184,92184,91679,91681,91695,92200,,,,
choice_sequence,flow.Sequence,2_4_2_6_1_0_0_0_0_1,2021-05-03T14:28:19.277Z,,,blank.png,"[""praline.png""]",blank.png,blank.png,blank.png,blank.png,blank.png,blank.png,blank.png,blank.png,blank.png,blank.png,blank.png,,,,,,,,,,,,,,,,,,,,,,,,,,,,,"[""praline.png""]","[""raspberry.png""]",PB15.png,,,,,,,,,,,0,6,"[""raspberry.png""]","[""raspberry.png""]","[""raspberry.png""]","[""raspberry.png""]","[""raspberry.png""]","[""raspberry.png""]",blank.png,PB18.png,PB18.png,"[""raspberry.png""]","[""raspberry.png""]","[""raspberry.png""]","[""raspberry.png""]",blank.png,blank.png,"[""raspberry.png""]","[""raspberry.png""]","[""raspberry.png""]","[""raspberry.png""]","[""raspberry.png""]","[""raspberry.png""]",1,"[""praline.png""]",blank.png,blank.png,blank.png,4,"[""raspberry.png""]","[""raspberry.png""]","[""raspberry.png""]","[""raspberry.png""]",blank.png,blank.png,PB15.png,,,,,,,,,,,1,,,,,,,,,,,,,2682,,completion,,,,,,,,,,,,,3,,,,,,,,,,,,,,,,,,,,,,,,,,,,,,,,,,,,,,,,,,,,,,,,,,,,,,,,,"[""raspberry.png""]","[""praline.png""]",,,,2,,,false,,1,,,,,,,92185,92184,89486,89489,89502,92200,,,,
fixCross,canvas.Screen,2_4_2_6_1_0_0_0_0_2_0,2021-05-03T14:28:19.730Z,,,blank.png,blank.png,blank.png,blank.png,blank.png,blank.png,blank.png,"[""praline.png""]",blank.png,blank.png,blank.png,blank.png,blank.png,,,,,,,,,,,,,,,,,,,,,,,,,,,,,"[""praline.png""]","[""raspberry.png""]",PB18.png,,,,,,,,,,,0,6,"[""raspberry.png""]","[""raspberry.png""]","[""raspberry.png""]","[""raspberry.png""]","[""raspberry.png""]","[""raspberry.png""]",blank.png,PB18.png,PB01.png,"[""raspberry.png""]","[""raspberry.png""]","[""raspberry.png""]","[""raspberry.png""]","[""raspberry.png""]","[""raspberry.png""]",blank.png,blank.png,blank.png,blank.png,blank.png,blank.png,1,"[""praline.png""]",blank.png,blank.png,blank.png,0,blank.png,blank.png,blank.png,blank.png,blank.png,blank.png,PB01.png,,,,,,,,,,,1,,,,,,,,,,,,,488,,timeout,,,,,,,,,,,,,4,,,,,,,,,,,,,,,,,,,,,,,,,,,,,,,,,,,,,,,,,,,,,,,,,,,,,,,,,"[""raspberry.png""]","[""praline.png""]",,,,2,,,false,,1,,,,,,,92638,92638,92184,92187,92200,92688,3,,,
timeout,canvas.Screen,2_4_2_6_1_0_0_0_0_2_1,2021-05-03T14:28:20.254Z,,,blank.png,blank.png,blank.png,blank.png,blank.png,blank.png,blank.png,"[""praline.png""]",blank.png,blank.png,blank.png,blank.png,blank.png,,,,,,,,,,,,,,,,,,,,,,,,,,,,,"[""praline.png""]","[""raspberry.png""]",PB18.png,,,,,,,,,,,0,6,"[""raspberry.png""]","[""raspberry.png""]","[""raspberry.png""]","[""raspberry.png""]","[""raspberry.png""]","[""raspberry.png""]",blank.png,PB18.png,PB01.png,"[""raspberry.png""]","[""raspberry.png""]","[""raspberry.png""]","[""raspberry.png""]","[""raspberry.png""]","[""raspberry.png""]",blank.png,blank.png,blank.png,blank.png,blank.png,blank.png,1,"[""praline.png""]",blank.png,blank.png,blank.png,0,blank.png,blank.png,blank.png,blank.png,blank.png,blank.png,PB01.png,,,,,,,,,,,1,,,,,,,,,,,,,490,,timeout,,,,,,,,,,,,,4,,,,,,,,,,,,,,,,,,,,,,,,,,,,,,,,,,,,,,,,,,,,,,,,,,,,,,,,,"[""raspberry.png""]","[""praline.png""]",,,,2,,,false,,1,,,,,,,93162,93162,92638,92673,92688,93178,,,,
choice,canvas.Screen,2_4_2_6_1_0_0_0_0_2_2,2021-05-03T14:28:20.524Z,,,blank.png,blank.png,blank.png,blank.png,blank.png,blank.png,blank.png,"[""praline.png""]",blank.png,blank.png,blank.png,blank.png,blank.png,,,,,,,,,,,,,,,,,,,,,,,,,,,,,"[""praline.png""]","[""raspberry.png""]",PB18.png,,,,,,,,,,,0,6,"[""raspberry.png""]","[""raspberry.png""]","[""raspberry.png""]","[""raspberry.png""]","[""raspberry.png""]","[""raspberry.png""]",blank.png,PB18.png,PB01.png,"[""raspberry.png""]","[""raspberry.png""]","[""raspberry.png""]","[""raspberry.png""]","[""raspberry.png""]","[""raspberry.png""]",blank.png,blank.png,blank.png,blank.png,blank.png,blank.png,1,"[""praline.png""]",blank.png,blank.png,blank.png,0,blank.png,blank.png,blank.png,blank.png,blank.png,blank.png,PB01.png,,,,,,,,,,,1,,,,,,,,,,,,,152,,response,,,,,,,,,,,,,4,,,,,,,,,,,,,,,,,,,,,,,,,,,,,,,,,,,,,,,,,,,,,,,,,,,,,,,,,"[""raspberry.png""]","[""praline.png""]",,,,2,left,keydown(ArrowLeft),false,,1,,,,,,,93432,93314,93162,93165,93178,93466,,3,,
square,canvas.Screen,2_4_2_6_1_0_0_0_0_2_3,2021-05-03T14:28:21.548Z,,,blank.png,blank.png,blank.png,blank.png,blank.png,blank.png,blank.png,"[""praline.png""]",blank.png,blank.png,blank.png,blank.png,blank.png,,,,,,,,,,,,,,,,,,,,,,,,,,,,,"[""praline.png""]","[""raspberry.png""]",PB18.png,,,,,,,,,,,0,6,"[""raspberry.png""]","[""raspberry.png""]","[""raspberry.png""]","[""raspberry.png""]","[""raspberry.png""]","[""raspberry.png""]",blank.png,PB18.png,PB01.png,"[""raspberry.png""]","[""raspberry.png""]","[""raspberry.png""]","[""raspberry.png""]","[""raspberry.png""]","[""raspberry.png""]",blank.png,blank.png,blank.png,blank.png,blank.png,blank.png,1,"[""praline.png""]",blank.png,blank.png,blank.png,0,blank.png,blank.png,blank.png,blank.png,blank.png,blank.png,PB01.png,,,,,,,,,,,1,,,#33ff3f,#808080,,,,,,,,,1006,,timeout,,,,,,,,,,,,,4,,,,,,,,,,,,,,,,,,,,,,,,,,,,,,,,,,,,,,,,,,,,,,,,,,,,,,,,,"[""raspberry.png""]","[""praline.png""]",,,,2,,,false,,1,,,,,black,white,94456,94456,93448,93434,93466,94472,,,,
ITI_late,canvas.Screen,2_4_2_6_1_0_0_0_0_2_4,2021-05-03T14:28:21.802Z,,,blank.png,blank.png,blank.png,blank.png,blank.png,blank.png,blank.png,"[""praline.png""]",blank.png,blank.png,blank.png,blank.png,blank.png,,,,,,,,,,,,,,,,,,,,,,,,,,,,,"[""praline.png""]","[""raspberry.png""]",PB18.png,,,,,,,,,,,0,6,"[""raspberry.png""]","[""raspberry.png""]","[""raspberry.png""]","[""raspberry.png""]","[""raspberry.png""]","[""raspberry.png""]",blank.png,PB18.png,PB01.png,"[""raspberry.png""]","[""raspberry.png""]","[""raspberry.png""]","[""raspberry.png""]","[""raspberry.png""]","[""raspberry.png""]",blank.png,blank.png,blank.png,blank.png,blank.png,blank.png,1,"[""praline.png""]",blank.png,blank.png,blank.png,0,blank.png,blank.png,blank.png,blank.png,blank.png,blank.png,PB01.png,,,,,,,,,,,1,,,,,,,,,,,,,255,,timeout,,,,,,,,,,,,white,4,,,,,,,,,,,,,,,,,,,,,,,,,,,,,,,,,,,,,,,,,,,,,,,,,,,,,,,,,"[""raspberry.png""]","[""praline.png""]",,,,2,,,false,,1,,,,,,,94710.00000000001,94709,94456,94457.00000000001,94472,94727,,,,
choice_sequence,flow.Sequence,2_4_2_6_1_0_0_0_0_2,2021-05-03T14:28:21.802Z,,,blank.png,blank.png,blank.png,blank.png,blank.png,blank.png,blank.png,"[""praline.png""]",blank.png,blank.png,blank.png,blank.png,blank.png,,,,,,,,,,,,,,,,,,,,,,,,,,,,,"[""praline.png""]","[""raspberry.png""]",PB18.png,,,,,,,,,,,0,6,"[""raspberry.png""]","[""raspberry.png""]","[""raspberry.png""]","[""raspberry.png""]","[""raspberry.png""]","[""raspberry.png""]",blank.png,PB18.png,PB01.png,"[""raspberry.png""]","[""raspberry.png""]","[""raspberry.png""]","[""raspberry.png""]","[""raspberry.png""]","[""raspberry.png""]",blank.png,blank.png,blank.png,blank.png,blank.png,blank.png,1,"[""praline.png""]",blank.png,blank.png,blank.png,0,blank.png,blank.png,blank.png,blank.png,blank.png,blank.png,PB01.png,,,,,,,,,,,1,,,,,,,,,,,,,2509,,completion,,,,,,,,,,,,,4,,,,,,,,,,,,,,,,,,,,,,,,,,,,,,,,,,,,,,,,,,,,,,,,,,,,,,,,,"[""raspberry.png""]","[""praline.png""]",,,,2,,,false,,1,,,,,,,94710.00000000001,94709,92184,92187,92200,94727,,,,
fixCross,canvas.Screen,2_4_2_6_1_0_0_0_0_3_0,2021-05-03T14:28:22.558Z,,,blank.png,blank.png,blank.png,blank.png,blank.png,blank.png,blank.png,"[""praline.png""]",blank.png,blank.png,blank.png,blank.png,blank.png,,,,,,,,,,,,,,,,,,,,,,,,,,,,,"[""praline.png""]","[""raspberry.png""]",PB18.png,,,,,,,,,,,0,6,"[""raspberry.png""]","[""raspberry.png""]","[""raspberry.png""]","[""raspberry.png""]","[""raspberry.png""]","[""raspberry.png""]",blank.png,PB18.png,PB07.png,"[""raspberry.png""]","[""raspberry.png""]","[""raspberry.png""]","[""raspberry.png""]","[""raspberry.png""]","[""raspberry.png""]","[""raspberry.png""]",blank.png,blank.png,blank.png,blank.png,blank.png,1,"[""praline.png""]",blank.png,blank.png,blank.png,1,"[""raspberry.png""]",blank.png,blank.png,blank.png,blank.png,blank.png,PB07.png,,,,,,,,,,,1,,,,,,,,,,,,,805,,timeout,,,,,,,,,,,,,4,,,,,,,,,,,,,,,,,,,,,,,,,,,,,,,,,,,,,,,,,,,,,,,,,,,,,,,,,"[""raspberry.png""]","[""praline.png""]",,,,2,,,false,,1,,,,,,,95466.00000000001,95466,94709,94713.00000000001,94727,95532,4,,,
timeout,canvas.Screen,2_4_2_6_1_0_0_0_0_3_1,2021-05-03T14:28:23.113Z,,,blank.png,blank.png,blank.png,blank.png,blank.png,blank.png,blank.png,"[""praline.png""]",blank.png,blank.png,blank.png,blank.png,blank.png,,,,,,,,,,,,,,,,,,,,,,,,,,,,,"[""praline.png""]","[""raspberry.png""]",PB18.png,,,,,,,,,,,0,6,"[""raspberry.png""]","[""raspberry.png""]","[""raspberry.png""]","[""raspberry.png""]","[""raspberry.png""]","[""raspberry.png""]",blank.png,PB18.png,PB07.png,"[""raspberry.png""]","[""raspberry.png""]","[""raspberry.png""]","[""raspberry.png""]","[""raspberry.png""]","[""raspberry.png""]","[""raspberry.png""]",blank.png,blank.png,blank.png,blank.png,blank.png,1,"[""praline.png""]",blank.png,blank.png,blank.png,1,"[""raspberry.png""]",blank.png,blank.png,blank.png,blank.png,blank.png,PB07.png,,,,,,,,,,,1,,,,,,,,,,,,,504,,timeout,,,,,,,,,,,,,4,,,,,,,,,,,,,,,,,,,,,,,,,,,,,,,,,,,,,,,,,,,,,,,,,,,,,,,,,"[""raspberry.png""]","[""praline.png""]",,,,2,,,false,,1,,,,,,,96021,96020,95466,95528,95532,96036,,,,
choice,canvas.Screen,2_4_2_6_1_0_0_0_0_3_2,2021-05-03T14:28:23.259Z,,,blank.png,blank.png,blank.png,blank.png,blank.png,blank.png,blank.png,"[""praline.png""]",blank.png,blank.png,blank.png,blank.png,blank.png,,,,,,,,,,,,,,,,,,,,,,,,,,,,,"[""praline.png""]","[""raspberry.png""]",PB18.png,,,,,,,,,,,0,6,"[""raspberry.png""]","[""raspberry.png""]","[""raspberry.png""]","[""raspberry.png""]","[""raspberry.png""]","[""raspberry.png""]",blank.png,PB18.png,PB07.png,"[""raspberry.png""]","[""raspberry.png""]","[""raspberry.png""]","[""raspberry.png""]","[""raspberry.png""]","[""raspberry.png""]","[""raspberry.png""]",blank.png,blank.png,blank.png,blank.png,blank.png,1,"[""praline.png""]",blank.png,blank.png,blank.png,1,"[""raspberry.png""]",blank.png,blank.png,blank.png,blank.png,blank.png,PB07.png,,,,,,,,,,,1,,,,,,,,,,,,,29,,response,,,,,,,,,,,,,4,,,,,,,,,,,,,,,,,,,,,,,,,,,,,,,,,,,,,,,,,,,,,,,,,,,,,,,,,"[""raspberry.png""]","[""praline.png""]",,,,2,left,keydown(ArrowLeft),false,,1,,,,,,,96167,96049,96020,96023,96036,96191,,4,,
square,canvas.Screen,2_4_2_6_1_0_0_0_0_3_3,2021-05-03T14:28:24.273Z,,,blank.png,blank.png,blank.png,blank.png,blank.png,blank.png,blank.png,"[""praline.png""]",blank.png,blank.png,blank.png,blank.png,blank.png,,,,,,,,,,,,,,,,,,,,,,,,,,,,,"[""praline.png""]","[""raspberry.png""]",PB18.png,,,,,,,,,,,0,6,"[""raspberry.png""]","[""raspberry.png""]","[""raspberry.png""]","[""raspberry.png""]","[""raspberry.png""]","[""raspberry.png""]",blank.png,PB18.png,PB07.png,"[""raspberry.png""]","[""raspberry.png""]","[""raspberry.png""]","[""raspberry.png""]","[""raspberry.png""]","[""raspberry.png""]","[""raspberry.png""]",blank.png,blank.png,blank.png,blank.png,blank.png,1,"[""praline.png""]",blank.png,blank.png,blank.png,1,"[""raspberry.png""]",blank.png,blank.png,blank.png,blank.png,blank.png,PB07.png,,,,,,,,,,,1,,,#33ff3f,#808080,,,,,,,,,1006,,timeout,,,,,,,,,,,,,4,,,,,,,,,,,,,,,,,,,,,,,,,,,,,,,,,,,,,,,,,,,,,,,,,,,,,,,,,"[""raspberry.png""]","[""praline.png""]",,,,2,,,false,,1,,,,,black,white,97181,97181,96174,96169,96191,97197,,,,
ITI_late,canvas.Screen,2_4_2_6_1_0_0_0_0_3_4,2021-05-03T14:28:24.778Z,,,blank.png,blank.png,blank.png,blank.png,blank.png,blank.png,blank.png,"[""praline.png""]",blank.png,blank.png,blank.png,blank.png,blank.png,,,,,,,,,,,,,,,,,,,,,,,,,,,,,"[""praline.png""]","[""raspberry.png""]",PB18.png,,,,,,,,,,,0,6,"[""raspberry.png""]","[""raspberry.png""]","[""raspberry.png""]","[""raspberry.png""]","[""raspberry.png""]","[""raspberry.png""]",blank.png,PB18.png,PB07.png,"[""raspberry.png""]","[""raspberry.png""]","[""raspberry.png""]","[""raspberry.png""]","[""raspberry.png""]","[""raspberry.png""]","[""raspberry.png""]",blank.png,blank.png,blank.png,blank.png,blank.png,1,"[""praline.png""]",blank.png,blank.png,blank.png,1,"[""raspberry.png""]",blank.png,blank.png,blank.png,blank.png,blank.png,PB07.png,,,,,,,,,,,1,,,,,,,,,,,,,505,,timeout,,,,,,,,,,,,white,4,,,,,,,,,,,,,,,,,,,,,,,,,,,,,,,,,,,,,,,,,,,,,,,,,,,,,,,,,"[""raspberry.png""]","[""praline.png""]",,,,2,,,false,,1,,,,,,,97686,97685,97181,97182,97197,97702,,,,
choice_sequence,flow.Sequence,2_4_2_6_1_0_0_0_0_3,2021-05-03T14:28:24.778Z,,,blank.png,blank.png,blank.png,blank.png,blank.png,blank.png,blank.png,"[""praline.png""]",blank.png,blank.png,blank.png,blank.png,blank.png,,,,,,,,,,,,,,,,,,,,,,,,,,,,,"[""praline.png""]","[""raspberry.png""]",PB18.png,,,,,,,,,,,0,6,"[""raspberry.png""]","[""raspberry.png""]","[""raspberry.png""]","[""raspberry.png""]","[""raspberry.png""]","[""raspberry.png""]",blank.png,PB18.png,PB07.png,"[""raspberry.png""]","[""raspberry.png""]","[""raspberry.png""]","[""raspberry.png""]","[""raspberry.png""]","[""raspberry.png""]","[""raspberry.png""]",blank.png,blank.png,blank.png,blank.png,blank.png,1,"[""praline.png""]",blank.png,blank.png,blank.png,1,"[""raspberry.png""]",blank.png,blank.png,blank.png,blank.png,blank.png,PB07.png,,,,,,,,,,,1,,,,,,,,,,,,,2958,,completion,,,,,,,,,,,,,4,,,,,,,,,,,,,,,,,,,,,,,,,,,,,,,,,,,,,,,,,,,,,,,,,,,,,,,,,"[""raspberry.png""]","[""praline.png""]",,,,2,,,false,,1,,,,,,,97686,97685,94709,94712,94727,97702,,,,
fixCross,canvas.Screen,2_4_2_6_1_0_0_0_0_4_0,2021-05-03T14:28:25.332Z,,,blank.png,"[""praline.png""]",blank.png,blank.png,blank.png,blank.png,blank.png,blank.png,blank.png,blank.png,blank.png,blank.png,blank.png,,,,,,,,,,,,,,,,,,,,,,,,,,,,,"[""praline.png""]","[""raspberry.png""]",PB16.png,,,,,,,,,,,0,6,"[""raspberry.png""]","[""raspberry.png""]","[""raspberry.png""]","[""raspberry.png""]","[""raspberry.png""]","[""raspberry.png""]",blank.png,PB18.png,PB18.png,"[""raspberry.png""]","[""raspberry.png""]","[""raspberry.png""]","[""raspberry.png""]","[""raspberry.png""]",blank.png,"[""raspberry.png""]","[""raspberry.png""]","[""raspberry.png""]","[""raspberry.png""]","[""raspberry.png""]","[""raspberry.png""]",1,"[""praline.png""]",blank.png,blank.png,blank.png,5,"[""raspberry.png""]","[""raspberry.png""]","[""raspberry.png""]","[""raspberry.png""]","[""raspberry.png""]",blank.png,PB16.png,,,,,,,,,,,1,,,,,,,,,,,,,574,,timeout,,,,,,,,,,,,,3,,,,,,,,,,,,,,,,,,,,,,,,,,,,,,,,,,,,,,,,,,,,,,,,,,,,,,,,,"[""raspberry.png""]","[""praline.png""]",,,,2,,,false,,1,,,,,,,98241,98240,97685,97688,97702,98276,5,,,
timeout,canvas.Screen,2_4_2_6_1_0_0_0_0_4_1,2021-05-03T14:28:25.855Z,,,blank.png,"[""praline.png""]",blank.png,blank.png,blank.png,blank.png,blank.png,blank.png,blank.png,blank.png,blank.png,blank.png,blank.png,,,,,,,,,,,,,,,,,,,,,,,,,,,,,"[""praline.png""]","[""raspberry.png""]",PB16.png,,,,,,,,,,,0,6,"[""raspberry.png""]","[""raspberry.png""]","[""raspberry.png""]","[""raspberry.png""]","[""raspberry.png""]","[""raspberry.png""]",blank.png,PB18.png,PB18.png,"[""raspberry.png""]","[""raspberry.png""]","[""raspberry.png""]","[""raspberry.png""]","[""raspberry.png""]",blank.png,"[""raspberry.png""]","[""raspberry.png""]","[""raspberry.png""]","[""raspberry.png""]","[""raspberry.png""]","[""raspberry.png""]",1,"[""praline.png""]",blank.png,blank.png,blank.png,5,"[""raspberry.png""]","[""raspberry.png""]","[""raspberry.png""]","[""raspberry.png""]","[""raspberry.png""]",blank.png,PB16.png,,,,,,,,,,,1,,,,,,,,,,,,,505,,timeout,,,,,,,,,,,,,3,,,,,,,,,,,,,,,,,,,,,,,,,,,,,,,,,,,,,,,,,,,,,,,,,,,,,,,,,"[""raspberry.png""]","[""praline.png""]",,,,2,,,false,,1,,,,,,,98763,98762,98240,98268,98276,98781,,,,
choice,canvas.Screen,2_4_2_6_1_0_0_0_0_4_2,2021-05-03T14:28:26.132Z,,,blank.png,"[""praline.png""]",blank.png,blank.png,blank.png,blank.png,blank.png,blank.png,blank.png,blank.png,blank.png,blank.png,blank.png,,,,,,,,,,,,,,,,,,,,,,,,,,,,,"[""praline.png""]","[""raspberry.png""]",PB16.png,,,,,,,,,,,0,6,"[""raspberry.png""]","[""raspberry.png""]","[""raspberry.png""]","[""raspberry.png""]","[""raspberry.png""]","[""raspberry.png""]",blank.png,PB18.png,PB18.png,"[""raspberry.png""]","[""raspberry.png""]","[""raspberry.png""]","[""raspberry.png""]","[""raspberry.png""]",blank.png,"[""raspberry.png""]","[""raspberry.png""]","[""raspberry.png""]","[""raspberry.png""]","[""raspberry.png""]","[""raspberry.png""]",1,"[""praline.png""]",blank.png,blank.png,blank.png,5,"[""raspberry.png""]","[""raspberry.png""]","[""raspberry.png""]","[""raspberry.png""]","[""raspberry.png""]",blank.png,PB16.png,,,,,,,,,,,1,,,,,,,,,,,,,160,,response,,,,,,,,,,,,,3,,,,,,,,,,,,,,,,,,,,,,,,,,,,,,,,,,,,,,,,,,,,,,,,,,,,,,,,,"[""raspberry.png""]","[""praline.png""]",,,,2,left,keydown(ArrowLeft),false,,1,,,,,,,99040,98922,98762,98766,98781,99069,,5,,
square,canvas.Screen,2_4_2_6_1_0_0_0_0_4_3,2021-05-03T14:28:27.148Z,,,blank.png,"[""praline.png""]",blank.png,blank.png,blank.png,blank.png,blank.png,blank.png,blank.png,blank.png,blank.png,blank.png,blank.png,,,,,,,,,,,,,,,,,,,,,,,,,,,,,"[""praline.png""]","[""raspberry.png""]",PB16.png,,,,,,,,,,,0,6,"[""raspberry.png""]","[""raspberry.png""]","[""raspberry.png""]","[""raspberry.png""]","[""raspberry.png""]","[""raspberry.png""]",blank.png,PB18.png,PB18.png,"[""raspberry.png""]","[""raspberry.png""]","[""raspberry.png""]","[""raspberry.png""]","[""raspberry.png""]",blank.png,"[""raspberry.png""]","[""raspberry.png""]","[""raspberry.png""]","[""raspberry.png""]","[""raspberry.png""]","[""raspberry.png""]",1,"[""praline.png""]",blank.png,blank.png,blank.png,5,"[""raspberry.png""]","[""raspberry.png""]","[""raspberry.png""]","[""raspberry.png""]","[""raspberry.png""]",blank.png,PB16.png,,,,,,,,,,,1,,,#33ff3f,#808080,,,,,,,,,1003,,timeout,,,,,,,,,,,,,3,,,,,,,,,,,,,,,,,,,,,,,,,,,,,,,,,,,,,,,,,,,,,,,,,,,,,,,,,"[""raspberry.png""]","[""praline.png""]",,,,2,,,false,,1,,,,,black,white,100057,100056,99053,99042,99069,100072,,,,
ITI_late,canvas.Screen,2_4_2_6_1_0_0_0_0_4_4,2021-05-03T14:28:27.902Z,,,blank.png,"[""praline.png""]",blank.png,blank.png,blank.png,blank.png,blank.png,blank.png,blank.png,blank.png,blank.png,blank.png,blank.png,,,,,,,,,,,,,,,,,,,,,,,,,,,,,"[""praline.png""]","[""raspberry.png""]",PB16.png,,,,,,,,,,,0,6,"[""raspberry.png""]","[""raspberry.png""]","[""raspberry.png""]","[""raspberry.png""]","[""raspberry.png""]","[""raspberry.png""]",blank.png,PB18.png,PB18.png,"[""raspberry.png""]","[""raspberry.png""]","[""raspberry.png""]","[""raspberry.png""]","[""raspberry.png""]",blank.png,"[""raspberry.png""]","[""raspberry.png""]","[""raspberry.png""]","[""raspberry.png""]","[""raspberry.png""]","[""raspberry.png""]",1,"[""praline.png""]",blank.png,blank.png,blank.png,5,"[""raspberry.png""]","[""raspberry.png""]","[""raspberry.png""]","[""raspberry.png""]","[""raspberry.png""]",blank.png,PB16.png,,,,,,,,,,,1,,,,,,,,,,,,,754,,timeout,,,,,,,,,,,,white,3,,,,,,,,,,,,,,,,,,,,,,,,,,,,,,,,,,,,,,,,,,,,,,,,,,,,,,,,,"[""raspberry.png""]","[""praline.png""]",,,,2,,,false,,1,,,,,,,100810,100810,100056,100058,100072,100826,,,,
choice_sequence,flow.Sequence,2_4_2_6_1_0_0_0_0_4,2021-05-03T14:28:27.903Z,,,blank.png,"[""praline.png""]",blank.png,blank.png,blank.png,blank.png,blank.png,blank.png,blank.png,blank.png,blank.png,blank.png,blank.png,,,,,,,,,,,,,,,,,,,,,,,,,,,,,"[""praline.png""]","[""raspberry.png""]",PB16.png,,,,,,,,,,,0,6,"[""raspberry.png""]","[""raspberry.png""]","[""raspberry.png""]","[""raspberry.png""]","[""raspberry.png""]","[""raspberry.png""]",blank.png,PB18.png,PB18.png,"[""raspberry.png""]","[""raspberry.png""]","[""raspberry.png""]","[""raspberry.png""]","[""raspberry.png""]",blank.png,"[""raspberry.png""]","[""raspberry.png""]","[""raspberry.png""]","[""raspberry.png""]","[""raspberry.png""]","[""raspberry.png""]",1,"[""praline.png""]",blank.png,blank.png,blank.png,5,"[""raspberry.png""]","[""raspberry.png""]","[""raspberry.png""]","[""raspberry.png""]","[""raspberry.png""]",blank.png,PB16.png,,,,,,,,,,,1,,,,,,,,,,,,,3108,,completion,,,,,,,,,,,,,3,,,,,,,,,,,,,,,,,,,,,,,,,,,,,,,,,,,,,,,,,,,,,,,,,,,,,,,,,"[""raspberry.png""]","[""praline.png""]",,,,2,,,false,,1,,,,,,,100811,100810,97685,97688,97702,100826,,,,
fixCross,canvas.Screen,2_4_2_6_1_0_0_0_0_5_0,2021-05-03T14:28:28.658Z,,,blank.png,"[""praline.png""]",blank.png,blank.png,blank.png,blank.png,blank.png,blank.png,blank.png,blank.png,blank.png,blank.png,blank.png,,,,,,,,,,,,,,,,,,,,,,,,,,,,,"[""praline.png""]","[""raspberry.png""]",PB14.png,,,,,,,,,,,0,6,"[""raspberry.png""]","[""raspberry.png""]","[""raspberry.png""]","[""raspberry.png""]","[""raspberry.png""]","[""raspberry.png""]",blank.png,PB18.png,PB18.png,"[""raspberry.png""]","[""raspberry.png""]","[""raspberry.png""]",blank.png,blank.png,blank.png,"[""raspberry.png""]","[""raspberry.png""]","[""raspberry.png""]","[""raspberry.png""]","[""raspberry.png""]","[""raspberry.png""]",1,"[""praline.png""]",blank.png,blank.png,blank.png,3,"[""raspberry.png""]","[""raspberry.png""]","[""raspberry.png""]",blank.png,blank.png,blank.png,PB14.png,,,,,,,,,,,1,,,,,,,,,,,,,790,,timeout,,,,,,,,,,,,,3,,,,,,,,,,,,,,,,,,,,,,,,,,,,,,,,,,,,,,,,,,,,,,,,,,,,,,,,,"[""raspberry.png""]","[""praline.png""]",,,,2,,,false,,1,,,,,,,101566,101566,100810,100813,100826,101616,6,,,
timeout,canvas.Screen,2_4_2_6_1_0_0_0_0_5_1,2021-05-03T14:28:29.197Z,,,blank.png,"[""praline.png""]",blank.png,blank.png,blank.png,blank.png,blank.png,blank.png,blank.png,blank.png,blank.png,blank.png,blank.png,,,,,,,,,,,,,,,,,,,,,,,,,,,,,"[""praline.png""]","[""raspberry.png""]",PB14.png,,,,,,,,,,,0,6,"[""raspberry.png""]","[""raspberry.png""]","[""raspberry.png""]","[""raspberry.png""]","[""raspberry.png""]","[""raspberry.png""]",blank.png,PB18.png,PB18.png,"[""raspberry.png""]","[""raspberry.png""]","[""raspberry.png""]",blank.png,blank.png,blank.png,"[""raspberry.png""]","[""raspberry.png""]","[""raspberry.png""]","[""raspberry.png""]","[""raspberry.png""]","[""raspberry.png""]",1,"[""praline.png""]",blank.png,blank.png,blank.png,3,"[""raspberry.png""]","[""raspberry.png""]","[""raspberry.png""]",blank.png,blank.png,blank.png,PB14.png,,,,,,,,,,,1,,,,,,,,,,,,,505,,timeout,,,,,,,,,,,,,3,,,,,,,,,,,,,,,,,,,,,,,,,,,,,,,,,,,,,,,,,,,,,,,,,,,,,,,,,"[""raspberry.png""]","[""praline.png""]",,,,2,,,false,,1,,,,,,,102105,102104,101566,101611,101616,102121,,,,
choice,canvas.Screen,2_4_2_6_1_0_0_0_0_5_2,2021-05-03T14:28:29.380Z,,,blank.png,"[""praline.png""]",blank.png,blank.png,blank.png,blank.png,blank.png,blank.png,blank.png,blank.png,blank.png,blank.png,blank.png,,,,,,,,,,,,,,,,,,,,,,,,,,,,,"[""praline.png""]","[""raspberry.png""]",PB14.png,,,,,,,,,,,0,6,"[""raspberry.png""]","[""raspberry.png""]","[""raspberry.png""]","[""raspberry.png""]","[""raspberry.png""]","[""raspberry.png""]",blank.png,PB18.png,PB18.png,"[""raspberry.png""]","[""raspberry.png""]","[""raspberry.png""]",blank.png,blank.png,blank.png,"[""raspberry.png""]","[""raspberry.png""]","[""raspberry.png""]","[""raspberry.png""]","[""raspberry.png""]","[""raspberry.png""]",1,"[""praline.png""]",blank.png,blank.png,blank.png,3,"[""raspberry.png""]","[""raspberry.png""]","[""raspberry.png""]",blank.png,blank.png,blank.png,PB14.png,,,,,,,,,,,1,,,,,,,,,,,,,66,,response,,,,,,,,,,,,,3,,,,,,,,,,,,,,,,,,,,,,,,,,,,,,,,,,,,,,,,,,,,,,,,,,,,,,,,,"[""raspberry.png""]","[""praline.png""]",,,,2,right,keydown(ArrowRight),false,,1,,,,,,,102288,102170,102104,102108,102121,102311,,6,,
square,canvas.Screen,2_4_2_6_1_0_0_0_0_5_3,2021-05-03T14:28:30.390Z,,,blank.png,"[""praline.png""]",blank.png,blank.png,blank.png,blank.png,blank.png,blank.png,blank.png,blank.png,blank.png,blank.png,blank.png,,,,,,,,,,,,,,,,,,,,,,,,,,,,,"[""praline.png""]","[""raspberry.png""]",PB14.png,,,,,,,,,,,0,6,"[""raspberry.png""]","[""raspberry.png""]","[""raspberry.png""]","[""raspberry.png""]","[""raspberry.png""]","[""raspberry.png""]",blank.png,PB18.png,PB18.png,"[""raspberry.png""]","[""raspberry.png""]","[""raspberry.png""]",blank.png,blank.png,blank.png,"[""raspberry.png""]","[""raspberry.png""]","[""raspberry.png""]","[""raspberry.png""]","[""raspberry.png""]","[""raspberry.png""]",1,"[""praline.png""]",blank.png,blank.png,blank.png,3,"[""raspberry.png""]","[""raspberry.png""]","[""raspberry.png""]",blank.png,blank.png,blank.png,PB14.png,,,,,,,,,,,1,,,#808080,#33ff3f,,,,,,,,,1003,,timeout,,,,,,,,,,,,,3,,,,,,,,,,,,,,,,,,,,,,,,,,,,,,,,,,,,,,,,,,,,,,,,,,,,,,,,,"[""raspberry.png""]","[""praline.png""]",,,,2,,,false,,1,,,,,white,black,103298,103298,102295,102290,102311,103314,,,,
ITI_late,canvas.Screen,2_4_2_6_1_0_0_0_0_5_4,2021-05-03T14:28:31.645Z,,,blank.png,"[""praline.png""]",blank.png,blank.png,blank.png,blank.png,blank.png,blank.png,blank.png,blank.png,blank.png,blank.png,blank.png,,,,,,,,,,,,,,,,,,,,,,,,,,,,,"[""praline.png""]","[""raspberry.png""]",PB14.png,,,,,,,,,,,0,6,"[""raspberry.png""]","[""raspberry.png""]","[""raspberry.png""]","[""raspberry.png""]","[""raspberry.png""]","[""raspberry.png""]",blank.png,PB18.png,PB18.png,"[""raspberry.png""]","[""raspberry.png""]","[""raspberry.png""]",blank.png,blank.png,blank.png,"[""raspberry.png""]","[""raspberry.png""]","[""raspberry.png""]","[""raspberry.png""]","[""raspberry.png""]","[""raspberry.png""]",1,"[""praline.png""]",blank.png,blank.png,blank.png,3,"[""raspberry.png""]","[""raspberry.png""]","[""raspberry.png""]",blank.png,blank.png,blank.png,PB14.png,,,,,,,,,,,1,,,,,,,,,,,,,1254,,timeout,,,,,,,,,,,,white,3,,,,,,,,,,,,,,,,,,,,,,,,,,,,,,,,,,,,,,,,,,,,,,,,,,,,,,,,,"[""raspberry.png""]","[""praline.png""]",,,,2,,,false,,1,,,,,,,104553,104552,103298,103300,103314,104568,,,,
choice_sequence,flow.Sequence,2_4_2_6_1_0_0_0_0_5,2021-05-03T14:28:31.645Z,,,blank.png,"[""praline.png""]",blank.png,blank.png,blank.png,blank.png,blank.png,blank.png,blank.png,blank.png,blank.png,blank.png,blank.png,,,,,,,,,,,,,,,,,,,,,,,,,,,,,"[""praline.png""]","[""raspberry.png""]",PB14.png,,,,,,,,,,,0,6,"[""raspberry.png""]","[""raspberry.png""]","[""raspberry.png""]","[""raspberry.png""]","[""raspberry.png""]","[""raspberry.png""]",blank.png,PB18.png,PB18.png,"[""raspberry.png""]","[""raspberry.png""]","[""raspberry.png""]",blank.png,blank.png,blank.png,"[""raspberry.png""]","[""raspberry.png""]","[""raspberry.png""]","[""raspberry.png""]","[""raspberry.png""]","[""raspberry.png""]",1,"[""praline.png""]",blank.png,blank.png,blank.png,3,"[""raspberry.png""]","[""raspberry.png""]","[""raspberry.png""]",blank.png,blank.png,blank.png,PB14.png,,,,,,,,,,,1,,,,,,,,,,,,,3726,,completion,,,,,,,,,,,,,3,,,,,,,,,,,,,,,,,,,,,,,,,,,,,,,,,,,,,,,,,,,,,,,,,,,,,,,,,"[""raspberry.png""]","[""praline.png""]",,,,2,,,false,,1,,,,,,,104553,104552,100810,100813,100826,104568,,,,
fixCross,canvas.Screen,2_4_2_6_1_0_0_0_0_6_0,2021-05-03T14:28:32.051Z,,,blank.png,"[""praline.png""]",blank.png,blank.png,blank.png,blank.png,blank.png,blank.png,blank.png,blank.png,blank.png,blank.png,blank.png,,,,,,,,,,,,,,,,,,,,,,,,,,,,,"[""praline.png""]","[""raspberry.png""]",PB12.png,,,,,,,,,,,0,6,"[""raspberry.png""]","[""raspberry.png""]","[""raspberry.png""]","[""raspberry.png""]","[""raspberry.png""]","[""raspberry.png""]",blank.png,PB18.png,PB18.png,"[""raspberry.png""]","[""raspberry.png""]",blank.png,blank.png,blank.png,blank.png,"[""raspberry.png""]","[""raspberry.png""]","[""raspberry.png""]","[""raspberry.png""]","[""raspberry.png""]","[""raspberry.png""]",1,"[""praline.png""]",blank.png,blank.png,blank.png,2,"[""raspberry.png""]","[""raspberry.png""]",blank.png,blank.png,blank.png,blank.png,PB12.png,,,,,,,,,,,1,,,,,,,,,,,,,440,,timeout,,,,,,,,,,,,,3,,,,,,,,,,,,,,,,,,,,,,,,,,,,,,,,,,,,,,,,,,,,,,,,,,,,,,,,,"[""raspberry.png""]","[""praline.png""]",,,,2,,,false,,1,,,,,,,104959,104959,104552,104556,104568,105008,7,,,
timeout,canvas.Screen,2_4_2_6_1_0_0_0_0_6_1,2021-05-03T14:28:32.589Z,,,blank.png,"[""praline.png""]",blank.png,blank.png,blank.png,blank.png,blank.png,blank.png,blank.png,blank.png,blank.png,blank.png,blank.png,,,,,,,,,,,,,,,,,,,,,,,,,,,,,"[""praline.png""]","[""raspberry.png""]",PB12.png,,,,,,,,,,,0,6,"[""raspberry.png""]","[""raspberry.png""]","[""raspberry.png""]","[""raspberry.png""]","[""raspberry.png""]","[""raspberry.png""]",blank.png,PB18.png,PB18.png,"[""raspberry.png""]","[""raspberry.png""]",blank.png,blank.png,blank.png,blank.png,"[""raspberry.png""]","[""raspberry.png""]","[""raspberry.png""]","[""raspberry.png""]","[""raspberry.png""]","[""raspberry.png""]",1,"[""praline.png""]",blank.png,blank.png,blank.png,2,"[""raspberry.png""]","[""raspberry.png""]",blank.png,blank.png,blank.png,blank.png,PB12.png,,,,,,,,,,,1,,,,,,,,,,,,,505,,timeout,,,,,,,,,,,,,3,,,,,,,,,,,,,,,,,,,,,,,,,,,,,,,,,,,,,,,,,,,,,,,,,,,,,,,,,"[""raspberry.png""]","[""praline.png""]",,,,2,,,false,,1,,,,,,,105497,105496,104959,105005,105008,105513,,,,
choice,canvas.Screen,2_4_2_6_1_0_0_0_0_6_2,2021-05-03T14:28:32.750Z,,,blank.png,"[""praline.png""]",blank.png,blank.png,blank.png,blank.png,blank.png,blank.png,blank.png,blank.png,blank.png,blank.png,blank.png,,,,,,,,,,,,,,,,,,,,,,,,,,,,,"[""praline.png""]","[""raspberry.png""]",PB12.png,,,,,,,,,,,0,6,"[""raspberry.png""]","[""raspberry.png""]","[""raspberry.png""]","[""raspberry.png""]","[""raspberry.png""]","[""raspberry.png""]",blank.png,PB18.png,PB18.png,"[""raspberry.png""]","[""raspberry.png""]",blank.png,blank.png,blank.png,blank.png,"[""raspberry.png""]","[""raspberry.png""]","[""raspberry.png""]","[""raspberry.png""]","[""raspberry.png""]","[""raspberry.png""]",1,"[""praline.png""]",blank.png,blank.png,blank.png,2,"[""raspberry.png""]","[""raspberry.png""]",blank.png,blank.png,blank.png,blank.png,PB12.png,,,,,,,,,,,1,,,,,,,,,,,,,45,,response,,,,,,,,,,,,,3,,,,,,,,,,,,,,,,,,,,,,,,,,,,,,,,,,,,,,,,,,,,,,,,,,,,,,,,,"[""raspberry.png""]","[""praline.png""]",,,,2,right,keydown(ArrowRight),false,,1,,,,,,,105658,105541,105496,105499,105513,105686,,7,,
square,canvas.Screen,2_4_2_6_1_0_0_0_0_6_3,2021-05-03T14:28:33.765Z,,,blank.png,"[""praline.png""]",blank.png,blank.png,blank.png,blank.png,blank.png,blank.png,blank.png,blank.png,blank.png,blank.png,blank.png,,,,,,,,,,,,,,,,,,,,,,,,,,,,,"[""praline.png""]","[""raspberry.png""]",PB12.png,,,,,,,,,,,0,6,"[""raspberry.png""]","[""raspberry.png""]","[""raspberry.png""]","[""raspberry.png""]","[""raspberry.png""]","[""raspberry.png""]",blank.png,PB18.png,PB18.png,"[""raspberry.png""]","[""raspberry.png""]",blank.png,blank.png,blank.png,blank.png,"[""raspberry.png""]","[""raspberry.png""]","[""raspberry.png""]","[""raspberry.png""]","[""raspberry.png""]","[""raspberry.png""]",1,"[""praline.png""]",blank.png,blank.png,blank.png,2,"[""raspberry.png""]","[""raspberry.png""]",blank.png,blank.png,blank.png,blank.png,PB12.png,,,,,,,,,,,1,,,#808080,#33ff3f,,,,,,,,,1004,,timeout,,,,,,,,,,,,,3,,,,,,,,,,,,,,,,,,,,,,,,,,,,,,,,,,,,,,,,,,,,,,,,,,,,,,,,,"[""raspberry.png""]","[""praline.png""]",,,,2,,,false,,1,,,,,white,black,106673,106672,105670,105661,105686,106690,,,,
ITI_late,canvas.Screen,2_4_2_6_1_0_0_0_0_6_4,2021-05-03T14:28:35.019Z,,,blank.png,"[""praline.png""]",blank.png,blank.png,blank.png,blank.png,blank.png,blank.png,blank.png,blank.png,blank.png,blank.png,blank.png,,,,,,,,,,,,,,,,,,,,,,,,,,,,,"[""praline.png""]","[""raspberry.png""]",PB12.png,,,,,,,,,,,0,6,"[""raspberry.png""]","[""raspberry.png""]","[""raspberry.png""]","[""raspberry.png""]","[""raspberry.png""]","[""raspberry.png""]",blank.png,PB18.png,PB18.png,"[""raspberry.png""]","[""raspberry.png""]",blank.png,blank.png,blank.png,blank.png,"[""raspberry.png""]","[""raspberry.png""]","[""raspberry.png""]","[""raspberry.png""]","[""raspberry.png""]","[""raspberry.png""]",1,"[""praline.png""]",blank.png,blank.png,blank.png,2,"[""raspberry.png""]","[""raspberry.png""]",blank.png,blank.png,blank.png,blank.png,PB12.png,,,,,,,,,,,1,,,,,,,,,,,,,1260,,timeout,,,,,,,,,,,,white,3,,,,,,,,,,,,,,,,,,,,,,,,,,,,,,,,,,,,,,,,,,,,,,,,,,,,,,,,,"[""raspberry.png""]","[""praline.png""]",,,,2,,,false,,1,,,,,,,107927,107927,106672,106674,106690,107950,,,,
choice_sequence,flow.Sequence,2_4_2_6_1_0_0_0_0_6,2021-05-03T14:28:35.020Z,,,blank.png,"[""praline.png""]",blank.png,blank.png,blank.png,blank.png,blank.png,blank.png,blank.png,blank.png,blank.png,blank.png,blank.png,,,,,,,,,,,,,,,,,,,,,,,,,,,,,"[""praline.png""]","[""raspberry.png""]",PB12.png,,,,,,,,,,,0,6,"[""raspberry.png""]","[""raspberry.png""]","[""raspberry.png""]","[""raspberry.png""]","[""raspberry.png""]","[""raspberry.png""]",blank.png,PB18.png,PB18.png,"[""raspberry.png""]","[""raspberry.png""]",blank.png,blank.png,blank.png,blank.png,"[""raspberry.png""]","[""raspberry.png""]","[""raspberry.png""]","[""raspberry.png""]","[""raspberry.png""]","[""raspberry.png""]",1,"[""praline.png""]",blank.png,blank.png,blank.png,2,"[""raspberry.png""]","[""raspberry.png""]",blank.png,blank.png,blank.png,blank.png,PB12.png,,,,,,,,,,,1,,,,,,,,,,,,,3359,,completion,,,,,,,,,,,,,3,,,,,,,,,,,,,,,,,,,,,,,,,,,,,,,,,,,,,,,,,,,,,,,,,,,,,,,,,"[""raspberry.png""]","[""praline.png""]",,,,2,,,false,,1,,,,,,,107928,107927,104552,104555,104568,107950,,,,
choice_loop,flow.Loop,2_4_2_6_1_0_0_0_0,2021-05-03T14:28:35.020Z,,,,,,,,,,,,,,,,,,,,,,,,,,,,,,,,,,,,,,,,,,,,"[""praline.png""]","[""raspberry.png""]",,,,,,,,,,,,,,,,,,,,,,,,,,,,,,,,,,,,,,,,,,,,,,,,,,,,,,,,,,,,,,,,,,,,,,,22077,,completion,,,,,,,,,,,,,,,,,,,,,,,,,,,,,,,,,,,,,,,,,,,,,,,,,,,,,,,,,,,,,,,,,,,,,,"[""raspberry.png""]","[""praline.png""]",,,,2,,,false,,,,,,,,,107928,107927,85821,85836,85850,107950,,,,
choice_frame,html.Frame,2_4_2_6_1_0_0_0,2021-05-03T14:28:35.021Z,,,,,,,,,,,,,,,,,,,,,,,,,,,,,,,,,,,,,,,,,,,,,,,,,,,,,,,,,,,,,,,,,,,,,,,,,,,,,,,,,,,,,,,,,,,,,,,,,,,,,,,,,,,,,,,,,,,,22079,,,,,,,,,,,,,,,,,,,,,,,,,,,,,,,,,,,,,,,,,,,,,,,,,,,,,,,,,,,,,,,,,,,,,,,,,,,,,2,,,false,,,,,,,,,107929,107929,85821,85822,85850,107961,,,,
sublock_1,flow.Sequence,2_4_2_6_1_0_0,2021-05-03T14:28:35.021Z,,,,,,,,,,,,,,,,,,,,,,,,,,,,,,,,,,,,,,,,,,,,,,,,,,,,,,,,,,,,,,,,,,,,,,,,,,,,,,,,,,,,,,,,,,,,,,,,,,,,,,,,,,,,,,,,,,,,22079,,completion,,,,,,,,,,,,,,,,,,,,,,,,,,,,,,,,,,,,,,,,,,,,,,,,,,,,,,,,,,,,,,,,,,,,,,,,,,,2,,,false,,,,,,,,,107929,107929,85821,85822,85850,107961,,,,
fixCross,canvas.Screen,2_4_2_6_1_0_1_0_0_0_0,2021-05-03T14:28:35.378Z,,,blank.png,"[""praline.png""]",blank.png,blank.png,blank.png,blank.png,blank.png,blank.png,blank.png,blank.png,blank.png,blank.png,blank.png,,,,,,,,,,,,,,,,,,,,,,,,,,,,,"[""praline.png""]","[""raspberry.png""]",PB16.png,,,,,,,,,,,0,6,"[""raspberry.png""]","[""raspberry.png""]","[""raspberry.png""]","[""raspberry.png""]","[""raspberry.png""]","[""raspberry.png""]",blank.png,PB18.png,PB18.png,"[""raspberry.png""]","[""raspberry.png""]","[""raspberry.png""]","[""raspberry.png""]","[""raspberry.png""]",blank.png,"[""raspberry.png""]","[""raspberry.png""]","[""raspberry.png""]","[""raspberry.png""]","[""raspberry.png""]","[""raspberry.png""]",1,"[""praline.png""]",blank.png,blank.png,blank.png,5,"[""raspberry.png""]","[""raspberry.png""]","[""raspberry.png""]","[""raspberry.png""]","[""raspberry.png""]",blank.png,PB16.png,,,,,,,,,,,1,,,,,,,,,,,,,348,,timeout,,,,,,,,,,,,,3,,,,,,,,,,,,,,,,,,,,,,,,,,,,,,,,,,,,,,,,,,,,,,,,,,,,,,,,,"[""raspberry.png""]","[""praline.png""]",,,,5,,,false,,1,,,,,,,108286,108286,107950,107942,107961,108309,8,,,
timeout,canvas.Screen,2_4_2_6_1_0_1_0_0_0_1,2021-05-03T14:28:35.881Z,,,blank.png,"[""praline.png""]",blank.png,blank.png,blank.png,blank.png,blank.png,blank.png,blank.png,blank.png,blank.png,blank.png,blank.png,,,,,,,,,,,,,,,,,,,,,,,,,,,,,"[""praline.png""]","[""raspberry.png""]",PB16.png,,,,,,,,,,,0,6,"[""raspberry.png""]","[""raspberry.png""]","[""raspberry.png""]","[""raspberry.png""]","[""raspberry.png""]","[""raspberry.png""]",blank.png,PB18.png,PB18.png,"[""raspberry.png""]","[""raspberry.png""]","[""raspberry.png""]","[""raspberry.png""]","[""raspberry.png""]",blank.png,"[""raspberry.png""]","[""raspberry.png""]","[""raspberry.png""]","[""raspberry.png""]","[""raspberry.png""]","[""raspberry.png""]",1,"[""praline.png""]",blank.png,blank.png,blank.png,5,"[""raspberry.png""]","[""raspberry.png""]","[""raspberry.png""]","[""raspberry.png""]","[""raspberry.png""]",blank.png,PB16.png,,,,,,,,,,,1,,,,,,,,,,,,,498,,timeout,,,,,,,,,,,,,3,,,,,,,,,,,,,,,,,,,,,,,,,,,,,,,,,,,,,,,,,,,,,,,,,,,,,,,,,"[""raspberry.png""]","[""praline.png""]",,,,5,,,false,,1,,,,,,,108789,108788,108286,108288,108309,108807,,,,
choice,canvas.Screen,2_4_2_6_1_0_1_0_0_0_2,2021-05-03T14:28:36.125Z,,,blank.png,"[""praline.png""]",blank.png,blank.png,blank.png,blank.png,blank.png,blank.png,blank.png,blank.png,blank.png,blank.png,blank.png,,,,,,,,,,,,,,,,,,,,,,,,,,,,,"[""praline.png""]","[""raspberry.png""]",PB16.png,,,,,,,,,,,0,6,"[""raspberry.png""]","[""raspberry.png""]","[""raspberry.png""]","[""raspberry.png""]","[""raspberry.png""]","[""raspberry.png""]",blank.png,PB18.png,PB18.png,"[""raspberry.png""]","[""raspberry.png""]","[""raspberry.png""]","[""raspberry.png""]","[""raspberry.png""]",blank.png,"[""raspberry.png""]","[""raspberry.png""]","[""raspberry.png""]","[""raspberry.png""]","[""raspberry.png""]","[""raspberry.png""]",1,"[""praline.png""]",blank.png,blank.png,blank.png,5,"[""raspberry.png""]","[""raspberry.png""]","[""raspberry.png""]","[""raspberry.png""]","[""raspberry.png""]",blank.png,PB16.png,,,,,,,,,,,1,,,,,,,,,,,,,127,,response,,,,,,,,,,,,,3,,,,,,,,,,,,,,,,,,,,,,,,,,,,,,,,,,,,,,,,,,,,,,,,,,,,,,,,,"[""raspberry.png""]","[""praline.png""]",,,,5,left,keydown(ArrowLeft),false,,1,,,,,,,109033,108915,108788,108792,108807,109059,,8,,
square,canvas.Screen,2_4_2_6_1_0_1_0_0_0_3,2021-05-03T14:28:37.138Z,,,blank.png,"[""praline.png""]",blank.png,blank.png,blank.png,blank.png,blank.png,blank.png,blank.png,blank.png,blank.png,blank.png,blank.png,,,,,,,,,,,,,,,,,,,,,,,,,,,,,"[""praline.png""]","[""raspberry.png""]",PB16.png,,,,,,,,,,,0,6,"[""raspberry.png""]","[""raspberry.png""]","[""raspberry.png""]","[""raspberry.png""]","[""raspberry.png""]","[""raspberry.png""]",blank.png,PB18.png,PB18.png,"[""raspberry.png""]","[""raspberry.png""]","[""raspberry.png""]","[""raspberry.png""]","[""raspberry.png""]",blank.png,"[""raspberry.png""]","[""raspberry.png""]","[""raspberry.png""]","[""raspberry.png""]","[""raspberry.png""]","[""raspberry.png""]",1,"[""praline.png""]",blank.png,blank.png,blank.png,5,"[""raspberry.png""]","[""raspberry.png""]","[""raspberry.png""]","[""raspberry.png""]","[""raspberry.png""]",blank.png,PB16.png,,,,,,,,,,,1,,,#33ff3f,#808080,,,,,,,,,1004,,timeout,,,,,,,,,,,,,3,,,,,,,,,,,,,,,,,,,,,,,,,,,,,,,,,,,,,,,,,,,,,,,,,,,,,,,,,"[""raspberry.png""]","[""praline.png""]",,,,5,,,false,,1,,,,,black,white,110046,110046,109043,109035,109059,110063,,,,
ITI_late,canvas.Screen,2_4_2_6_1_0_1_0_0_0_4,2021-05-03T14:28:37.893Z,,,blank.png,"[""praline.png""]",blank.png,blank.png,blank.png,blank.png,blank.png,blank.png,blank.png,blank.png,blank.png,blank.png,blank.png,,,,,,,,,,,,,,,,,,,,,,,,,,,,,"[""praline.png""]","[""raspberry.png""]",PB16.png,,,,,,,,,,,0,6,"[""raspberry.png""]","[""raspberry.png""]","[""raspberry.png""]","[""raspberry.png""]","[""raspberry.png""]","[""raspberry.png""]",blank.png,PB18.png,PB18.png,"[""raspberry.png""]","[""raspberry.png""]","[""raspberry.png""]","[""raspberry.png""]","[""raspberry.png""]",blank.png,"[""raspberry.png""]","[""raspberry.png""]","[""raspberry.png""]","[""raspberry.png""]","[""raspberry.png""]","[""raspberry.png""]",1,"[""praline.png""]",blank.png,blank.png,blank.png,5,"[""raspberry.png""]","[""raspberry.png""]","[""raspberry.png""]","[""raspberry.png""]","[""raspberry.png""]",blank.png,PB16.png,,,,,,,,,,,1,,,,,,,,,,,,,754,,timeout,,,,,,,,,,,,white,3,,,,,,,,,,,,,,,,,,,,,,,,,,,,,,,,,,,,,,,,,,,,,,,,,,,,,,,,,"[""raspberry.png""]","[""praline.png""]",,,,5,,,false,,1,,,,,,,110800,110800,110046,110047,110063,110817,,,,
choice_sequence,flow.Sequence,2_4_2_6_1_0_1_0_0_0,2021-05-03T14:28:37.893Z,,,blank.png,"[""praline.png""]",blank.png,blank.png,blank.png,blank.png,blank.png,blank.png,blank.png,blank.png,blank.png,blank.png,blank.png,,,,,,,,,,,,,,,,,,,,,,,,,,,,,"[""praline.png""]","[""raspberry.png""]",PB16.png,,,,,,,,,,,0,6,"[""raspberry.png""]","[""raspberry.png""]","[""raspberry.png""]","[""raspberry.png""]","[""raspberry.png""]","[""raspberry.png""]",blank.png,PB18.png,PB18.png,"[""raspberry.png""]","[""raspberry.png""]","[""raspberry.png""]","[""raspberry.png""]","[""raspberry.png""]",blank.png,"[""raspberry.png""]","[""raspberry.png""]","[""raspberry.png""]","[""raspberry.png""]","[""raspberry.png""]","[""raspberry.png""]",1,"[""praline.png""]",blank.png,blank.png,blank.png,5,"[""raspberry.png""]","[""raspberry.png""]","[""raspberry.png""]","[""raspberry.png""]","[""raspberry.png""]",blank.png,PB16.png,,,,,,,,,,,1,,,,,,,,,,,,,2839,,completion,,,,,,,,,,,,,3,,,,,,,,,,,,,,,,,,,,,,,,,,,,,,,,,,,,,,,,,,,,,,,,,,,,,,,,,"[""raspberry.png""]","[""praline.png""]",,,,5,,,false,,1,,,,,,,110801,110800,107950,107941,107961,110817,,,,
fixCross,canvas.Screen,2_4_2_6_1_0_1_0_0_1_0,2021-05-03T14:28:38.600Z,,,blank.png,blank.png,blank.png,blank.png,blank.png,blank.png,blank.png,"[""praline.png""]",blank.png,blank.png,blank.png,blank.png,blank.png,,,,,,,,,,,,,,,,,,,,,,,,,,,,,"[""praline.png""]","[""raspberry.png""]",PB18.png,,,,,,,,,,,0,6,"[""raspberry.png""]","[""raspberry.png""]","[""raspberry.png""]","[""raspberry.png""]","[""raspberry.png""]","[""raspberry.png""]",blank.png,PB18.png,PB01.png,"[""raspberry.png""]","[""raspberry.png""]","[""raspberry.png""]","[""raspberry.png""]","[""raspberry.png""]","[""raspberry.png""]",blank.png,blank.png,blank.png,blank.png,blank.png,blank.png,1,"[""praline.png""]",blank.png,blank.png,blank.png,0,blank.png,blank.png,blank.png,blank.png,blank.png,blank.png,PB01.png,,,,,,,,,,,1,,,,,,,,,,,,,708,,timeout,,,,,,,,,,,,,4,,,,,,,,,,,,,,,,,,,,,,,,,,,,,,,,,,,,,,,,,,,,,,,,,,,,,,,,,"[""raspberry.png""]","[""praline.png""]",,,,5,,,false,,1,,,,,,,111507,111507,110800,110803,110817,111525,9,,,
timeout,canvas.Screen,2_4_2_6_1_0_1_0_0_1_1,2021-05-03T14:28:39.105Z,,,blank.png,blank.png,blank.png,blank.png,blank.png,blank.png,blank.png,"[""praline.png""]",blank.png,blank.png,blank.png,blank.png,blank.png,,,,,,,,,,,,,,,,,,,,,,,,,,,,,"[""praline.png""]","[""raspberry.png""]",PB18.png,,,,,,,,,,,0,6,"[""raspberry.png""]","[""raspberry.png""]","[""raspberry.png""]","[""raspberry.png""]","[""raspberry.png""]","[""raspberry.png""]",blank.png,PB18.png,PB01.png,"[""raspberry.png""]","[""raspberry.png""]","[""raspberry.png""]","[""raspberry.png""]","[""raspberry.png""]","[""raspberry.png""]",blank.png,blank.png,blank.png,blank.png,blank.png,blank.png,1,"[""praline.png""]",blank.png,blank.png,blank.png,0,blank.png,blank.png,blank.png,blank.png,blank.png,blank.png,PB01.png,,,,,,,,,,,1,,,,,,,,,,,,,503,,timeout,,,,,,,,,,,,,4,,,,,,,,,,,,,,,,,,,,,,,,,,,,,,,,,,,,,,,,,,,,,,,,,,,,,,,,,"[""raspberry.png""]","[""praline.png""]",,,,5,,,false,,1,,,,,,,112013,112012,111507,111509,111525,112028,,,,
choice,canvas.Screen,2_4_2_6_1_0_1_0_0_1_2,2021-05-03T14:28:39.487Z,,,blank.png,blank.png,blank.png,blank.png,blank.png,blank.png,blank.png,"[""praline.png""]",blank.png,blank.png,blank.png,blank.png,blank.png,,,,,,,,,,,,,,,,,,,,,,,,,,,,,"[""praline.png""]","[""raspberry.png""]",PB18.png,,,,,,,,,,,0,6,"[""raspberry.png""]","[""raspberry.png""]","[""raspberry.png""]","[""raspberry.png""]","[""raspberry.png""]","[""raspberry.png""]",blank.png,PB18.png,PB01.png,"[""raspberry.png""]","[""raspberry.png""]","[""raspberry.png""]","[""raspberry.png""]","[""raspberry.png""]","[""raspberry.png""]",blank.png,blank.png,blank.png,blank.png,blank.png,blank.png,1,"[""praline.png""]",blank.png,blank.png,blank.png,0,blank.png,blank.png,blank.png,blank.png,blank.png,blank.png,PB01.png,,,,,,,,,,,1,,,,,,,,,,,,,264,,response,,,,,,,,,,,,,4,,,,,,,,,,,,,,,,,,,,,,,,,,,,,,,,,,,,,,,,,,,,,,,,,,,,,,,,,"[""raspberry.png""]","[""praline.png""]",,,,5,left,keydown(ArrowLeft),false,,1,,,,,,,112395,112276,112012,112015,112028,112419,,9,,
square,canvas.Screen,2_4_2_6_1_0_1_0_0_1_3,2021-05-03T14:28:40.498Z,,,blank.png,blank.png,blank.png,blank.png,blank.png,blank.png,blank.png,"[""praline.png""]",blank.png,blank.png,blank.png,blank.png,blank.png,,,,,,,,,,,,,,,,,,,,,,,,,,,,,"[""praline.png""]","[""raspberry.png""]",PB18.png,,,,,,,,,,,0,6,"[""raspberry.png""]","[""raspberry.png""]","[""raspberry.png""]","[""raspberry.png""]","[""raspberry.png""]","[""raspberry.png""]",blank.png,PB18.png,PB01.png,"[""raspberry.png""]","[""raspberry.png""]","[""raspberry.png""]","[""raspberry.png""]","[""raspberry.png""]","[""raspberry.png""]",blank.png,blank.png,blank.png,blank.png,blank.png,blank.png,1,"[""praline.png""]",blank.png,blank.png,blank.png,0,blank.png,blank.png,blank.png,blank.png,blank.png,blank.png,PB01.png,,,,,,,,,,,1,,,#33ff3f,#808080,,,,,,,,,1009,,timeout,,,,,,,,,,,,,4,,,,,,,,,,,,,,,,,,,,,,,,,,,,,,,,,,,,,,,,,,,,,,,,,,,,,,,,,"[""raspberry.png""]","[""praline.png""]",,,,5,,,false,,1,,,,,black,white,113406,113406,112403,112398,112419,113428,,,,
ITI_late,canvas.Screen,2_4_2_6_1_0_1_0_0_1_4,2021-05-03T14:28:41.504Z,,,blank.png,blank.png,blank.png,blank.png,blank.png,blank.png,blank.png,"[""praline.png""]",blank.png,blank.png,blank.png,blank.png,blank.png,,,,,,,,,,,,,,,,,,,,,,,,,,,,,"[""praline.png""]","[""raspberry.png""]",PB18.png,,,,,,,,,,,0,6,"[""raspberry.png""]","[""raspberry.png""]","[""raspberry.png""]","[""raspberry.png""]","[""raspberry.png""]","[""raspberry.png""]",blank.png,PB18.png,PB01.png,"[""raspberry.png""]","[""raspberry.png""]","[""raspberry.png""]","[""raspberry.png""]","[""raspberry.png""]","[""raspberry.png""]",blank.png,blank.png,blank.png,blank.png,blank.png,blank.png,1,"[""praline.png""]",blank.png,blank.png,blank.png,0,blank.png,blank.png,blank.png,blank.png,blank.png,blank.png,PB01.png,,,,,,,,,,,1,,,,,,,,,,,,,1000,,timeout,,,,,,,,,,,,white,4,,,,,,,,,,,,,,,,,,,,,,,,,,,,,,,,,,,,,,,,,,,,,,,,,,,,,,,,,"[""raspberry.png""]","[""praline.png""]",,,,5,,,false,,1,,,,,,,114411,114411,113406,113411,113428,114428,,,,
choice_sequence,flow.Sequence,2_4_2_6_1_0_1_0_0_1,2021-05-03T14:28:41.504Z,,,blank.png,blank.png,blank.png,blank.png,blank.png,blank.png,blank.png,"[""praline.png""]",blank.png,blank.png,blank.png,blank.png,blank.png,,,,,,,,,,,,,,,,,,,,,,,,,,,,,"[""praline.png""]","[""raspberry.png""]",PB18.png,,,,,,,,,,,0,6,"[""raspberry.png""]","[""raspberry.png""]","[""raspberry.png""]","[""raspberry.png""]","[""raspberry.png""]","[""raspberry.png""]",blank.png,PB18.png,PB01.png,"[""raspberry.png""]","[""raspberry.png""]","[""raspberry.png""]","[""raspberry.png""]","[""raspberry.png""]","[""raspberry.png""]",blank.png,blank.png,blank.png,blank.png,blank.png,blank.png,1,"[""praline.png""]",blank.png,blank.png,blank.png,0,blank.png,blank.png,blank.png,blank.png,blank.png,blank.png,PB01.png,,,,,,,,,,,1,,,,,,,,,,,,,3594,,completion,,,,,,,,,,,,,4,,,,,,,,,,,,,,,,,,,,,,,,,,,,,,,,,,,,,,,,,,,,,,,,,,,,,,,,,"[""raspberry.png""]","[""praline.png""]",,,,5,,,false,,1,,,,,,,114412,114411,110800,110803,110817,114428,,,,
fixCross,canvas.Screen,2_4_2_6_1_0_1_0_0_2_0,2021-05-03T14:28:42.094Z,,,blank.png,"[""praline.png""]",blank.png,blank.png,blank.png,blank.png,blank.png,blank.png,blank.png,blank.png,blank.png,blank.png,blank.png,,,,,,,,,,,,,,,,,,,,,,,,,,,,,"[""praline.png""]","[""raspberry.png""]",PB17.png,,,,,,,,,,,0,6,"[""raspberry.png""]","[""raspberry.png""]","[""raspberry.png""]","[""raspberry.png""]","[""raspberry.png""]","[""raspberry.png""]",blank.png,PB18.png,PB18.png,"[""raspberry.png""]","[""raspberry.png""]","[""raspberry.png""]","[""raspberry.png""]","[""raspberry.png""]","[""raspberry.png""]","[""raspberry.png""]","[""raspberry.png""]","[""raspberry.png""]","[""raspberry.png""]","[""raspberry.png""]","[""raspberry.png""]",1,"[""praline.png""]",blank.png,blank.png,blank.png,6,"[""raspberry.png""]","[""raspberry.png""]","[""raspberry.png""]","[""raspberry.png""]","[""raspberry.png""]","[""raspberry.png""]",PB17.png,,,,,,,,,,,1,,,,,,,,,,,,,593,,timeout,,,,,,,,,,,,,3,,,,,,,,,,,,,,,,,,,,,,,,,,,,,,,,,,,,,,,,,,,,,,,,,,,,,,,,,"[""raspberry.png""]","[""praline.png""]",,,,5,,,false,,1,,,,,,,115002,115002,114411,114414,114428,115021,10,,,
timeout,canvas.Screen,2_4_2_6_1_0_1_0_0_2_1,2021-05-03T14:28:42.599Z,,,blank.png,"[""praline.png""]",blank.png,blank.png,blank.png,blank.png,blank.png,blank.png,blank.png,blank.png,blank.png,blank.png,blank.png,,,,,,,,,,,,,,,,,,,,,,,,,,,,,"[""praline.png""]","[""raspberry.png""]",PB17.png,,,,,,,,,,,0,6,"[""raspberry.png""]","[""raspberry.png""]","[""raspberry.png""]","[""raspberry.png""]","[""raspberry.png""]","[""raspberry.png""]",blank.png,PB18.png,PB18.png,"[""raspberry.png""]","[""raspberry.png""]","[""raspberry.png""]","[""raspberry.png""]","[""raspberry.png""]","[""raspberry.png""]","[""raspberry.png""]","[""raspberry.png""]","[""raspberry.png""]","[""raspberry.png""]","[""raspberry.png""]","[""raspberry.png""]",1,"[""praline.png""]",blank.png,blank.png,blank.png,6,"[""raspberry.png""]","[""raspberry.png""]","[""raspberry.png""]","[""raspberry.png""]","[""raspberry.png""]","[""raspberry.png""]",PB17.png,,,,,,,,,,,1,,,,,,,,,,,,,501,,timeout,,,,,,,,,,,,,3,,,,,,,,,,,,,,,,,,,,,,,,,,,,,,,,,,,,,,,,,,,,,,,,,,,,,,,,,"[""raspberry.png""]","[""praline.png""]",,,,5,,,false,,1,,,,,,,115507,115506,115002,115004,115021,115522,,,,
choice,canvas.Screen,2_4_2_6_1_0_1_0_0_2_2,2021-05-03T14:28:43.020Z,,,blank.png,"[""praline.png""]",blank.png,blank.png,blank.png,blank.png,blank.png,blank.png,blank.png,blank.png,blank.png,blank.png,blank.png,,,,,,,,,,,,,,,,,,,,,,,,,,,,,"[""praline.png""]","[""raspberry.png""]",PB17.png,,,,,,,,,,,0,6,"[""raspberry.png""]","[""raspberry.png""]","[""raspberry.png""]","[""raspberry.png""]","[""raspberry.png""]","[""raspberry.png""]",blank.png,PB18.png,PB18.png,"[""raspberry.png""]","[""raspberry.png""]","[""raspberry.png""]","[""raspberry.png""]","[""raspberry.png""]","[""raspberry.png""]","[""raspberry.png""]","[""raspberry.png""]","[""raspberry.png""]","[""raspberry.png""]","[""raspberry.png""]","[""raspberry.png""]",1,"[""praline.png""]",blank.png,blank.png,blank.png,6,"[""raspberry.png""]","[""raspberry.png""]","[""raspberry.png""]","[""raspberry.png""]","[""raspberry.png""]","[""raspberry.png""]",PB17.png,,,,,,,,,,,1,,,,,,,,,,,,,304,,response,,,,,,,,,,,,,3,,,,,,,,,,,,,,,,,,,,,,,,,,,,,,,,,,,,,,,,,,,,,,,,,,,,,,,,,"[""raspberry.png""]","[""praline.png""]",,,,5,left,keydown(ArrowLeft),false,,1,,,,,,,115928,115810,115506,115509,115522,115962,,10,,
square,canvas.Screen,2_4_2_6_1_0_1_0_0_2_3,2021-05-03T14:28:44.042Z,,,blank.png,"[""praline.png""]",blank.png,blank.png,blank.png,blank.png,blank.png,blank.png,blank.png,blank.png,blank.png,blank.png,blank.png,,,,,,,,,,,,,,,,,,,,,,,,,,,,,"[""praline.png""]","[""raspberry.png""]",PB17.png,,,,,,,,,,,0,6,"[""raspberry.png""]","[""raspberry.png""]","[""raspberry.png""]","[""raspberry.png""]","[""raspberry.png""]","[""raspberry.png""]",blank.png,PB18.png,PB18.png,"[""raspberry.png""]","[""raspberry.png""]","[""raspberry.png""]","[""raspberry.png""]","[""raspberry.png""]","[""raspberry.png""]","[""raspberry.png""]","[""raspberry.png""]","[""raspberry.png""]","[""raspberry.png""]","[""raspberry.png""]","[""raspberry.png""]",1,"[""praline.png""]",blank.png,blank.png,blank.png,6,"[""raspberry.png""]","[""raspberry.png""]","[""raspberry.png""]","[""raspberry.png""]","[""raspberry.png""]","[""raspberry.png""]",PB17.png,,,,,,,,,,,1,,,#33ff3f,#808080,,,,,,,,,1005,,timeout,,,,,,,,,,,,,3,,,,,,,,,,,,,,,,,,,,,,,,,,,,,,,,,,,,,,,,,,,,,,,,,,,,,,,,,"[""raspberry.png""]","[""praline.png""]",,,,5,,,false,,1,,,,,black,white,116950,116950,115946,115930,115962,116967,,,,
ITI_late,canvas.Screen,2_4_2_6_1_0_1_0_0_2_4,2021-05-03T14:28:44.298Z,,,blank.png,"[""praline.png""]",blank.png,blank.png,blank.png,blank.png,blank.png,blank.png,blank.png,blank.png,blank.png,blank.png,blank.png,,,,,,,,,,,,,,,,,,,,,,,,,,,,,"[""praline.png""]","[""raspberry.png""]",PB17.png,,,,,,,,,,,0,6,"[""raspberry.png""]","[""raspberry.png""]","[""raspberry.png""]","[""raspberry.png""]","[""raspberry.png""]","[""raspberry.png""]",blank.png,PB18.png,PB18.png,"[""raspberry.png""]","[""raspberry.png""]","[""raspberry.png""]","[""raspberry.png""]","[""raspberry.png""]","[""raspberry.png""]","[""raspberry.png""]","[""raspberry.png""]","[""raspberry.png""]","[""raspberry.png""]","[""raspberry.png""]","[""raspberry.png""]",1,"[""praline.png""]",blank.png,blank.png,blank.png,6,"[""raspberry.png""]","[""raspberry.png""]","[""raspberry.png""]","[""raspberry.png""]","[""raspberry.png""]","[""raspberry.png""]",PB17.png,,,,,,,,,,,1,,,,,,,,,,,,,254,,timeout,,,,,,,,,,,,white,3,,,,,,,,,,,,,,,,,,,,,,,,,,,,,,,,,,,,,,,,,,,,,,,,,,,,,,,,,"[""raspberry.png""]","[""praline.png""]",,,,5,,,false,,1,,,,,,,117205,117205,116950,116951.00000000001,116967,117221,,,,
choice_sequence,flow.Sequence,2_4_2_6_1_0_1_0_0_2,2021-05-03T14:28:44.298Z,,,blank.png,"[""praline.png""]",blank.png,blank.png,blank.png,blank.png,blank.png,blank.png,blank.png,blank.png,blank.png,blank.png,blank.png,,,,,,,,,,,,,,,,,,,,,,,,,,,,,"[""praline.png""]","[""raspberry.png""]",PB17.png,,,,,,,,,,,0,6,"[""raspberry.png""]","[""raspberry.png""]","[""raspberry.png""]","[""raspberry.png""]","[""raspberry.png""]","[""raspberry.png""]",blank.png,PB18.png,PB18.png,"[""raspberry.png""]","[""raspberry.png""]","[""raspberry.png""]","[""raspberry.png""]","[""raspberry.png""]","[""raspberry.png""]","[""raspberry.png""]","[""raspberry.png""]","[""raspberry.png""]","[""raspberry.png""]","[""raspberry.png""]","[""raspberry.png""]",1,"[""praline.png""]",blank.png,blank.png,blank.png,6,"[""raspberry.png""]","[""raspberry.png""]","[""raspberry.png""]","[""raspberry.png""]","[""raspberry.png""]","[""raspberry.png""]",PB17.png,,,,,,,,,,,1,,,,,,,,,,,,,2777,,completion,,,,,,,,,,,,,3,,,,,,,,,,,,,,,,,,,,,,,,,,,,,,,,,,,,,,,,,,,,,,,,,,,,,,,,,"[""raspberry.png""]","[""praline.png""]",,,,5,,,false,,1,,,,,,,117206,117205,114411,114414,114428,117221,,,,
fixCross,canvas.Screen,2_4_2_6_1_0_1_0_0_3_0,2021-05-03T14:28:44.605Z,,,blank.png,blank.png,blank.png,blank.png,blank.png,blank.png,blank.png,"[""praline.png""]",blank.png,blank.png,blank.png,blank.png,blank.png,,,,,,,,,,,,,,,,,,,,,,,,,,,,,"[""praline.png""]","[""raspberry.png""]",PB18.png,,,,,,,,,,,0,6,"[""raspberry.png""]","[""raspberry.png""]","[""raspberry.png""]","[""raspberry.png""]","[""raspberry.png""]","[""raspberry.png""]",blank.png,PB18.png,PB14.png,"[""raspberry.png""]","[""raspberry.png""]","[""raspberry.png""]","[""raspberry.png""]","[""raspberry.png""]","[""raspberry.png""]","[""raspberry.png""]","[""raspberry.png""]","[""raspberry.png""]",blank.png,blank.png,blank.png,1,"[""praline.png""]",blank.png,blank.png,blank.png,3,"[""raspberry.png""]","[""raspberry.png""]","[""raspberry.png""]",blank.png,blank.png,blank.png,PB14.png,,,,,,,,,,,1,,,,,,,,,,,,,310,,timeout,,,,,,,,,,,,,4,,,,,,,,,,,,,,,,,,,,,,,,,,,,,,,,,,,,,,,,,,,,,,,,,,,,,,,,,"[""raspberry.png""]","[""praline.png""]",,,,5,,,false,,1,,,,,,,117512,117512,117205,117208,117221,117531,11,,,
timeout,canvas.Screen,2_4_2_6_1_0_1_0_0_3_1,2021-05-03T14:28:45.109Z,,,blank.png,blank.png,blank.png,blank.png,blank.png,blank.png,blank.png,"[""praline.png""]",blank.png,blank.png,blank.png,blank.png,blank.png,,,,,,,,,,,,,,,,,,,,,,,,,,,,,"[""praline.png""]","[""raspberry.png""]",PB18.png,,,,,,,,,,,0,6,"[""raspberry.png""]","[""raspberry.png""]","[""raspberry.png""]","[""raspberry.png""]","[""raspberry.png""]","[""raspberry.png""]",blank.png,PB18.png,PB14.png,"[""raspberry.png""]","[""raspberry.png""]","[""raspberry.png""]","[""raspberry.png""]","[""raspberry.png""]","[""raspberry.png""]","[""raspberry.png""]","[""raspberry.png""]","[""raspberry.png""]",blank.png,blank.png,blank.png,1,"[""praline.png""]",blank.png,blank.png,blank.png,3,"[""raspberry.png""]","[""raspberry.png""]","[""raspberry.png""]",blank.png,blank.png,blank.png,PB14.png,,,,,,,,,,,1,,,,,,,,,,,,,502,,timeout,,,,,,,,,,,,,4,,,,,,,,,,,,,,,,,,,,,,,,,,,,,,,,,,,,,,,,,,,,,,,,,,,,,,,,,"[""raspberry.png""]","[""praline.png""]",,,,5,,,false,,1,,,,,,,118017,118016,117512,117515,117531,118033,,,,
