sender,sender_type,sender_id,timestamp,meta,,Blank,DownLeft1,DownLeft2,DownLeft3,DownLeft4,DownLeft5,DownLeft6,DownRight1,DownRight2,DownRight3,DownRight4,DownRight5,DownRight6,FoodHabits_Fru_item1,FoodHabits_Fru_item2,FoodHabits_Fru_item3,FoodHabits_Fru_item4,FoodHabits_Fru_item5,FoodHabits_Fru_item6,FoodHabits_Fru_item7,FoodHabits_Meat_item1,FoodHabits_Meat_item2,FoodHabits_Meat_item3,FoodHabits_Meat_item4,FoodHabits_Meat_item5,FoodHabits_Meat_item6,FoodHabits_Meat_item7,FoodHabits_Swe_item1,FoodHabits_Swe_item2,FoodHabits_Swe_item3,FoodHabits_Swe_item4,FoodHabits_Swe_item5,FoodHabits_Swe_item6,FoodHabits_Swe_item7,FoodHabits_Veg_item1,FoodHabits_Veg_item2,FoodHabits_Veg_item3,FoodHabits_Veg_item4,FoodHabits_Veg_item5,FoodHabits_Veg_item6,FoodHabits_Veg_item7,ImgA,ImgB,LeftBar,PSS_item01,PSS_item02,PSS_item03,PSS_item04,PSS_item05,PSS_item06,PSS_item07,PSS_item08,PSS_item09,PSS_item10,RefA,RefB,RefB1,RefB2,RefB3,RefB4,RefB5,RefB6,RefB7,Ref_PB,RightBar,UpLeft1,UpLeft2,UpLeft3,UpLeft4,UpLeft5,UpLeft6,UpRight1,UpRight2,UpRight3,UpRight4,UpRight5,UpRight6,VarA,VarA1,VarA2,VarA3,VarA4,VarB,VarB1,VarB2,VarB3,VarB4,VarB5,VarB6,Var_PB,attCheck_fileA,attCheck_fileB,attCheck_fileC,attCheck_fileD,attCheck_options,attCheck_valueA,attCheck_valueB,attCheck_valueC,attCheck_valueD,attention_check,block,break1,browser_name,choseL,choseR,consent_form1,consent_form2,consentconfirmation_form1,consentconfirmation_form2,correct,correctResponse,diet,disorder,duration,edu,ended_on,enjoy,full_version,gender,group,hunger,img,imgTask,input_age,input_meal,input_occ,input_remark,lateRespFeed,list,major_version,message,mixQ_item1,mixQ_item2,mixQ_item3,mixQ_item4,mixQ_item5,name,navigator_appName,navigator_userAgent,os,pracQ1_IDa,pracQ1_IDb,pracQ1_IDc,pracQ1_IDd,pracQ1_optionA,pracQ1_optionB,pracQ1_optionC,pracQ1_optionD,pracQ1_valueA,pracQ1_valueB,pracQ1_valueC,pracQ1_valueD,pracQ2_IDa,pracQ2_IDb,pracQ2_IDc,pracQ2_optionA,pracQ2_optionB,pracQ2_optionC,pracQ2_valueA,pracQ2_valueB,pracQ2_valueC,pracQ4_IDa,pracQ4_IDb,pracQ4_IDc,pracQ4_IDd,pracQ4_optionA,pracQ4_optionB,pracQ4_optionC,pracQ4_optionD,pracQ4_valueA,pracQ4_valueB,pracQ4_valueC,pracQ4_valueD,pracQ5_IDa,pracQ5_IDb,pracQ5_IDc,pracQ5_IDd,pracQ5_optionA,pracQ5_optionB,pracQ5_optionC,pracQ5_optionD,pracQ5_valueA,pracQ5_valueB,pracQ5_valueC,pracQ5_valueD,prefHealty,prefUnhealthy,prolific_ID,psessionID,pstudyID,rep,response,response_action,skip,snack,sublock,subtitle,task_difficulty,task_engagement,task_focus,textL,textR,time_commit,time_end,time_render,time_run,time_show,time_switch,trial_count,trial_countO,url,valence
Title,html.Page,0,2021-05-24T16:08:50.411Z,"{""labjs_version"":""20.2.2"",""labjs_build"":{""flavor"":""production"",""commit"":""a25486e0c714a0ae2ce03ff94b7bb6896854dcfa""},""location"":""https://run.pavlovia.org/E3lab/rebund/html/?PROLIFIC_PID=5c43467e23eb9000019bbed9&STUDY_ID=60008f34cd719d13b0d706dd&SESSION_ID=60abcf89bda48929d8f6edbd"",""userAgent"":""Mozilla/5.0 (Windows NT 10.0; Win64; x64) AppleWebKit/537.36 (KHTML, like Gecko) Chrome/90.0.4430.212 Safari/537.36"",""platform"":""Win32"",""language"":""en-GB"",""locale"":""en-US"",""timeZone"":""Europe/London"",""timezoneOffset"":-60,""screen_width"":1366,""screen_height"":768,""scroll_width"":1366,""scroll_height"":609,""window_innerWidth"":1366,""window_innerHeight"":657,""devicePixelRatio"":1}",,,,,,,,,,,,,,,,,,,,,,,,,,,,,,,,,,,,,,,,,,,,,,,,,,,,,,,,,,,,,,,,,,,,,,,,,,,,,,,,,,,,,,,,,,,,,,,,,,,,,,,,,,,,,,,,,,,3930.3030000001527,,form submission,,,,,,,,,,,,,,,,,,,,,,,,,,,,,,,,,,,,,,,,,,,,,,,,,,,,,,,,,,,,,,,,,,,,,,,,,,,,,,,,,,,,,,,5469.740000000002,5469.3200000001525,1522.353,1514.2849999997452,1539.017,5488.267,,,"{""PROLIFIC_PID"":""5c43467e23eb9000019bbed9"",""STUDY_ID"":""60008f34cd719d13b0d706dd"",""SESSION_ID"":""60abcf89bda48929d8f6edbd""}",
get_systemInfo,canvas.Screen,1,2021-05-24T16:08:50.431Z,,,,,,,,,,,,,,,,,,,,,,,,,,,,,,,,,,,,,,,,,,,,,,,,,,,,,,,,,,,,,,,,,,,,,,,,,,,,,,,,,,,,,,,,,,,,,,,,,,,,,,,,,Chrome,,,,,,,,,,,4016.656000000001,,timeout,,90.0.4430.212,,,,,,,,,,,,90,,,,,,,,Netscape,"Mozilla/5.0 (Windows NT 10.0; Win64; x64) AppleWebKit/537.36 (KHTML, like Gecko) Chrome/90.0.4430.212 Safari/537.36",Windows,,,,,,,,,,,,,,,,,,,,,,,,,,,,,,,,,,,,,,,,,,,,,,,,5c43467e23eb9000019bbed9,,60008f34cd719d13b0d706dd,,,,,,,,,,,,,5490.084999999908,5489.415000000008,5455.042,5470.7650000000285,5488.267,9504.923,,,,
ConsentForm,html.Form,2_0,2021-05-24T16:09:33.867Z,,,,,,,,,,,,,,,,,,,,,,,,,,,,,,,,,,,,,,,,,,,,,,,,,,,,,,,,,,,,,,,,,,,,,,,,,,,,,,,,,,,,,,,,,,,,,,,,,,,,,,,,,,,,true,true,,,,,,,39420.44699999993,,form submission,,,,,,,,,,,,,,,,,,,,,,,,,,,,,,,,,,,,,,,,,,,,,,,,,,,,,,,,,,,,,,,,,,,,,,,,,,,,,,,,,,,,,,,48925.76000000008,48925.36999999993,5489.415000000008,9528.369999999995,9504.923,48930.014,,,,
PepTalk,html.Page,2_1,2021-05-24T16:09:44.059Z,,,,,,,,,,,,,,,,,,,,,,,,,,,,,,,,,,,,,,,,,,,,,,,,,,,,,,,,,,,,,,,,,,,,,,,,,,,,,,,,,,,,,,,,,,,,,,,,,,,,,,,,,,,,,,,,,,,,10186.950999999703,,form submission,,,,,,,,,,,,,,,,,,,,,,,,,,,,,,,,,,,,,,,,,,,,,,,,,,,,,,,,,,,,,,,,,,,,,,,,,,,,,,,,,,,,,,,59117.30499999976,59116.964999999705,48913.427,48925.90500000006,48930.014,59128.069,,,,
Demographics,html.Form,2_2,2021-05-24T16:10:00.132Z,,,,,,,,,,,,,,,,,,,,,,,,,,,,,,,,,,,,,,,,,,,,,,,,,,,,,,,,,,,,,,,,,,,,,,,,,,,,,,,,,,,,,,,,,,,,,,,,,,,,,,,,,,,,,,,,,,,,16061.850999999806,3,form submission,,,1,,,,,36,,full time mother,,,,,,,,,,,,,,,,,,,,,,,,,,,,,,,,,,,,,,,,,,,,,,,,,,,,,,,,,,,,,,,,,,,,,,,,,,,,,75190.1899999998,75189.91999999981,59111.477,59117.56500000002,59128.069,75191.691,,,,
InclusionCrit,html.Form,2_3,2021-05-24T16:10:11.388Z,,,,,,,,,,,,,,,,,,,,,,,,,,,,,,,,,,,,,,,,,,,,,,,,,,,,,,,,,,,,,,,,,,,,,,,,,,,,,,,,,,,,,,,,,,,,,,,,,,,,,,,,,,,,,,,,,,1,1,11253.90400000014,,form submission,1,,,,,,,,,,,,,,,,,,,,,,,,,,,,,,,,,,,,,,,,,,,,,,,,,,,,,,,,,,,,,,,,,,,,,,,,,,,,,,,,,,,,,,86445.97999999997,86445.59500000015,75175.089,75190.34000000011,75191.691,86472.962,,,,
Selection,html.Page,2_4_0,2021-05-24T16:10:19.260Z,,,,,,,,,,,,,,,,,,,,,,,,,,,,,,,,,,,,,,,,,,,,,,,,,,,,,,,,,,,,,,,,,,,,,,,,,,,,,,,,,,,,,,,,,,,,,,,,,,,,,,,,,,,,,,,,,,,,7844.808000000106,,form submission,,,,,,,,,,,,,,,,,,,,,,,,,,,,,,,,,,,,,,,,,,,,,,,,,,,,,,,,,,,,,,,,,,,,,,,,,,,,,,,1,,,,,,,,94318.17499999989,94317.7700000001,86456.299,86446.16499999983,86472.962,94321.407,,,,
Load,html.Page,2_4_1,2021-05-24T16:10:19.266Z,,,,,,,,,,,,,,,,,,,,,,,,,,,,,,,,,,,,,,,,,,,,,,,,,,,,,,,,,,,,,,,,,,,,,,,,,,,,,,,,,,,,,,,,,,,,,,,,,,,,,,,,,,,,,,,,,,,,4532.430999999997,,timeout,,,,,,,,,,,,,,,,,,,,,,,,,,,,,,,,,,,,,,,,,,,,,,,,,,,,,,,,,,,,,,,,,,,,,,,,,,,,,,,,,,,,,,,94323.48000000001,94322.90000000011,94304.817,94318.39499999979,94321.407,98853.838,,,,
SequenceSweet,flow.Sequence,2_4_2,2021-05-24T16:10:21.769Z,,,,,,,,,,,,,,,,,,,,,,,,,,,,,,,,,,,,,,,,,,,,,,,,,,,,,,,,,,,,,,,,,,,,,,,,,,,,,,,,,,,,,,,,,,,,,,,,,,,,,,,,,,,,,,,,,,,,NaN,,skipped,,,,,,,,,,,,,,,,,,,,,,,,,,,,,,,,,,,,,,,,,,,,,,,,,,,,,,,,,,,,,,,,,,,,,,,,,,,,,,true,,,,,,,,,96826.96499999975,94322.90000000011,,96826.36000000002,,98853.838,0,0,,
ratings_instructions,html.Screen,2_4_3_0,2021-05-24T16:10:36.109Z,,,,,,,,,,,,,,,,,,,,,,,,,,,,,,,,,,,,,,,,,,,,,,,,,,,,,,,,,,,,,,,,,,,,,,,,,,,,,,,,,,,,,,,,,,,,,,,,,,,,,,,,,,,,,,,,,,,,12310.54199999971,,response,,,,,,,,,,,,,,,,,,,,,,,,,,,,,,,,,,,,,,,,,,,,,,,,,,,,,,,,,,,,,,,,,,,,,,,,,,,,continue,keypress(Space),false,,,,,,,,,111166.85000000006,111164.37999999971,94322.90000000011,98891.14500000005,98853.838,111168.144,0,0,,
fixCross,canvas.Screen,2_4_3_1_0_0,2021-05-24T16:10:36.594Z,,,,,,,,,,,,,,,,,,,,,,,,,,,,,,,,,,,,,,,,,,,,,,,,,,,,,,,,,,,,,,,,,,,,,,,,,,,,,,,,,,,,,,,,,,,,,,,,,,,,,,,,,,,,,,,,,,,,499.90499999999884,,timeout,,,,healthy,,radish.png,,,,,,,,,,,,,,,radish,,,,,,,,,,,,,,,,,,,,,,,,,,,,,,,,,,,,,,,,,,,,,,,,,,,,,,,,,false,,,,,,,,,111652.32000000015,111651.494,111151.562,111167.3350000001,111168.144,111668.049,,,,
Rating,html.Form,2_4_3_1_0_1,2021-05-24T16:10:40.550Z,,,,,,,,,,,,,,,,,,,,,,,,,,,,,,,,,,,,,,,,,,,,,,,,,,,,,,,,,,,,,,,,,,,,,,,,,,,,,,,,,,,,,,,,,,,,,,,,,,,,,,,,,,,,,,,,,,,,3939.3109999999724,,form submission,,,,healthy,,radish.png,,,,,,,,,,,,,,,radish,,,,,,,,,,,,,,,,,,,,,,,,,,,,,,,,,,,,,,,,,,,,,,,,,,,,,,,,,false,,,,,,,,,115607.75999999986,115607.35999999997,111651.494,111652.45999999979,111668.049,115617.367,,,,58
rating_sequence,flow.Sequence,2_4_3_1_0,2021-05-24T16:10:40.550Z,,,,,,,,,,,,,,,,,,,,,,,,,,,,,,,,,,,,,,,,,,,,,,,,,,,,,,,,,,,,,,,,,,,,,,,,,,,,,,,,,,,,,,,,,,,,,,,,,,,,,,,,,,,,,,,,,,,,4439.215999999971,,completion,,,,healthy,,radish.png,,,,,,,,,,,,,,,radish,,,,,,,,,,,,,,,,,,,,,,,,,,,,,,,,,,,,,,,,,,,,,,,,,,,,,,,,,false,,,,,,,,,115608.04000000007,115607.35999999997,111151.562,111167.29499999974,111168.144,115617.367,,,,
fixCross,canvas.Screen,2_4_3_1_1_0,2021-05-24T16:10:41.043Z,,,,,,,,,,,,,,,,,,,,,,,,,,,,,,,,,,,,,,,,,,,,,,,,,,,,,,,,,,,,,,,,,,,,,,,,,,,,,,,,,,,,,,,,,,,,,,,,,,,,,,,,,,,,,,,,,,,,499.9799999999959,,timeout,,,,unhealthy,,ritz.png,,,,,,,,,,,,,,,cracker,,,,,,,,,,,,,,,,,,,,,,,,,,,,,,,,,,,,,,,,,,,,,,,,,,,,,,,,,false,,,,,,,,,116101.23999999996,116100.646,115600.736,115608.16999999997,115617.367,116117.347,,,,
Rating,html.Form,2_4_3_1_1_1,2021-05-24T16:10:43.828Z,,,,,,,,,,,,,,,,,,,,,,,,,,,,,,,,,,,,,,,,,,,,,,,,,,,,,,,,,,,,,,,,,,,,,,,,,,,,,,,,,,,,,,,,,,,,,,,,,,,,,,,,,,,,,,,,,,,,2768.3980000000447,,form submission,,,,unhealthy,,ritz.png,,,,,,,,,,,,,,,cracker,,,,,,,,,,,,,,,,,,,,,,,,,,,,,,,,,,,,,,,,,,,,,,,,,,,,,,,,,false,,,,,,,,,118886.01500000004,118885.74500000004,116100.646,116101.36499999999,116117.347,118900.074,,,,63
rating_sequence,flow.Sequence,2_4_3_1_1,2021-05-24T16:10:43.828Z,,,,,,,,,,,,,,,,,,,,,,,,,,,,,,,,,,,,,,,,,,,,,,,,,,,,,,,,,,,,,,,,,,,,,,,,,,,,,,,,,,,,,,,,,,,,,,,,,,,,,,,,,,,,,,,,,,,,3268.3780000000406,,completion,,,,unhealthy,,ritz.png,,,,,,,,,,,,,,,cracker,,,,,,,,,,,,,,,,,,,,,,,,,,,,,,,,,,,,,,,,,,,,,,,,,,,,,,,,,false,,,,,,,,,118886.305,118885.74500000004,115600.736,115608.13499999995,115617.367,118900.074,,,,
fixCross,canvas.Screen,2_4_3_1_2_0,2021-05-24T16:10:44.326Z,,,,,,,,,,,,,,,,,,,,,,,,,,,,,,,,,,,,,,,,,,,,,,,,,,,,,,,,,,,,,,,,,,,,,,,,,,,,,,,,,,,,,,,,,,,,,,,,,,,,,,,,,,,,,,,,,,,,499.9279999999999,,timeout,,,,healthy,,pickle.png,,,,,,,,,,,,,,,pickle,,,,,,,,,,,,,,,,,,,,,,,,,,,,,,,,,,,,,,,,,,,,,,,,,,,,,,,,,false,,,,,,,,,119383.96000000011,119383.247,118883.433,118886.43999999977,118900.074,119400.002,,,,
Rating,html.Form,2_4_3_1_2_1,2021-05-24T16:10:46.740Z,,,,,,,,,,,,,,,,,,,,,,,,,,,,,,,,,,,,,,,,,,,,,,,,,,,,,,,,,,,,,,,,,,,,,,,,,,,,,,,,,,,,,,,,,,,,,,,,,,,,,,,,,,,,,,,,,,,,2397.707999999824,,form submission,,,,healthy,,pickle.png,,,,,,,,,,,,,,,pickle,,,,,,,,,,,,,,,,,,,,,,,,,,,,,,,,,,,,,,,,,,,,,,,,,,,,,,,,,false,,,,,,,,,121798.0849999999,121797.70999999982,119383.247,119384.18000000002,119400.002,121799.482,,,,80
rating_sequence,flow.Sequence,2_4_3_1_2,2021-05-24T16:10:46.740Z,,,,,,,,,,,,,,,,,,,,,,,,,,,,,,,,,,,,,,,,,,,,,,,,,,,,,,,,,,,,,,,,,,,,,,,,,,,,,,,,,,,,,,,,,,,,,,,,,,,,,,,,,,,,,,,,,,,,2897.635999999824,,completion,,,,healthy,,pickle.png,,,,,,,,,,,,,,,pickle,,,,,,,,,,,,,,,,,,,,,,,,,,,,,,,,,,,,,,,,,,,,,,,,,,,,,,,,,false,,,,,,,,,121798.4849999998,121797.70999999982,118883.433,118886.40499999974,118900.074,121799.482,,,,
fixCross,canvas.Screen,2_4_3_1_3_0,2021-05-24T16:10:47.225Z,,,,,,,,,,,,,,,,,,,,,,,,,,,,,,,,,,,,,,,,,,,,,,,,,,,,,,,,,,,,,,,,,,,,,,,,,,,,,,,,,,,,,,,,,,,,,,,,,,,,,,,,,,,,,,,,,,,,499.95900000000256,,timeout,,,,healthy,,walnut.png,,,,,,,,,,,,,,,walnut,,,,,,,,,,,,,,,,,,,,,,,,,,,,,,,,,,,,,,,,,,,,,,,,,,,,,,,,,false,,,,,,,,,122283.37499999997,122282.771,121782.897,121798.62999999977,121799.482,122299.441,,,,
Rating,html.Form,2_4_3_1_3_1,2021-05-24T16:10:50.708Z,,,,,,,,,,,,,,,,,,,,,,,,,,,,,,,,,,,,,,,,,,,,,,,,,,,,,,,,,,,,,,,,,,,,,,,,,,,,,,,,,,,,,,,,,,,,,,,,,,,,,,,,,,,,,,,,,,,,3466.6290000001172,,form submission,,,,healthy,,walnut.png,,,,,,,,,,,,,,,walnut,,,,,,,,,,,,,,,,,,,,,,,,,,,,,,,,,,,,,,,,,,,,,,,,,,,,,,,,,false,,,,,,,,,125766.39999999998,125766.07000000012,122282.771,122283.51500000007,122299.441,125798.779,,,,55
rating_sequence,flow.Sequence,2_4_3_1_3,2021-05-24T16:10:50.708Z,,,,,,,,,,,,,,,,,,,,,,,,,,,,,,,,,,,,,,,,,,,,,,,,,,,,,,,,,,,,,,,,,,,,,,,,,,,,,,,,,,,,,,,,,,,,,,,,,,,,,,,,,,,,,,,,,,,,3966.58800000012,,completion,,,,healthy,,walnut.png,,,,,,,,,,,,,,,walnut,,,,,,,,,,,,,,,,,,,,,,,,,,,,,,,,,,,,,,,,,,,,,,,,,,,,,,,,,false,,,,,,,,,125766.7849999998,125766.07000000012,121782.897,121798.59499999975,121799.482,125798.779,,,,
fixCross,canvas.Screen,2_4_3_1_4_0,2021-05-24T16:10:51.224Z,,,,,,,,,,,,,,,,,,,,,,,,,,,,,,,,,,,,,,,,,,,,,,,,,,,,,,,,,,,,,,,,,,,,,,,,,,,,,,,,,,,,,,,,,,,,,,,,,,,,,,,,,,,,,,,,,,,,499.89800000000105,,timeout,,,,healthy,,cucumber.png,,,,,,,,,,,,,,,cucumber,,,,,,,,,,,,,,,,,,,,,,,,,,,,,,,,,,,,,,,,,,,,,,,,,,,,,,,,,false,,,,,,,,,126282.57499999972,126282.022,125789.802,125766.9249999999,125798.779,126298.677,,,,
Rating,html.Form,2_4_3_1_4_1,2021-05-24T16:10:54.556Z,,,,,,,,,,,,,,,,,,,,,,,,,,,,,,,,,,,,,,,,,,,,,,,,,,,,,,,,,,,,,,,,,,,,,,,,,,,,,,,,,,,,,,,,,,,,,,,,,,,,,,,,,,,,,,,,,,,,3315.077999999863,,form submission,,,,healthy,,cucumber.png,,,,,,,,,,,,,,,cucumber,,,,,,,,,,,,,,,,,,,,,,,,,,,,,,,,,,,,,,,,,,,,,,,,,,,,,,,,,false,,,,,,,,,129614.19500000011,129613.75499999986,126282.022,126282.68500000013,126298.677,129614.655,,,,62
rating_sequence,flow.Sequence,2_4_3_1_4,2021-05-24T16:10:54.556Z,,,,,,,,,,,,,,,,,,,,,,,,,,,,,,,,,,,,,,,,,,,,,,,,,,,,,,,,,,,,,,,,,,,,,,,,,,,,,,,,,,,,,,,,,,,,,,,,,,,,,,,,,,,,,,,,,,,,3814.975999999864,,completion,,,,healthy,,cucumber.png,,,,,,,,,,,,,,,cucumber,,,,,,,,,,,,,,,,,,,,,,,,,,,,,,,,,,,,,,,,,,,,,,,,,,,,,,,,,false,,,,,,,,,129614.55500000011,129613.75499999986,125789.802,125766.8749999998,125798.779,129614.655,,,,
fixCross,canvas.Screen,2_4_3_1_5_0,2021-05-24T16:10:55.040Z,,,,,,,,,,,,,,,,,,,,,,,,,,,,,,,,,,,,,,,,,,,,,,,,,,,,,,,,,,,,,,,,,,,,,,,,,,,,,,,,,,,,,,,,,,,,,,,,,,,,,,,,,,,,,,,,,,,,499.8889999999956,,timeout,,,,unhealthy,,nacho.png,,,,,,,,,,,,,,,nacho,,,,,,,,,,,,,,,,,,,,,,,,,,,,,,,,,,,,,,,,,,,,,,,,,,,,,,,,,false,,,,,,,,,130098.46500000003,130097.887,129597.98,129614.95000000013,129614.655,130114.544,,,,
Rating,html.Form,2_4_3_1_5_1,2021-05-24T16:10:57.804Z,,,,,,,,,,,,,,,,,,,,,,,,,,,,,,,,,,,,,,,,,,,,,,,,,,,,,,,,,,,,,,,,,,,,,,,,,,,,,,,,,,,,,,,,,,,,,,,,,,,,,,,,,,,,,,,,,,,,2747.280999999959,,form submission,,,,unhealthy,,nacho.png,,,,,,,,,,,,,,,nacho,,,,,,,,,,,,,,,,,,,,,,,,,,,,,,,,,,,,,,,,,,,,,,,,,,,,,,,,,false,,,,,,,,,132862.17499999976,132861.82499999995,130097.887,130098.60500000013,130114.544,132864.011,,,,52
rating_sequence,flow.Sequence,2_4_3_1_5,2021-05-24T16:10:57.804Z,,,,,,,,,,,,,,,,,,,,,,,,,,,,,,,,,,,,,,,,,,,,,,,,,,,,,,,,,,,,,,,,,,,,,,,,,,,,,,,,,,,,,,,,,,,,,,,,,,,,,,,,,,,,,,,,,,,,3247.1699999999546,,completion,,,,unhealthy,,nacho.png,,,,,,,,,,,,,,,nacho,,,,,,,,,,,,,,,,,,,,,,,,,,,,,,,,,,,,,,,,,,,,,,,,,,,,,,,,,false,,,,,,,,,132862.525,132861.82499999995,129597.98,129614.865,129614.655,132864.011,,,,
fixCross,canvas.Screen,2_4_3_1_6_0,2021-05-24T16:10:58.290Z,,,,,,,,,,,,,,,,,,,,,,,,,,,,,,,,,,,,,,,,,,,,,,,,,,,,,,,,,,,,,,,,,,,,,,,,,,,,,,,,,,,,,,,,,,,,,,,,,,,,,,,,,,,,,,,,,,,,500.00800000000163,,timeout,,,,unhealthy,,frie.png,,,,,,,,,,,,,,,frie,,,,,,,,,,,,,,,,,,,,,,,,,,,,,,,,,,,,,,,,,,,,,,,,,,,,,,,,,false,,,,,,,,,133347.9299999999,133347.345,132847.417,132862.67999999973,132864.011,133364.019,,,,
Rating,html.Form,2_4_3_1_6_1,2021-05-24T16:11:01.460Z,,,,,,,,,,,,,,,,,,,,,,,,,,,,,,,,,,,,,,,,,,,,,,,,,,,,,,,,,,,,,,,,,,,,,,,,,,,,,,,,,,,,,,,,,,,,,,,,,,,,,,,,,,,,,,,,,,,,3153.9459999999963,,form submission,,,,unhealthy,,frie.png,,,,,,,,,,,,,,,frie,,,,,,,,,,,,,,,,,,,,,,,,,,,,,,,,,,,,,,,,,,,,,,,,,,,,,,,,,false,,,,,,,,,136518.54000000004,136517.965,133347.345,133348.05000000005,133364.019,136530.062,,,,56
rating_sequence,flow.Sequence,2_4_3_1_6,2021-05-24T16:11:01.461Z,,,,,,,,,,,,,,,,,,,,,,,,,,,,,,,,,,,,,,,,,,,,,,,,,,,,,,,,,,,,,,,,,,,,,,,,,,,,,,,,,,,,,,,,,,,,,,,,,,,,,,,,,,,,,,,,,,,,3653.953999999998,,completion,,,,unhealthy,,frie.png,,,,,,,,,,,,,,,frie,,,,,,,,,,,,,,,,,,,,,,,,,,,,,,,,,,,,,,,,,,,,,,,,,,,,,,,,,false,,,,,,,,,136518.81499999992,136517.965,132847.417,132862.64500000016,132864.011,136530.062,,,,
fixCross,canvas.Screen,2_4_3_1_7_0,2021-05-24T16:11:01.957Z,,,,,,,,,,,,,,,,,,,,,,,,,,,,,,,,,,,,,,,,,,,,,,,,,,,,,,,,,,,,,,,,,,,,,,,,,,,,,,,,,,,,,,,,,,,,,,,,,,,,,,,,,,,,,,,,,,,,499.8999999999942,,timeout,,,,unhealthy,,sausage.png,,,,,,,,,,,,,,,salami,,,,,,,,,,,,,,,,,,,,,,,,,,,,,,,,,,,,,,,,,,,,,,,,,,,,,,,,,false,,,,,,,,,137014.94000000003,137013.349,136513.381,136518.97499999995,136530.062,137029.962,,,,
Rating,html.Form,2_4_3_1_7_1,2021-05-24T16:11:04.468Z,,,,,,,,,,,,,,,,,,,,,,,,,,,,,,,,,,,,,,,,,,,,,,,,,,,,,,,,,,,,,,,,,,,,,,,,,,,,,,,,,,,,,,,,,,,,,,,,,,,,,,,,,,,,,,,,,,,,2495.887999999977,,form submission,,,,unhealthy,,sausage.png,,,,,,,,,,,,,,,salami,,,,,,,,,,,,,,,,,,,,,,,,,,,,,,,,,,,,,,,,,,,,,,,,,,,,,,,,,false,,,,,,,,,139526.19000000003,139525.84999999998,137013.349,137015.06999999992,137029.962,139529.527,,,,84
rating_sequence,flow.Sequence,2_4_3_1_7,2021-05-24T16:11:04.468Z,,,,,,,,,,,,,,,,,,,,,,,,,,,,,,,,,,,,,,,,,,,,,,,,,,,,,,,,,,,,,,,,,,,,,,,,,,,,,,,,,,,,,,,,,,,,,,,,,,,,,,,,,,,,,,,,,,,,2995.7879999999714,,completion,,,,unhealthy,,sausage.png,,,,,,,,,,,,,,,salami,,,,,,,,,,,,,,,,,,,,,,,,,,,,,,,,,,,,,,,,,,,,,,,,,,,,,,,,,false,,,,,,,,,139526.49999999994,139525.84999999998,136513.381,136518.93500000006,136530.062,139529.527,,,,
fixCross,canvas.Screen,2_4_3_1_8_0,2021-05-24T16:11:04.955Z,,,,,,,,,,,,,,,,,,,,,,,,,,,,,,,,,,,,,,,,,,,,,,,,,,,,,,,,,,,,,,,,,,,,,,,,,,,,,,,,,,,,,,,,,,,,,,,,,,,,,,,,,,,,,,,,,,,,499.8640000000014,,timeout,,,,unhealthy,,bretzel.png,,,,,,,,,,,,,,,bretzel,,,,,,,,,,,,,,,,,,,,,,,,,,,,,,,,,,,,,,,,,,,,,,,,,,,,,,,,,false,,,,,,,,,140013.25499999983,140012.721,139512.831,139526.6449999999,139529.527,140029.391,,,,
Rating,html.Form,2_4_3_1_8_1,2021-05-24T16:11:07.876Z,,,,,,,,,,,,,,,,,,,,,,,,,,,,,,,,,,,,,,,,,,,,,,,,,,,,,,,,,,,,,,,,,,,,,,,,,,,,,,,,,,,,,,,,,,,,,,,,,,,,,,,,,,,,,,,,,,,,2904.498999999778,,form submission,,,,unhealthy,,bretzel.png,,,,,,,,,,,,,,,bretzel,,,,,,,,,,,,,,,,,,,,,,,,,,,,,,,,,,,,,,,,,,,,,,,,,,,,,,,,,false,,,,,,,,,142934.24000000005,142933.88999999978,140012.721,140013.35999999993,140029.391,142945.511,,,,58
rating_sequence,flow.Sequence,2_4_3_1_8,2021-05-24T16:11:07.876Z,,,,,,,,,,,,,,,,,,,,,,,,,,,,,,,,,,,,,,,,,,,,,,,,,,,,,,,,,,,,,,,,,,,,,,,,,,,,,,,,,,,,,,,,,,,,,,,,,,,,,,,,,,,,,,,,,,,,3404.3629999997793,,completion,,,,unhealthy,,bretzel.png,,,,,,,,,,,,,,,bretzel,,,,,,,,,,,,,,,,,,,,,,,,,,,,,,,,,,,,,,,,,,,,,,,,,,,,,,,,,false,,,,,,,,,142934.55499999982,142933.88999999978,139512.831,139526.60000000015,139529.527,142945.511,,,,
fixCross,canvas.Screen,2_4_3_1_9_0,2021-05-24T16:11:08.371Z,,,,,,,,,,,,,,,,,,,,,,,,,,,,,,,,,,,,,,,,,,,,,,,,,,,,,,,,,,,,,,,,,,,,,,,,,,,,,,,,,,,,,,,,,,,,,,,,,,,,,,,,,,,,,,,,,,,,499.9109999999928,,timeout,,,,unhealthy,,peanut_cracker.png,,,,,,,,,,,,,,,peanut chip,,,,,,,,,,,,,,,,,,,,,,,,,,,,,,,,,,,,,,,,,,,,,,,,,,,,,,,,,false,,,,,,,,,143429.31999999975,143428.785,142928.842,142934.69999999978,142945.511,143445.422,,,,
Rating,html.Form,2_4_3_1_9_1,2021-05-24T16:11:12.004Z,,,,,,,,,,,,,,,,,,,,,,,,,,,,,,,,,,,,,,,,,,,,,,,,,,,,,,,,,,,,,,,,,,,,,,,,,,,,,,,,,,,,,,,,,,,,,,,,,,,,,,,,,,,,,,,,,,,,3616.753000000026,,form submission,,,,unhealthy,,peanut_cracker.png,,,,,,,,,,,,,,,peanut chip,,,,,,,,,,,,,,,,,,,,,,,,,,,,,,,,,,,,,,,,,,,,,,,,,,,,,,,,,false,,,,,,,,,147062.52499999982,147062.17500000002,143428.785,143429.4399999999,143445.422,147078.085,,,,50
rating_sequence,flow.Sequence,2_4_3_1_9,2021-05-24T16:11:12.005Z,,,,,,,,,,,,,,,,,,,,,,,,,,,,,,,,,,,,,,,,,,,,,,,,,,,,,,,,,,,,,,,,,,,,,,,,,,,,,,,,,,,,,,,,,,,,,,,,,,,,,,,,,,,,,,,,,,,,4116.664000000019,,completion,,,,unhealthy,,peanut_cracker.png,,,,,,,,,,,,,,,peanut chip,,,,,,,,,,,,,,,,,,,,,,,,,,,,,,,,,,,,,,,,,,,,,,,,,,,,,,,,,false,,,,,,,,,147062.9899999999,147062.17500000002,142928.842,142934.66499999978,142945.511,147078.085,,,,
fixCross,canvas.Screen,2_4_3_1_10_0,2021-05-24T16:11:12.504Z,,,,,,,,,,,,,,,,,,,,,,,,,,,,,,,,,,,,,,,,,,,,,,,,,,,,,,,,,,,,,,,,,,,,,,,,,,,,,,,,,,,,,,,,,,,,,,,,,,,,,,,,,,,,,,,,,,,,499.88200000001234,,timeout,,,,unhealthy,,ham.png,,,,,,,,,,,,,,,ham,,,,,,,,,,,,,,,,,,,,,,,,,,,,,,,,,,,,,,,,,,,,,,,,,,,,,,,,,false,,,,,,,,,147561.96,147561.37,147061.412,147063.13,147078.085,147577.967,,,,
Rating,html.Form,2_4_3_1_10_1,2021-05-24T16:11:15.460Z,,,,,,,,,,,,,,,,,,,,,,,,,,,,,,,,,,,,,,,,,,,,,,,,,,,,,,,,,,,,,,,,,,,,,,,,,,,,,,,,,,,,,,,,,,,,,,,,,,,,,,,,,,,,,,,,,,,,2939.978000000061,,form submission,,,,unhealthy,,ham.png,,,,,,,,,,,,,,,ham,,,,,,,,,,,,,,,,,,,,,,,,,,,,,,,,,,,,,,,,,,,,,,,,,,,,,,,,,false,,,,,,,,,150518.29499999987,150517.94500000007,147561.37,147562.08500000002,147577.967,150527.414,,,,87
rating_sequence,flow.Sequence,2_4_3_1_10,2021-05-24T16:11:15.460Z,,,,,,,,,,,,,,,,,,,,,,,,,,,,,,,,,,,,,,,,,,,,,,,,,,,,,,,,,,,,,,,,,,,,,,,,,,,,,,,,,,,,,,,,,,,,,,,,,,,,,,,,,,,,,,,,,,,,3439.8600000000733,,completion,,,,unhealthy,,ham.png,,,,,,,,,,,,,,,ham,,,,,,,,,,,,,,,,,,,,,,,,,,,,,,,,,,,,,,,,,,,,,,,,,,,,,,,,,false,,,,,,,,,150518.61499999996,150517.94500000007,147061.412,147063.09499999997,147078.085,150527.414,,,,
fixCross,canvas.Screen,2_4_3_1_11_0,2021-05-24T16:11:15.953Z,,,,,,,,,,,,,,,,,,,,,,,,,,,,,,,,,,,,,,,,,,,,,,,,,,,,,,,,,,,,,,,,,,,,,,,,,,,,,,,,,,,,,,,,,,,,,,,,,,,,,,,,,,,,,,,,,,,,499.90600000001723,,timeout,,,,healthy,,cashew.png,,,,,,,,,,,,,,,cashew,,,,,,,,,,,,,,,,,,,,,,,,,,,,,,,,,,,,,,,,,,,,,,,,,,,,,,,,,false,,,,,,,,,151011.14499999993,151010.634,150510.786,150518.7350000001,150527.414,151027.32,,,,
Rating,html.Form,2_4_3_1_11_1,2021-05-24T16:11:18.453Z,,,,,,,,,,,,,,,,,,,,,,,,,,,,,,,,,,,,,,,,,,,,,,,,,,,,,,,,,,,,,,,,,,,,,,,,,,,,,,,,,,,,,,,,,,,,,,,,,,,,,,,,,,,,,,,,,,,,2483.2050000001327,,form submission,,,,healthy,,cashew.png,,,,,,,,,,,,,,,cashew,,,,,,,,,,,,,,,,,,,,,,,,,,,,,,,,,,,,,,,,,,,,,,,,,,,,,,,,,false,,,,,,,,,153511.05999999982,153510.52500000014,151010.634,151011.27499999985,151027.32,153539.99,,,,50
rating_sequence,flow.Sequence,2_4_3_1_11,2021-05-24T16:11:18.453Z,,,,,,,,,,,,,,,,,,,,,,,,,,,,,,,,,,,,,,,,,,,,,,,,,,,,,,,,,,,,,,,,,,,,,,,,,,,,,,,,,,,,,,,,,,,,,,,,,,,,,,,,,,,,,,,,,,,,2983.11100000015,,completion,,,,healthy,,cashew.png,,,,,,,,,,,,,,,cashew,,,,,,,,,,,,,,,,,,,,,,,,,,,,,,,,,,,,,,,,,,,,,,,,,,,,,,,,,false,,,,,,,,,153511.43999999977,153510.52500000014,150510.786,150518.70000000007,150527.414,153539.99,,,,
fixCross,canvas.Screen,2_4_3_1_12_0,2021-05-24T16:11:18.969Z,,,,,,,,,,,,,,,,,,,,,,,,,,,,,,,,,,,,,,,,,,,,,,,,,,,,,,,,,,,,,,,,,,,,,,,,,,,,,,,,,,,,,,,,,,,,,,,,,,,,,,,,,,,,,,,,,,,,503.4110000000219,,timeout,,,,unhealthy,,dried_meat.png,,,,,,,,,,,,,,,dried meat,,,,,,,,,,,,,,,,,,,,,,,,,,,,,,,,,,,,,,,,,,,,,,,,,,,,,,,,,false,,,,,,,,,154027.27000000005,154026.75,153493.531,153511.57000000012,153539.99,154043.401,,,,
Rating,html.Form,2_4_3_1_12_1,2021-05-24T16:11:23.364Z,,,,,,,,,,,,,,,,,,,,,,,,,,,,,,,,,,,,,,,,,,,,,,,,,,,,,,,,,,,,,,,,,,,,,,,,,,,,,,,,,,,,,,,,,,,,,,,,,,,,,,,,,,,,,,,,,,,,4378.8239999997895,,form submission,,,,unhealthy,,dried_meat.png,,,,,,,,,,,,,,,dried meat,,,,,,,,,,,,,,,,,,,,,,,,,,,,,,,,,,,,,,,,,,,,,,,,,,,,,,,,,false,,,,,,,,,158422.55999999997,158422.2249999998,154026.75,154027.38,154043.401,158426.112,,,,83
rating_sequence,flow.Sequence,2_4_3_1_12,2021-05-24T16:11:23.365Z,,,,,,,,,,,,,,,,,,,,,,,,,,,,,,,,,,,,,,,,,,,,,,,,,,,,,,,,,,,,,,,,,,,,,,,,,,,,,,,,,,,,,,,,,,,,,,,,,,,,,,,,,,,,,,,,,,,,4882.234999999811,,completion,,,,unhealthy,,dried_meat.png,,,,,,,,,,,,,,,dried meat,,,,,,,,,,,,,,,,,,,,,,,,,,,,,,,,,,,,,,,,,,,,,,,,,,,,,,,,,false,,,,,,,,,158422.90999999977,158422.2249999998,153493.531,153511.52999999977,153539.99,158426.112,,,,
fixCross,canvas.Screen,2_4_3_1_13_0,2021-05-24T16:11:23.851Z,,,,,,,,,,,,,,,,,,,,,,,,,,,,,,,,,,,,,,,,,,,,,,,,,,,,,,,,,,,,,,,,,,,,,,,,,,,,,,,,,,,,,,,,,,,,,,,,,,,,,,,,,,,,,,,,,,,,499.8070000000007,,timeout,,,,healthy,,carrot.png,,,,,,,,,,,,,,,carrot,,,,,,,,,,,,,,,,,,,,,,,,,,,,,,,,,,,,,,,,,,,,,,,,,,,,,,,,,false,,,,,,,,,158909.66500000012,158909.149,158409.287,158423.0299999999,158426.112,158925.919,,,,
Rating,html.Form,2_4_3_1_13_1,2021-05-24T16:11:28.581Z,,,,,,,,,,,,,,,,,,,,,,,,,,,,,,,,,,,,,,,,,,,,,,,,,,,,,,,,,,,,,,,,,,,,,,,,,,,,,,,,,,,,,,,,,,,,,,,,,,,,,,,,,,,,,,,,,,,,4712.475999999966,,form submission,,,,healthy,,carrot.png,,,,,,,,,,,,,,,carrot,,,,,,,,,,,,,,,,,,,,,,,,,,,,,,,,,,,,,,,,,,,,,,,,,,,,,,,,,false,,,,,,,,,163638.93999999983,163638.39499999996,158909.149,158909.7999999999,158925.919,163641.512,,,,59
rating_sequence,flow.Sequence,2_4_3_1_13,2021-05-24T16:11:28.581Z,,,,,,,,,,,,,,,,,,,,,,,,,,,,,,,,,,,,,,,,,,,,,,,,,,,,,,,,,,,,,,,,,,,,,,,,,,,,,,,,,,,,,,,,,,,,,,,,,,,,,,,,,,,,,,,,,,,,5212.282999999967,,completion,,,,healthy,,carrot.png,,,,,,,,,,,,,,,carrot,,,,,,,,,,,,,,,,,,,,,,,,,,,,,,,,,,,,,,,,,,,,,,,,,,,,,,,,,false,,,,,,,,,163639.22000000003,163638.39499999996,158409.287,158422.99999999977,158426.112,163641.512,,,,
fixCross,canvas.Screen,2_4_3_1_14_0,2021-05-24T16:11:29.067Z,,,,,,,,,,,,,,,,,,,,,,,,,,,,,,,,,,,,,,,,,,,,,,,,,,,,,,,,,,,,,,,,,,,,,,,,,,,,,,,,,,,,,,,,,,,,,,,,,,,,,,,,,,,,,,,,,,,,499.98500000001513,,timeout,,,,healthy,,tomato.png,,,,,,,,,,,,,,,cherry tomato,,,,,,,,,,,,,,,,,,,,,,,,,,,,,,,,,,,,,,,,,,,,,,,,,,,,,,,,,false,,,,,,,,,164125.37999999995,164124.847,163624.939,163639.3549999998,163641.512,164141.497,,,,
Rating,html.Form,2_4_3_1_14_1,2021-05-24T16:11:32.460Z,,,,,,,,,,,,,,,,,,,,,,,,,,,,,,,,,,,,,,,,,,,,,,,,,,,,,,,,,,,,,,,,,,,,,,,,,,,,,,,,,,,,,,,,,,,,,,,,,,,,,,,,,,,,,,,,,,,,3376.8280000000086,,form submission,,,,healthy,,tomato.png,,,,,,,,,,,,,,,cherry tomato,,,,,,,,,,,,,,,,,,,,,,,,,,,,,,,,,,,,,,,,,,,,,,,,,,,,,,,,,false,,,,,,,,,167518.65499999985,167518.325,164124.847,164125.48500000002,164141.497,167524.477,,,,86
rating_sequence,flow.Sequence,2_4_3_1_14,2021-05-24T16:11:32.461Z,,,,,,,,,,,,,,,,,,,,,,,,,,,,,,,,,,,,,,,,,,,,,,,,,,,,,,,,,,,,,,,,,,,,,,,,,,,,,,,,,,,,,,,,,,,,,,,,,,,,,,,,,,,,,,,,,,,,3876.8130000000237,,completion,,,,healthy,,tomato.png,,,,,,,,,,,,,,,cherry tomato,,,,,,,,,,,,,,,,,,,,,,,,,,,,,,,,,,,,,,,,,,,,,,,,,,,,,,,,,false,,,,,,,,,167518.97499999995,167518.325,163624.939,163639.3149999999,163641.512,167524.477,,,,
fixCross,canvas.Screen,2_4_3_1_15_0,2021-05-24T16:11:32.950Z,,,,,,,,,,,,,,,,,,,,,,,,,,,,,,,,,,,,,,,,,,,,,,,,,,,,,,,,,,,,,,,,,,,,,,,,,,,,,,,,,,,,,,,,,,,,,,,,,,,,,,,,,,,,,,,,,,,,499.6359999999986,,timeout,,,,unhealthy,,chips.png,,,,,,,,,,,,,,,potato chip,,,,,,,,,,,,,,,,,,,,,,,,,,,,,,,,,,,,,,,,,,,,,,,,,,,,,,,,,false,,,,,,,,,168007.94499999983,168007.436,167507.537,167519.13000000012,167524.477,168024.113,,,,
Rating,html.Form,2_4_3_1_15_1,2021-05-24T16:11:36.236Z,,,,,,,,,,,,,,,,,,,,,,,,,,,,,,,,,,,,,,,,,,,,,,,,,,,,,,,,,,,,,,,,,,,,,,,,,,,,,,,,,,,,,,,,,,,,,,,,,,,,,,,,,,,,,,,,,,,,3270.1369999999006,,form submission,,,,unhealthy,,chips.png,,,,,,,,,,,,,,,potato chip,,,,,,,,,,,,,,,,,,,,,,,,,,,,,,,,,,,,,,,,,,,,,,,,,,,,,,,,,false,,,,,,,,,171294.5749999999,171294.2499999999,168007.436,168008.0600000001,168024.113,171306.798,,,,50
rating_sequence,flow.Sequence,2_4_3_1_15,2021-05-24T16:11:36.237Z,,,,,,,,,,,,,,,,,,,,,,,,,,,,,,,,,,,,,,,,,,,,,,,,,,,,,,,,,,,,,,,,,,,,,,,,,,,,,,,,,,,,,,,,,,,,,,,,,,,,,,,,,,,,,,,,,,,,3769.772999999899,,completion,,,,unhealthy,,chips.png,,,,,,,,,,,,,,,potato chip,,,,,,,,,,,,,,,,,,,,,,,,,,,,,,,,,,,,,,,,,,,,,,,,,,,,,,,,,false,,,,,,,,,171294.895,171294.2499999999,167507.537,167519.08000000002,167524.477,171306.798,,,,
fixCross,canvas.Screen,2_4_3_1_16_0,2021-05-24T16:11:36.732Z,,,,,,,,,,,,,,,,,,,,,,,,,,,,,,,,,,,,,,,,,,,,,,,,,,,,,,,,,,,,,,,,,,,,,,,,,,,,,,,,,,,,,,,,,,,,,,,,,,,,,,,,,,,,,,,,,,,,499.9079999999958,,timeout,,,,healthy,,edamame.png,,,,,,,,,,,,,,,edamame,,,,,,,,,,,,,,,,,,,,,,,,,,,,,,,,,,,,,,,,,,,,,,,,,,,,,,,,,false,,,,,,,,,171790.62999999998,171790.026,171290.202,171295.04499999984,171306.798,171806.706,,,,
Rating,html.Form,2_4_3_1_16_1,2021-05-24T16:11:41.101Z,,,,,,,,,,,,,,,,,,,,,,,,,,,,,,,,,,,,,,,,,,,,,,,,,,,,,,,,,,,,,,,,,,,,,,,,,,,,,,,,,,,,,,,,,,,,,,,,,,,,,,,,,,,,,,,,,,,,4351.76399999985,,form submission,,,,healthy,,edamame.png,,,,,,,,,,,,,,,edamame,,,,,,,,,,,,,,,,,,,,,,,,,,,,,,,,,,,,,,,,,,,,,,,,,,,,,,,,,false,,,,,,,,,176158.84000000005,176158.46999999986,171790.026,171790.7399999999,171806.706,176172.569,,,,56
rating_sequence,flow.Sequence,2_4_3_1_16,2021-05-24T16:11:41.101Z,,,,,,,,,,,,,,,,,,,,,,,,,,,,,,,,,,,,,,,,,,,,,,,,,,,,,,,,,,,,,,,,,,,,,,,,,,,,,,,,,,,,,,,,,,,,,,,,,,,,,,,,,,,,,,,,,,,,4851.671999999846,,completion,,,,healthy,,edamame.png,,,,,,,,,,,,,,,edamame,,,,,,,,,,,,,,,,,,,,,,,,,,,,,,,,,,,,,,,,,,,,,,,,,,,,,,,,,false,,,,,,,,,176159.18999999986,176158.46999999986,171290.202,171295.00000000006,171306.798,176172.569,,,,
fixCross,canvas.Screen,2_4_3_1_17_0,2021-05-24T16:11:41.598Z,,,,,,,,,,,,,,,,,,,,,,,,,,,,,,,,,,,,,,,,,,,,,,,,,,,,,,,,,,,,,,,,,,,,,,,,,,,,,,,,,,,,,,,,,,,,,,,,,,,,,,,,,,,,,,,,,,,,499.9000000000233,,timeout,,,,healthy,,celery.png,,,,,,,,,,,,,,,celery,,,,,,,,,,,,,,,,,,,,,,,,,,,,,,,,,,,,,,,,,,,,,,,,,,,,,,,,,false,,,,,,,,,176656.30499999996,176655.778,176155.929,176159.31,176172.569,176672.469,,,,
Rating,html.Form,2_4_3_1_17_1,2021-05-24T16:11:44.165Z,,,,,,,,,,,,,,,,,,,,,,,,,,,,,,,,,,,,,,,,,,,,,,,,,,,,,,,,,,,,,,,,,,,,,,,,,,,,,,,,,,,,,,,,,,,,,,,,,,,,,,,,,,,,,,,,,,,,2550.3810000000813,,form submission,,,,healthy,,celery.png,,,,,,,,,,,,,,,celery,,,,,,,,,,,,,,,,,,,,,,,,,,,,,,,,,,,,,,,,,,,,,,,,,,,,,,,,,false,,,,,,,,,179223.24500000014,179222.8500000001,176655.778,176656.41499999992,176672.469,179271.973,,,,39
rating_sequence,flow.Sequence,2_4_3_1_17,2021-05-24T16:11:44.165Z,,,,,,,,,,,,,,,,,,,,,,,,,,,,,,,,,,,,,,,,,,,,,,,,,,,,,,,,,,,,,,,,,,,,,,,,,,,,,,,,,,,,,,,,,,,,,,,,,,,,,,,,,,,,,,,,,,,,3050.2810000001045,,completion,,,,healthy,,celery.png,,,,,,,,,,,,,,,celery,,,,,,,,,,,,,,,,,,,,,,,,,,,,,,,,,,,,,,,,,,,,,,,,,,,,,,,,,false,,,,,,,,,179223.52999999977,179222.8500000001,176155.929,176159.27499999997,176172.569,179271.973,,,,
rating_loop,flow.Loop,2_4_3_1,2021-05-24T16:11:44.165Z,,,,,,,,,,,,,,,,,,,,,,,,,,,,,,,,,,,,,,,,,,,,,,,,,,,,,,,,,,,,,,,,,,,,,,,,,,,,,,,,,,,,,,,,,,,,,,,,,,,,,,,,,,,,,,,,,,,,68054.7060000001,,completion,,,,,,,,,,,,,,,,,,,,,,,,,,,,,,,,,,,,,,,,,,,,,,,,,,,,,,,,,,,,,,,,,,,,,,,,,,,,,,false,,,,,,,,,179223.68000000005,179222.8500000001,111151.562,111167.25499999984,111168.144,179271.973,,,,
data_transmission,html.Screen,2_4_3_2,2021-05-24T16:11:44.174Z,,,,,,,,,,,,,,,,,,,,,,,,,,,,,,,,,,,,,,,,,,,,,,,,,,,,,,,,,,,,,,,,,,,,,,,,,,,,,,,,,,,,,,,,,,,,,,,,,,,,,,,,,,,,,,,,,,,,NaN,,no compatible backend,,,,,,,,,,,,,,,Transferring data,,,,,,,,,,,,,,,,,,,,,,,,,,,,,,,,,,,,,,,,,,,,,,,,,,,,,,,,,,,,,,,false,,,Please wait a second…,,,,,,179232.6149999999,179232.4199999998,,179223.75999999986,,179271.973,,,,
instructions,html.Screen,2_4_3_3,2021-05-24T16:12:37.248Z,,,,,,,,,,,,,,,,,,,,,,,,,,,,,,,,,,,,,,,,,,,,,,,,,,,,,,,,,,,,,,,,,,,,,,,,,,,,,,,,,,,,,,,,,,,,,,,,,,,,,,,,,,,,,,,,,,,,53034.536999999895,,done,,,,,,,,,,,,,,,,,,,,,,,,,,,,,,,,,,,,,,,,,,,,,,,,,,,,,,,,,,,,,,,,,,,,,,,,,,,,,,false,,,,,,,,,232306.6749999998,232306.5099999999,179221.969,179232.73500000004,179271.973,232311.851,,,,
Q1,html.Screen,2_4_3_4_0,2021-05-24T16:12:51.478Z,,,,,,,,,,,,,,,,,,,,,,,,,,,,,,,,,,,,,,,,,,,,,,,,,,,,,,,,,,,,,,,,,,,,,,,,,,,,,,,,,,,,,,,,,,,,,,,,,,,,,,,,,,,,,,,,false,input_Q1==3,,,14222.558999999746,,response,,,,,,,,,,,,,,,,,,,,,,,,,Q1_i3,Q1_i2,Q1_i1,Q1_i4,3,2,1,4,correct,false,false,false,,,,,,,,,,,,,,,,,,,,,,,,,,,,,,,,,,,,,,,,,click #Q1_i3,false,,,,,,,,,246536.705,246534.40999999974,232295.833,232306.80500000017,232311.851,246542.492,,,,
Q1_correct,html.Screen,2_4_3_4_1,2021-05-24T16:12:53.152Z,,,,,,,,,,,,,,,,,,,,,,,,,,,,,,,,,,,,,,,,,,,,,,,,,,,,,,,,,,,,,,,,,,,,,,,,,,,,,,,,,,,,,,,,,,,,,,,,,,,,,,,,,,,,,,,,,,,,1667.0580000000482,,response,,,,,,,,,,,,,,,,,,,,,,,,,,,,,,,,,,,,,,,,,,,,,,,,,,,,,,,,,,,,,,,,,,,,,,,,,,,,,keypress,false,,,,,,,,,248210.27000000005,248209.55000000005,246525.847,246536.8450000001,246542.492,248225.513,,,,
Q2,html.Screen,2_4_3_4_2,2021-05-24T16:12:58.613Z,,,,,,,,,,,,,,,,,,,,,,,,,,,,,,,,,,,,,,,,,,,,,,,,,,,,,,,,,,,,,,,,,,,,,,,,,,,,,,,,,,,,,,,,,,,,,,,,,,,,,,,,,,,,,,,,,,,,5444.952000000136,,response,,,,,,,,,,,,,,,,,,,,,,,,,,,,,,,,,,,,,Q2_i3,Q2_i1,Q2_i2,Same amount,Option 1,Option 2,same,correct,opt2,,,,,,,,,,,,,,,,,,,,,,,,,,,,,,,,click #Q2_i1,false,,,,,,,,,253671.22500000003,253670.46500000014,248209.019,248210.37500000012,248225.513,253674.481,,,,
Q2_correct,html.Screen,2_4_3_4_3,2021-05-24T16:12:59.938Z,,,,,,,,,,,,,,,,,,,,,,,,,,,,,,,,,,,,,,,,,,,,,,,,,,,,,,,,,,,,,,,,,,,,,,,,,,,,,,,,,,,,,,,,,,,,,,,,,,,,,,,,,,,,,,,,,,,,1320.6890000001586,,response,,,,,,,,,,,,,,,,,,,,,,,,,,,,,,,,,,,,,,,,,,,,,,,,,,,,,,,,,,,,,,,,,,,,,,,,,,,,,keypress,false,,,,,,,,,254995.77499999988,254995.17000000016,253657.89,253671.3599999998,253674.481,255007.579,,,,
Q4,html.Screen,2_4_3_4_4,2021-05-24T16:13:09.533Z,,,,,,,,,,,,,,,,,,,,,,,,,,,,,,,,,,,,,,,,,,,,,,,,,,,,,,,,,,,,,,,,,,,,,,,,,,,,,,,,,,,,,,,,,,,,,,,,,,,,,,,,,,,,,,,,,,,,9583.106000000116,,response,,,,,,,,,,,,,,,,,,,,,,,,,,,,,,,,,,,,,,,,,,,,,,Q4_i3,Q4_i2,Q4_i4,Q4_i1,Press the arrow key that corresponds with the snack option with more food items,Indicate the number of food items in each snack option,Press the space key,Press the arrow key that corresponds with the snack option I prefer,morefood,indicate,pressspace,correct,,,,,,,,,,,,,,,,,,,,click #Q4_i1,false,,,,,,,,,264591.5749999999,264590.6850000001,254991.106,254995.89000000013,255007.579,264605.81,,,,
Q4_correct,html.Screen,2_4_3_4_5,2021-05-24T16:13:10.509Z,,,,,,,,,,,,,,,,,,,,,,,,,,,,,,,,,,,,,,,,,,,,,,,,,,,,,,,,,,,,,,,,,,,,,,,,,,,,,,,,,,,,,,,,,,,,,,,,,,,,,,,,,,,,,,,,,,,,960.3250000000116,,response,,,,,,,,,,,,,,,,,,,,,,,,,,,,,,,,,,,,,,,,,,,,,,,,,,,,,,,,,,,,,,,,,,,,,,,,,,,,,keypress,false,,,,,,,,,265566.74999999994,265566.135,264589.157,264591.715,264605.81,265572.241,,,,
Q5,html.Screen,2_4_3_4_6,2021-05-24T16:13:27.998Z,,,,,,,,,,,,,,,,,,,,,,,,,,,,,,,,,,,,,,,,,,,,,,,,,,,,,,,,,,,,,,,,,,,,,,,,,,,,,,,,,,,,,,,,,,,,,,,,,,,,,,,,,,,,,,,,,,,,17482.63900000014,,response,,,,,,,,,,,,,,,,,,,,,,,,,,,,,,,,,,,,,,,,,,,,,,,,,,,,,,,,,,Q5_i4,Q5_i3,Q5_i1,Q5_i2,Snack Option 1 has been chosen,There are more slices of kiwi in snack Option 1,Snack Option 2 has been chosen,There are more pieces of chocolate in snack Option 2,chose1,morekiwi1,correct,morechoc2,,,,,,,,click #Q5_i1,false,,,,,,,,,283055.78500000003,283054.8800000001,265555.685,265566.8350000001,265572.241,283068.971,,,,
Q5_correct,html.Screen,2_4_3_4_7,2021-05-24T16:13:29.354Z,,,,,,,,,,,,,,,,,,,,,,,,,,,,,,,,,,,,,,,,,,,,,,,,,,,,,,,,,,,,,,,,,,,,,,,,,,,,,,,,,,,,,,,,,,,,,,,,,,,,,,,,,,,,,,,,,,,,1342.933999999892,,response,,,,,,,,,,,,,,,,,,,,,,,,,,,,,,,,,,,,,,,,,,,,,,,,,,,,,,,,,,,,,,,,,,,,,,,,,,,,,keypress,false,,,,,,,,,284412.4999999999,284411.9049999999,283052.313,283055.96000000014,283068.971,284418.788,,,,
practice_sequence,flow.Sequence,2_4_3_4,2021-05-24T16:13:29.354Z,,,,,,,,,,,,,,,,,,,,,,,,,,,,,,,,,,,,,,,,,,,,,,,,,,,,,,,,,,,,,,,,,,,,,,,,,,,,,,,,,,,,,,,,,,,,,,,,,,,,,,,,,,,,,,,,,,,,52100.05399999992,,completion,,,,,,,,,,,,,,,,,,,,,,,,,,,,,,,,,,,,,,,,,,,,,,,,,,,,,,,,,,,,,,,,,,,,,,,,,,,,,,false,,,,,,,,,284412.67500000005,284411.9049999999,232295.833,232306.77000000014,232311.851,284418.788,,,,
final_instru,html.Screen,2_4_3_5,2021-05-24T16:13:46.208Z,,,,,,,,,,,,,,,,,,,,,,,,,,,,,,,,,,,,,,,,,,,,,,,,,,,,,,,,,,,,,,,,,,,,,,,,,,,,,,,,,,,,,,,,,,,,,,,,,,,,,,,,,,,,,,,,,,,,16847.15199999977,,done,,,,,,,,,,,,,,,,,,,,,,,,,,,,,,,,,,,,,,,,,,,,,,,,,,,,,,,,,,,,,,,,,,,,,,,,,,,,,,false,,,,,,,,,301266.13,301265.93999999977,284402.204,284412.7450000001,284418.788,301282.188,,,,
blank_screen,canvas.Screen,2_4_3_6_0,2021-05-24T16:13:48.208Z,,,,,,,,,,,,,,,,,,,,,,,,,,,,,,,,,,,,,,,,,,,,,,,,,,,,,,,,,,,,,,,,,,,,,,,,,,,,,,,,,,,,,,,,,,,,,,,,,,,,,,,,,,,,,,,,,,,,2032.8949999999604,,timeout,,,,,,,,,,,,,,,,,,,,,,,,,,,,,,,,,,,,,,,,,,,,,,,,,,,,,,,,,,,,,,,,,,,,,,,,,,,,,,false,,,,,,,,,303265.71000000014,303265.183,301266.102,301266.2649999997,301282.188,303315.083,,,,
fixCross,canvas.Screen,2_4_3_6_1_0_0_0_0_0_0,2021-05-24T16:13:48.741Z,,,blank.png,"[""ham.png""]",blank.png,blank.png,blank.png,blank.png,blank.png,blank.png,blank.png,blank.png,blank.png,blank.png,blank.png,,,,,,,,,,,,,,,,,,,,,,,,,,,,,"[""ham.png""]","[""tomato.png""]",PB17.png,,,,,,,,,,,0,6,"[""tomato.png""]","[""tomato.png""]","[""tomato.png""]","[""tomato.png""]","[""tomato.png""]","[""tomato.png""]",blank.png,PB18.png,PB18.png,"[""tomato.png""]","[""tomato.png""]","[""tomato.png""]","[""tomato.png""]","[""tomato.png""]","[""tomato.png""]","[""tomato.png""]","[""tomato.png""]","[""tomato.png""]","[""tomato.png""]","[""tomato.png""]","[""tomato.png""]",1,"[""ham.png""]",blank.png,blank.png,blank.png,6,"[""tomato.png""]","[""tomato.png""]","[""tomato.png""]","[""tomato.png""]","[""tomato.png""]","[""tomato.png""]",PB17.png,,,,,,,,,,,1,,,,,,,,,,,,,1016.5370000000112,,timeout,,,,,,,,,,,,,3,,,,,,,,,,,,,,,,,,,,,,,,,,,,,,,,,,,,,,,,,,,,,,,,,,,,,,,,,"[""tomato.png""]","[""ham.png""]",,,,2,,,false,,1,,,,,,,303799.07,303798.407,303265.183,303317.77999999985,303315.083,304331.62,1,,,
timeout,canvas.Screen,2_4_3_6_1_0_0_0_0_0_1,2021-05-24T16:13:49.757Z,,,blank.png,"[""ham.png""]",blank.png,blank.png,blank.png,blank.png,blank.png,blank.png,blank.png,blank.png,blank.png,blank.png,blank.png,,,,,,,,,,,,,,,,,,,,,,,,,,,,,"[""ham.png""]","[""tomato.png""]",PB17.png,,,,,,,,,,,0,6,"[""tomato.png""]","[""tomato.png""]","[""tomato.png""]","[""tomato.png""]","[""tomato.png""]","[""tomato.png""]",blank.png,PB18.png,PB18.png,"[""tomato.png""]","[""tomato.png""]","[""tomato.png""]","[""tomato.png""]","[""tomato.png""]","[""tomato.png""]","[""tomato.png""]","[""tomato.png""]","[""tomato.png""]","[""tomato.png""]","[""tomato.png""]","[""tomato.png""]",1,"[""ham.png""]",blank.png,blank.png,blank.png,6,"[""tomato.png""]","[""tomato.png""]","[""tomato.png""]","[""tomato.png""]","[""tomato.png""]","[""tomato.png""]",PB17.png,,,,,,,,,,,1,,,,,,,,,,,,,1133.0410000000265,,timeout,,,,,,,,,,,,,3,,,,,,,,,,,,,,,,,,,,,,,,,,,,,,,,,,,,,,,,,,,,,,,,,,,,,,,,,"[""tomato.png""]","[""ham.png""]",,,,2,,,false,,1,,,,,,,304815.57999999996,304814.846,303798.407,304447.4700000001,304331.62,305464.661,,,,
choice,canvas.Screen,2_4_3_6_1_0_0_0_0_0_2,2021-05-24T16:13:51.522Z,,,blank.png,"[""ham.png""]",blank.png,blank.png,blank.png,blank.png,blank.png,blank.png,blank.png,blank.png,blank.png,blank.png,blank.png,,,,,,,,,,,,,,,,,,,,,,,,,,,,,"[""ham.png""]","[""tomato.png""]",PB17.png,,,,,,,,,,,0,6,"[""tomato.png""]","[""tomato.png""]","[""tomato.png""]","[""tomato.png""]","[""tomato.png""]","[""tomato.png""]",blank.png,PB18.png,PB18.png,"[""tomato.png""]","[""tomato.png""]","[""tomato.png""]","[""tomato.png""]","[""tomato.png""]","[""tomato.png""]","[""tomato.png""]","[""tomato.png""]","[""tomato.png""]","[""tomato.png""]","[""tomato.png""]","[""tomato.png""]",1,"[""ham.png""]",blank.png,blank.png,blank.png,6,"[""tomato.png""]","[""tomato.png""]","[""tomato.png""]","[""tomato.png""]","[""tomato.png""]","[""tomato.png""]",PB17.png,,,,,,,,,,,1,,,,,,,,,,,,,1114.2739999999758,,response,,,,,,,,,,,,,3,,,,,,,,,,,,,,,,,,,,,,,,,,,,,,,,,,,,,,,,,,,,,,,,,,,,,,,,,"[""tomato.png""]","[""ham.png""]",,,,2,left,keydown(ArrowLeft),false,,1,,,,,,,306580.02499999973,306578.935,304814.846,305478.1950000001,305464.661,307197.646,,1,,
square,canvas.Screen,2_4_3_6_1_0_0_0_0_0_3,2021-05-24T16:13:53.124Z,,,blank.png,"[""ham.png""]",blank.png,blank.png,blank.png,blank.png,blank.png,blank.png,blank.png,blank.png,blank.png,blank.png,blank.png,,,,,,,,,,,,,,,,,,,,,,,,,,,,,"[""ham.png""]","[""tomato.png""]",PB17.png,,,,,,,,,,,0,6,"[""tomato.png""]","[""tomato.png""]","[""tomato.png""]","[""tomato.png""]","[""tomato.png""]","[""tomato.png""]",blank.png,PB18.png,PB18.png,"[""tomato.png""]","[""tomato.png""]","[""tomato.png""]","[""tomato.png""]","[""tomato.png""]","[""tomato.png""]","[""tomato.png""]","[""tomato.png""]","[""tomato.png""]","[""tomato.png""]","[""tomato.png""]","[""tomato.png""]",1,"[""ham.png""]",blank.png,blank.png,blank.png,6,"[""tomato.png""]","[""tomato.png""]","[""tomato.png""]","[""tomato.png""]","[""tomato.png""]","[""tomato.png""]",PB17.png,,,,,,,,,,,1,,,#33ff3f,#808080,,,,,,,,,999.8699999999953,,timeout,,,,,,,,,,,,,3,,,,,,,,,,,,,,,,,,,,,,,,,,,,,,,,,,,,,,,,,,,,,,,,,,,,,,,,,"[""tomato.png""]","[""ham.png""]",,,,2,,,false,,1,,,,,black,white,308181.8499999999,308180.891,307181.111,307188.6300000001,307197.646,308197.516,,,,
ITI_late,canvas.Screen,2_4_3_6_1_0_0_0_0_0_4,2021-05-24T16:13:53.623Z,,,blank.png,"[""ham.png""]",blank.png,blank.png,blank.png,blank.png,blank.png,blank.png,blank.png,blank.png,blank.png,blank.png,blank.png,,,,,,,,,,,,,,,,,,,,,,,,,,,,,"[""ham.png""]","[""tomato.png""]",PB17.png,,,,,,,,,,,0,6,"[""tomato.png""]","[""tomato.png""]","[""tomato.png""]","[""tomato.png""]","[""tomato.png""]","[""tomato.png""]",blank.png,PB18.png,PB18.png,"[""tomato.png""]","[""tomato.png""]","[""tomato.png""]","[""tomato.png""]","[""tomato.png""]","[""tomato.png""]","[""tomato.png""]","[""tomato.png""]","[""tomato.png""]","[""tomato.png""]","[""tomato.png""]","[""tomato.png""]",1,"[""ham.png""]",blank.png,blank.png,blank.png,6,"[""tomato.png""]","[""tomato.png""]","[""tomato.png""]","[""tomato.png""]","[""tomato.png""]","[""tomato.png""]",PB17.png,,,,,,,,,,,1,,,,,,,,,,,,,499.8769999999786,,timeout,,,,,,,,,,,,white,3,,,,,,,,,,,,,,,,,,,,,,,,,,,,,,,,,,,,,,,,,,,,,,,,,,,,,,,,,"[""tomato.png""]","[""ham.png""]",,,,2,,,false,,1,,,,,,,308681.39999999997,308680.745,308180.891,308183.8499999999,308197.516,308697.393,,,,
choice_sequence,flow.Sequence,2_4_3_6_1_0_0_0_0_0,2021-05-24T16:13:53.624Z,,,blank.png,"[""ham.png""]",blank.png,blank.png,blank.png,blank.png,blank.png,blank.png,blank.png,blank.png,blank.png,blank.png,blank.png,,,,,,,,,,,,,,,,,,,,,,,,,,,,,"[""ham.png""]","[""tomato.png""]",PB17.png,,,,,,,,,,,0,6,"[""tomato.png""]","[""tomato.png""]","[""tomato.png""]","[""tomato.png""]","[""tomato.png""]","[""tomato.png""]",blank.png,PB18.png,PB18.png,"[""tomato.png""]","[""tomato.png""]","[""tomato.png""]","[""tomato.png""]","[""tomato.png""]","[""tomato.png""]","[""tomato.png""]","[""tomato.png""]","[""tomato.png""]","[""tomato.png""]","[""tomato.png""]","[""tomato.png""]",1,"[""ham.png""]",blank.png,blank.png,blank.png,6,"[""tomato.png""]","[""tomato.png""]","[""tomato.png""]","[""tomato.png""]","[""tomato.png""]","[""tomato.png""]",PB17.png,,,,,,,,,,,1,,,,,,,,,,,,,5365.662000000011,,completion,,,,,,,,,,,,,3,,,,,,,,,,,,,,,,,,,,,,,,,,,,,,,,,,,,,,,,,,,,,,,,,,,,,,,,,"[""tomato.png""]","[""ham.png""]",,,,2,,,false,,1,,,,,,,308681.8499999999,308680.745,303265.183,303316.1300000002,303315.083,308697.393,,,,
fixCross,canvas.Screen,2_4_3_6_1_0_0_0_0_1_0,2021-05-24T16:13:54.123Z,,,blank.png,"[""ham.png""]",blank.png,blank.png,blank.png,blank.png,blank.png,blank.png,blank.png,blank.png,blank.png,blank.png,blank.png,,,,,,,,,,,,,,,,,,,,,,,,,,,,,"[""ham.png""]","[""tomato.png""]",PB14.png,,,,,,,,,,,0,6,"[""tomato.png""]","[""tomato.png""]","[""tomato.png""]","[""tomato.png""]","[""tomato.png""]","[""tomato.png""]",blank.png,PB18.png,PB18.png,"[""tomato.png""]","[""tomato.png""]","[""tomato.png""]",blank.png,blank.png,blank.png,"[""tomato.png""]","[""tomato.png""]","[""tomato.png""]","[""tomato.png""]","[""tomato.png""]","[""tomato.png""]",1,"[""ham.png""]",blank.png,blank.png,blank.png,3,"[""tomato.png""]","[""tomato.png""]","[""tomato.png""]",blank.png,blank.png,blank.png,PB14.png,,,,,,,,,,,1,,,,,,,,,,,,,1033.0929999999935,,timeout,,,,,,,,,,,,,3,,,,,,,,,,,,,,,,,,,,,,,,,,,,,,,,,,,,,,,,,,,,,,,,,,,,,,,,,"[""tomato.png""]","[""ham.png""]",,,,2,,,false,,1,,,,,,,309181.325,309180.705,308680.745,308686.54500000004,308697.393,309730.486,2,,,
timeout,canvas.Screen,2_4_3_6_1_0_0_0_0_1_1,2021-05-24T16:13:55.156Z,,,blank.png,"[""ham.png""]",blank.png,blank.png,blank.png,blank.png,blank.png,blank.png,blank.png,blank.png,blank.png,blank.png,blank.png,,,,,,,,,,,,,,,,,,,,,,,,,,,,,"[""ham.png""]","[""tomato.png""]",PB14.png,,,,,,,,,,,0,6,"[""tomato.png""]","[""tomato.png""]","[""tomato.png""]","[""tomato.png""]","[""tomato.png""]","[""tomato.png""]",blank.png,PB18.png,PB18.png,"[""tomato.png""]","[""tomato.png""]","[""tomato.png""]",blank.png,blank.png,blank.png,"[""tomato.png""]","[""tomato.png""]","[""tomato.png""]","[""tomato.png""]","[""tomato.png""]","[""tomato.png""]",1,"[""ham.png""]",blank.png,blank.png,blank.png,3,"[""tomato.png""]","[""tomato.png""]","[""tomato.png""]",blank.png,blank.png,blank.png,PB14.png,,,,,,,,,,,1,,,,,,,,,,,,,1049.8050000000512,,timeout,,,,,,,,,,,,,3,,,,,,,,,,,,,,,,,,,,,,,,,,,,,,,,,,,,,,,,,,,,,,,,,,,,,,,,,"[""tomato.png""]","[""ham.png""]",,,,2,,,false,,1,,,,,,,310214.4899999998,310213.788,309180.705,309736.175,309730.486,310780.291,,,,
choice,canvas.Screen,2_4_3_6_1_0_0_0_0_1_2,2021-05-24T16:13:57.220Z,,,blank.png,"[""ham.png""]",blank.png,blank.png,blank.png,blank.png,blank.png,blank.png,blank.png,blank.png,blank.png,blank.png,blank.png,,,,,,,,,,,,,,,,,,,,,,,,,,,,,"[""ham.png""]","[""tomato.png""]",PB14.png,,,,,,,,,,,0,6,"[""tomato.png""]","[""tomato.png""]","[""tomato.png""]","[""tomato.png""]","[""tomato.png""]","[""tomato.png""]",blank.png,PB18.png,PB18.png,"[""tomato.png""]","[""tomato.png""]","[""tomato.png""]",blank.png,blank.png,blank.png,"[""tomato.png""]","[""tomato.png""]","[""tomato.png""]","[""tomato.png""]","[""tomato.png""]","[""tomato.png""]",1,"[""ham.png""]",blank.png,blank.png,blank.png,3,"[""tomato.png""]","[""tomato.png""]","[""tomato.png""]",blank.png,blank.png,blank.png,PB14.png,,,,,,,,,,,1,,,,,,,,,,,,,1497.198999999906,,response,,,,,,,,,,,,,3,,,,,,,,,,,,,,,,,,,,,,,,,,,,,,,,,,,,,,,,,,,,,,,,,,,,,,,,,"[""tomato.png""]","[""ham.png""]",,,,2,left,keydown(ArrowLeft),false,,1,,,,,,,312278.51999999984,312277.48999999993,310213.788,310760.1300000001,310780.291,312813.229,,2,,
square,canvas.Screen,2_4_3_6_1_0_0_0_0_1_3,2021-05-24T16:13:58.739Z,,,blank.png,"[""ham.png""]",blank.png,blank.png,blank.png,blank.png,blank.png,blank.png,blank.png,blank.png,blank.png,blank.png,blank.png,,,,,,,,,,,,,,,,,,,,,,,,,,,,,"[""ham.png""]","[""tomato.png""]",PB14.png,,,,,,,,,,,0,6,"[""tomato.png""]","[""tomato.png""]","[""tomato.png""]","[""tomato.png""]","[""tomato.png""]","[""tomato.png""]",blank.png,PB18.png,PB18.png,"[""tomato.png""]","[""tomato.png""]","[""tomato.png""]",blank.png,blank.png,blank.png,"[""tomato.png""]","[""tomato.png""]","[""tomato.png""]","[""tomato.png""]","[""tomato.png""]","[""tomato.png""]",1,"[""ham.png""]",blank.png,blank.png,blank.png,3,"[""tomato.png""]","[""tomato.png""]","[""tomato.png""]",blank.png,blank.png,blank.png,PB14.png,,,,,,,,,,,1,,,#33ff3f,#808080,,,,,,,,,999.8699999999953,,timeout,,,,,,,,,,,,,3,,,,,,,,,,,,,,,,,,,,,,,,,,,,,,,,,,,,,,,,,,,,,,,,,,,,,,,,,"[""tomato.png""]","[""ham.png""]",,,,2,,,false,,1,,,,,black,white,313797.38499999983,313796.485,312796.74,312802.11499999993,312813.229,313813.099,,,,
ITI_late,canvas.Screen,2_4_3_6_1_0_0_0_0_1_4,2021-05-24T16:13:59.739Z,,,blank.png,"[""ham.png""]",blank.png,blank.png,blank.png,blank.png,blank.png,blank.png,blank.png,blank.png,blank.png,blank.png,blank.png,,,,,,,,,,,,,,,,,,,,,,,,,,,,,"[""ham.png""]","[""tomato.png""]",PB14.png,,,,,,,,,,,0,6,"[""tomato.png""]","[""tomato.png""]","[""tomato.png""]","[""tomato.png""]","[""tomato.png""]","[""tomato.png""]",blank.png,PB18.png,PB18.png,"[""tomato.png""]","[""tomato.png""]","[""tomato.png""]",blank.png,blank.png,blank.png,"[""tomato.png""]","[""tomato.png""]","[""tomato.png""]","[""tomato.png""]","[""tomato.png""]","[""tomato.png""]",1,"[""ham.png""]",blank.png,blank.png,blank.png,3,"[""tomato.png""]","[""tomato.png""]","[""tomato.png""]",blank.png,blank.png,blank.png,PB14.png,,,,,,,,,,,1,,,,,,,,,,,,,999.8080000000191,,timeout,,,,,,,,,,,,white,3,,,,,,,,,,,,,,,,,,,,,,,,,,,,,,,,,,,,,,,,,,,,,,,,,,,,,,,,,"[""tomato.png""]","[""ham.png""]",,,,2,,,false,,1,,,,,,,314796.9400000002,314796.238,313796.485,313799.58499999973,313813.099,314812.907,,,,
choice_sequence,flow.Sequence,2_4_3_6_1_0_0_0_0_1,2021-05-24T16:13:59.739Z,,,blank.png,"[""ham.png""]",blank.png,blank.png,blank.png,blank.png,blank.png,blank.png,blank.png,blank.png,blank.png,blank.png,blank.png,,,,,,,,,,,,,,,,,,,,,,,,,,,,,"[""ham.png""]","[""tomato.png""]",PB14.png,,,,,,,,,,,0,6,"[""tomato.png""]","[""tomato.png""]","[""tomato.png""]","[""tomato.png""]","[""tomato.png""]","[""tomato.png""]",blank.png,PB18.png,PB18.png,"[""tomato.png""]","[""tomato.png""]","[""tomato.png""]",blank.png,blank.png,blank.png,"[""tomato.png""]","[""tomato.png""]","[""tomato.png""]","[""tomato.png""]","[""tomato.png""]","[""tomato.png""]",1,"[""ham.png""]",blank.png,blank.png,blank.png,3,"[""tomato.png""]","[""tomato.png""]","[""tomato.png""]",blank.png,blank.png,blank.png,PB14.png,,,,,,,,,,,1,,,,,,,,,,,,,6098.84500000003,,completion,,,,,,,,,,,,,3,,,,,,,,,,,,,,,,,,,,,,,,,,,,,,,,,,,,,,,,,,,,,,,,,,,,,,,,,"[""tomato.png""]","[""ham.png""]",,,,2,,,false,,1,,,,,,,314797.415,314796.238,308680.745,308685.61,308697.393,314812.907,,,,
fixCross,canvas.Screen,2_4_3_6_1_0_0_0_0_2_0,2021-05-24T16:14:00.239Z,,,blank.png,"[""ham.png""]",blank.png,blank.png,blank.png,blank.png,blank.png,blank.png,blank.png,blank.png,blank.png,blank.png,blank.png,,,,,,,,,,,,,,,,,,,,,,,,,,,,,"[""ham.png""]","[""tomato.png""]",PB12.png,,,,,,,,,,,0,6,"[""tomato.png""]","[""tomato.png""]","[""tomato.png""]","[""tomato.png""]","[""tomato.png""]","[""tomato.png""]",blank.png,PB18.png,PB18.png,"[""tomato.png""]","[""tomato.png""]",blank.png,blank.png,blank.png,blank.png,"[""tomato.png""]","[""tomato.png""]","[""tomato.png""]","[""tomato.png""]","[""tomato.png""]","[""tomato.png""]",1,"[""ham.png""]",blank.png,blank.png,blank.png,2,"[""tomato.png""]","[""tomato.png""]",blank.png,blank.png,blank.png,blank.png,PB12.png,,,,,,,,,,,1,,,,,,,,,,,,,983.0819999999949,,timeout,,,,,,,,,,,,,3,,,,,,,,,,,,,,,,,,,,,,,,,,,,,,,,,,,,,,,,,,,,,,,,,,,,,,,,,"[""tomato.png""]","[""ham.png""]",,,,2,,,false,,1,,,,,,,315296.8299999998,315296.176,314796.238,314802.8549999999,314812.907,315795.989,3,,,
timeout,canvas.Screen,2_4_3_6_1_0_0_0_0_2_1,2021-05-24T16:14:01.222Z,,,blank.png,"[""ham.png""]",blank.png,blank.png,blank.png,blank.png,blank.png,blank.png,blank.png,blank.png,blank.png,blank.png,blank.png,,,,,,,,,,,,,,,,,,,,,,,,,,,,,"[""ham.png""]","[""tomato.png""]",PB12.png,,,,,,,,,,,0,6,"[""tomato.png""]","[""tomato.png""]","[""tomato.png""]","[""tomato.png""]","[""tomato.png""]","[""tomato.png""]",blank.png,PB18.png,PB18.png,"[""tomato.png""]","[""tomato.png""]",blank.png,blank.png,blank.png,blank.png,"[""tomato.png""]","[""tomato.png""]","[""tomato.png""]","[""tomato.png""]","[""tomato.png""]","[""tomato.png""]",1,"[""ham.png""]",blank.png,blank.png,blank.png,2,"[""tomato.png""]","[""tomato.png""]",blank.png,blank.png,blank.png,blank.png,PB12.png,,,,,,,,,,,1,,,,,,,,,,,,,999.8009999999776,,timeout,,,,,,,,,,,,,3,,,,,,,,,,,,,,,,,,,,,,,,,,,,,,,,,,,,,,,,,,,,,,,,,,,,,,,,,"[""tomato.png""]","[""ham.png""]",,,,2,,,false,,1,,,,,,,316280.0499999999,316279.33,315296.176,315803.58999999997,315795.989,316795.79,,,,
choice,canvas.Screen,2_4_3_6_1_0_0_0_0_2_2,2021-05-24T16:14:02.959Z,,,blank.png,"[""ham.png""]",blank.png,blank.png,blank.png,blank.png,blank.png,blank.png,blank.png,blank.png,blank.png,blank.png,blank.png,,,,,,,,,,,,,,,,,,,,,,,,,,,,,"[""ham.png""]","[""tomato.png""]",PB12.png,,,,,,,,,,,0,6,"[""tomato.png""]","[""tomato.png""]","[""tomato.png""]","[""tomato.png""]","[""tomato.png""]","[""tomato.png""]",blank.png,PB18.png,PB18.png,"[""tomato.png""]","[""tomato.png""]",blank.png,blank.png,blank.png,blank.png,"[""tomato.png""]","[""tomato.png""]","[""tomato.png""]","[""tomato.png""]","[""tomato.png""]","[""tomato.png""]",1,"[""ham.png""]",blank.png,blank.png,blank.png,2,"[""tomato.png""]","[""tomato.png""]",blank.png,blank.png,blank.png,blank.png,PB12.png,,,,,,,,,,,1,,,,,,,,,,,,,1218.7399999999325,,response,,,,,,,,,,,,,3,,,,,,,,,,,,,,,,,,,,,,,,,,,,,,,,,,,,,,,,,,,,,,,,,,,,,,,,,"[""tomato.png""]","[""ham.png""]",,,,2,left,keydown(ArrowLeft),false,,1,,,,,,,318016.9000000001,318014.5299999999,316279.33,316787.49500000005,316795.79,318528.873,,3,,
square,canvas.Screen,2_4_3_6_1_0_0_0_0_2_3,2021-05-24T16:14:04.455Z,,,blank.png,"[""ham.png""]",blank.png,blank.png,blank.png,blank.png,blank.png,blank.png,blank.png,blank.png,blank.png,blank.png,blank.png,,,,,,,,,,,,,,,,,,,,,,,,,,,,,"[""ham.png""]","[""tomato.png""]",PB12.png,,,,,,,,,,,0,6,"[""tomato.png""]","[""tomato.png""]","[""tomato.png""]","[""tomato.png""]","[""tomato.png""]","[""tomato.png""]",blank.png,PB18.png,PB18.png,"[""tomato.png""]","[""tomato.png""]",blank.png,blank.png,blank.png,blank.png,"[""tomato.png""]","[""tomato.png""]","[""tomato.png""]","[""tomato.png""]","[""tomato.png""]","[""tomato.png""]",1,"[""ham.png""]",blank.png,blank.png,blank.png,2,"[""tomato.png""]","[""tomato.png""]",blank.png,blank.png,blank.png,blank.png,PB12.png,,,,,,,,,,,1,,,#33ff3f,#808080,,,,,,,,,999.7359999999753,,timeout,,,,,,,,,,,,,3,,,,,,,,,,,,,,,,,,,,,,,,,,,,,,,,,,,,,,,,,,,,,,,,,,,,,,,,,"[""tomato.png""]","[""ham.png""]",,,,2,,,false,,1,,,,,black,white,319512.9299999999,319512.023,318495.592,318511.8699999998,318528.873,319528.609,,,,
ITI_late,canvas.Screen,2_4_3_6_1_0_0_0_0_2_4,2021-05-24T16:14:04.955Z,,,blank.png,"[""ham.png""]",blank.png,blank.png,blank.png,blank.png,blank.png,blank.png,blank.png,blank.png,blank.png,blank.png,blank.png,,,,,,,,,,,,,,,,,,,,,,,,,,,,,"[""ham.png""]","[""tomato.png""]",PB12.png,,,,,,,,,,,0,6,"[""tomato.png""]","[""tomato.png""]","[""tomato.png""]","[""tomato.png""]","[""tomato.png""]","[""tomato.png""]",blank.png,PB18.png,PB18.png,"[""tomato.png""]","[""tomato.png""]",blank.png,blank.png,blank.png,blank.png,"[""tomato.png""]","[""tomato.png""]","[""tomato.png""]","[""tomato.png""]","[""tomato.png""]","[""tomato.png""]",1,"[""ham.png""]",blank.png,blank.png,blank.png,2,"[""tomato.png""]","[""tomato.png""]",blank.png,blank.png,blank.png,blank.png,PB12.png,,,,,,,,,,,1,,,,,,,,,,,,,499.90600000001723,,timeout,,,,,,,,,,,,white,3,,,,,,,,,,,,,,,,,,,,,,,,,,,,,,,,,,,,,,,,,,,,,,,,,,,,,,,,,"[""tomato.png""]","[""ham.png""]",,,,2,,,false,,1,,,,,,,320012.67000000004,320011.903,319512.023,319514.67999999976,319528.609,320028.515,,,,
choice_sequence,flow.Sequence,2_4_3_6_1_0_0_0_0_2,2021-05-24T16:14:04.955Z,,,blank.png,"[""ham.png""]",blank.png,blank.png,blank.png,blank.png,blank.png,blank.png,blank.png,blank.png,blank.png,blank.png,blank.png,,,,,,,,,,,,,,,,,,,,,,,,,,,,,"[""ham.png""]","[""tomato.png""]",PB12.png,,,,,,,,,,,0,6,"[""tomato.png""]","[""tomato.png""]","[""tomato.png""]","[""tomato.png""]","[""tomato.png""]","[""tomato.png""]",blank.png,PB18.png,PB18.png,"[""tomato.png""]","[""tomato.png""]",blank.png,blank.png,blank.png,blank.png,"[""tomato.png""]","[""tomato.png""]","[""tomato.png""]","[""tomato.png""]","[""tomato.png""]","[""tomato.png""]",1,"[""ham.png""]",blank.png,blank.png,blank.png,2,"[""tomato.png""]","[""tomato.png""]",blank.png,blank.png,blank.png,blank.png,PB12.png,,,,,,,,,,,1,,,,,,,,,,,,,5198.995999999985,,completion,,,,,,,,,,,,,3,,,,,,,,,,,,,,,,,,,,,,,,,,,,,,,,,,,,,,,,,,,,,,,,,,,,,,,,,"[""tomato.png""]","[""ham.png""]",,,,2,,,false,,1,,,,,,,320013.16,320011.903,314796.238,314801.91999999987,314812.907,320028.515,,,,
fixCross,canvas.Screen,2_4_3_6_1_0_0_0_0_3_0,2021-05-24T16:14:05.604Z,,,blank.png,blank.png,blank.png,blank.png,blank.png,blank.png,blank.png,"[""ham.png""]",blank.png,blank.png,blank.png,blank.png,blank.png,,,,,,,,,,,,,,,,,,,,,,,,,,,,,"[""ham.png""]","[""tomato.png""]",PB18.png,,,,,,,,,,,0,6,"[""tomato.png""]","[""tomato.png""]","[""tomato.png""]","[""tomato.png""]","[""tomato.png""]","[""tomato.png""]",blank.png,PB18.png,PB01.png,"[""tomato.png""]","[""tomato.png""]","[""tomato.png""]","[""tomato.png""]","[""tomato.png""]","[""tomato.png""]",blank.png,blank.png,blank.png,blank.png,blank.png,blank.png,1,"[""ham.png""]",blank.png,blank.png,blank.png,0,blank.png,blank.png,blank.png,blank.png,blank.png,blank.png,PB01.png,,,,,,,,,,,1,,,,,,,,,,,,,1083.109999999986,,timeout,,,,,,,,,,,,,4,,,,,,,,,,,,,,,,,,,,,,,,,,,,,,,,,,,,,,,,,,,,,,,,,,,,,,,,,"[""tomato.png""]","[""ham.png""]",,,,2,,,false,,1,,,,,,,320662.49000000017,320661.759,320011.903,320018.12500000006,320028.515,321111.625,4,,,
timeout,canvas.Screen,2_4_3_6_1_0_0_0_0_3_1,2021-05-24T16:14:06.538Z,,,blank.png,blank.png,blank.png,blank.png,blank.png,blank.png,blank.png,"[""ham.png""]",blank.png,blank.png,blank.png,blank.png,blank.png,,,,,,,,,,,,,,,,,,,,,,,,,,,,,"[""ham.png""]","[""tomato.png""]",PB18.png,,,,,,,,,,,0,6,"[""tomato.png""]","[""tomato.png""]","[""tomato.png""]","[""tomato.png""]","[""tomato.png""]","[""tomato.png""]",blank.png,PB18.png,PB01.png,"[""tomato.png""]","[""tomato.png""]","[""tomato.png""]","[""tomato.png""]","[""tomato.png""]","[""tomato.png""]",blank.png,blank.png,blank.png,blank.png,blank.png,blank.png,1,"[""ham.png""]",blank.png,blank.png,blank.png,0,blank.png,blank.png,blank.png,blank.png,blank.png,blank.png,PB01.png,,,,,,,,,,,1,,,,,,,,,,,,,949.8709999999846,,timeout,,,,,,,,,,,,,4,,,,,,,,,,,,,,,,,,,,,,,,,,,,,,,,,,,,,,,,,,,,,,,,,,,,,,,,,"[""tomato.png""]","[""ham.png""]",,,,2,,,false,,1,,,,,,,321595.6449999999,321594.923,320661.759,321119.3450000001,321111.625,322061.496,,,,
choice,canvas.Screen,2_4_3_6_1_0_0_0_0_3_2,2021-05-24T16:14:07.978Z,,,blank.png,blank.png,blank.png,blank.png,blank.png,blank.png,blank.png,"[""ham.png""]",blank.png,blank.png,blank.png,blank.png,blank.png,,,,,,,,,,,,,,,,,,,,,,,,,,,,,"[""ham.png""]","[""tomato.png""]",PB18.png,,,,,,,,,,,0,6,"[""tomato.png""]","[""tomato.png""]","[""tomato.png""]","[""tomato.png""]","[""tomato.png""]","[""tomato.png""]",blank.png,PB18.png,PB01.png,"[""tomato.png""]","[""tomato.png""]","[""tomato.png""]","[""tomato.png""]","[""tomato.png""]","[""tomato.png""]",blank.png,blank.png,blank.png,blank.png,blank.png,blank.png,1,"[""ham.png""]",blank.png,blank.png,blank.png,0,blank.png,blank.png,blank.png,blank.png,blank.png,blank.png,PB01.png,,,,,,,,,,,1,,,,,,,,,,,,,973.863999999885,,response,,,,,,,,,,,,,4,,,,,,,,,,,,,,,,,,,,,,,,,,,,,,,,,,,,,,,,,,,,,,,,,,,,,,,,,"[""tomato.png""]","[""ham.png""]",,,,2,left,keydown(ArrowLeft),false,,1,,,,,,,323036.45000000007,323035.35999999987,321594.923,322048.9400000001,322061.496,323477.836,,4,,
square,canvas.Screen,2_4_3_6_1_0_0_0_0_3_3,2021-05-24T16:14:09.404Z,,,blank.png,blank.png,blank.png,blank.png,blank.png,blank.png,blank.png,"[""ham.png""]",blank.png,blank.png,blank.png,blank.png,blank.png,,,,,,,,,,,,,,,,,,,,,,,,,,,,,"[""ham.png""]","[""tomato.png""]",PB18.png,,,,,,,,,,,0,6,"[""tomato.png""]","[""tomato.png""]","[""tomato.png""]","[""tomato.png""]","[""tomato.png""]","[""tomato.png""]",blank.png,PB18.png,PB01.png,"[""tomato.png""]","[""tomato.png""]","[""tomato.png""]","[""tomato.png""]","[""tomato.png""]","[""tomato.png""]",blank.png,blank.png,blank.png,blank.png,blank.png,blank.png,1,"[""ham.png""]",blank.png,blank.png,blank.png,0,blank.png,blank.png,blank.png,blank.png,blank.png,blank.png,PB01.png,,,,,,,,,,,1,,,#33ff3f,#808080,,,,,,,,,999.8910000000033,,timeout,,,,,,,,,,,,,4,,,,,,,,,,,,,,,,,,,,,,,,,,,,,,,,,,,,,,,,,,,,,,,,,,,,,,,,,"[""tomato.png""]","[""ham.png""]",,,,2,,,false,,1,,,,,black,white,324461.98000000004,324461.056,323461.28,323473.9599999998,323477.836,324477.727,,,,
ITI_late,canvas.Screen,2_4_3_6_1_0_0_0_0_3_4,2021-05-24T16:14:09.653Z,,,blank.png,blank.png,blank.png,blank.png,blank.png,blank.png,blank.png,"[""ham.png""]",blank.png,blank.png,blank.png,blank.png,blank.png,,,,,,,,,,,,,,,,,,,,,,,,,,,,,"[""ham.png""]","[""tomato.png""]",PB18.png,,,,,,,,,,,0,6,"[""tomato.png""]","[""tomato.png""]","[""tomato.png""]","[""tomato.png""]","[""tomato.png""]","[""tomato.png""]",blank.png,PB18.png,PB01.png,"[""tomato.png""]","[""tomato.png""]","[""tomato.png""]","[""tomato.png""]","[""tomato.png""]","[""tomato.png""]",blank.png,blank.png,blank.png,blank.png,blank.png,blank.png,1,"[""ham.png""]",blank.png,blank.png,blank.png,0,blank.png,blank.png,blank.png,blank.png,blank.png,blank.png,PB01.png,,,,,,,,,,,1,,,,,,,,,,,,,249.92699999996694,,timeout,,,,,,,,,,,,white,4,,,,,,,,,,,,,,,,,,,,,,,,,,,,,,,,,,,,,,,,,,,,,,,,,,,,,,,,,"[""tomato.png""]","[""ham.png""]",,,,2,,,false,,1,,,,,,,324711.6350000001,324711.031,324461.056,324464.11499999976,324477.727,324727.654,,,,
choice_sequence,flow.Sequence,2_4_3_6_1_0_0_0_0_3,2021-05-24T16:14:09.654Z,,,blank.png,blank.png,blank.png,blank.png,blank.png,blank.png,blank.png,"[""ham.png""]",blank.png,blank.png,blank.png,blank.png,blank.png,,,,,,,,,,,,,,,,,,,,,,,,,,,,,"[""ham.png""]","[""tomato.png""]",PB18.png,,,,,,,,,,,0,6,"[""tomato.png""]","[""tomato.png""]","[""tomato.png""]","[""tomato.png""]","[""tomato.png""]","[""tomato.png""]",blank.png,PB18.png,PB01.png,"[""tomato.png""]","[""tomato.png""]","[""tomato.png""]","[""tomato.png""]","[""tomato.png""]","[""tomato.png""]",blank.png,blank.png,blank.png,blank.png,blank.png,blank.png,1,"[""ham.png""]",blank.png,blank.png,blank.png,0,blank.png,blank.png,blank.png,blank.png,blank.png,blank.png,PB01.png,,,,,,,,,,,1,,,,,,,,,,,,,4682.516000000003,,completion,,,,,,,,,,,,,4,,,,,,,,,,,,,,,,,,,,,,,,,,,,,,,,,,,,,,,,,,,,,,,,,,,,,,,,,"[""tomato.png""]","[""ham.png""]",,,,2,,,false,,1,,,,,,,324712.09999999974,324711.031,320011.903,320017.19,320028.515,324727.654,,,,
fixCross,canvas.Screen,2_4_3_6_1_0_0_0_0_4_0,2021-05-24T16:14:10.253Z,,,blank.png,blank.png,blank.png,blank.png,blank.png,blank.png,blank.png,"[""ham.png""]",blank.png,blank.png,blank.png,blank.png,blank.png,,,,,,,,,,,,,,,,,,,,,,,,,,,,,"[""ham.png""]","[""tomato.png""]",PB18.png,,,,,,,,,,,0,6,"[""tomato.png""]","[""tomato.png""]","[""tomato.png""]","[""tomato.png""]","[""tomato.png""]","[""tomato.png""]",blank.png,PB18.png,PB16.png,"[""tomato.png""]","[""tomato.png""]","[""tomato.png""]","[""tomato.png""]","[""tomato.png""]","[""tomato.png""]","[""tomato.png""]","[""tomato.png""]","[""tomato.png""]","[""tomato.png""]","[""tomato.png""]",blank.png,1,"[""ham.png""]",blank.png,blank.png,blank.png,5,"[""tomato.png""]","[""tomato.png""]","[""tomato.png""]","[""tomato.png""]","[""tomato.png""]",blank.png,PB16.png,,,,,,,,,,,1,,,,,,,,,,,,,1166.369000000006,,timeout,,,,,,,,,,,,,4,,,,,,,,,,,,,,,,,,,,,,,,,,,,,,,,,,,,,,,,,,,,,,,,,,,,,,,,,"[""tomato.png""]","[""ham.png""]",,,,2,,,false,,1,,,,,,,325311.5499999999,325310.892,324711.031,324716.6649999999,324727.654,325894.023,5,,,
timeout,canvas.Screen,2_4_3_6_1_0_0_0_0_4_1,2021-05-24T16:14:11.320Z,,,blank.png,blank.png,blank.png,blank.png,blank.png,blank.png,blank.png,"[""ham.png""]",blank.png,blank.png,blank.png,blank.png,blank.png,,,,,,,,,,,,,,,,,,,,,,,,,,,,,"[""ham.png""]","[""tomato.png""]",PB18.png,,,,,,,,,,,0,6,"[""tomato.png""]","[""tomato.png""]","[""tomato.png""]","[""tomato.png""]","[""tomato.png""]","[""tomato.png""]",blank.png,PB18.png,PB16.png,"[""tomato.png""]","[""tomato.png""]","[""tomato.png""]","[""tomato.png""]","[""tomato.png""]","[""tomato.png""]","[""tomato.png""]","[""tomato.png""]","[""tomato.png""]","[""tomato.png""]","[""tomato.png""]",blank.png,1,"[""ham.png""]",blank.png,blank.png,blank.png,5,"[""tomato.png""]","[""tomato.png""]","[""tomato.png""]","[""tomato.png""]","[""tomato.png""]",blank.png,PB16.png,,,,,,,,,,,1,,,,,,,,,,,,,1099.844000000041,,timeout,,,,,,,,,,,,,4,,,,,,,,,,,,,,,,,,,,,,,,,,,,,,,,,,,,,,,,,,,,,,,,,,,,,,,,,"[""tomato.png""]","[""ham.png""]",,,,2,,,false,,1,,,,,,,326378.0699999998,326377.357,325310.892,325903.41499999975,325894.023,326993.867,,,,
choice,canvas.Screen,2_4_3_6_1_0_0_0_0_4_2,2021-05-24T16:14:12.041Z,,,blank.png,blank.png,blank.png,blank.png,blank.png,blank.png,blank.png,"[""ham.png""]",blank.png,blank.png,blank.png,blank.png,blank.png,,,,,,,,,,,,,,,,,,,,,,,,,,,,,"[""ham.png""]","[""tomato.png""]",PB18.png,,,,,,,,,,,0,6,"[""tomato.png""]","[""tomato.png""]","[""tomato.png""]","[""tomato.png""]","[""tomato.png""]","[""tomato.png""]",blank.png,PB18.png,PB16.png,"[""tomato.png""]","[""tomato.png""]","[""tomato.png""]","[""tomato.png""]","[""tomato.png""]","[""tomato.png""]","[""tomato.png""]","[""tomato.png""]","[""tomato.png""]","[""tomato.png""]","[""tomato.png""]",blank.png,1,"[""ham.png""]",blank.png,blank.png,blank.png,5,"[""tomato.png""]","[""tomato.png""]","[""tomato.png""]","[""tomato.png""]","[""tomato.png""]",blank.png,PB16.png,,,,,,,,,,,1,,,,,,,,,,,,,103.81299999984913,,response,,,,,,,,,,,,,4,,,,,,,,,,,,,,,,,,,,,,,,,,,,,,,,,,,,,,,,,,,,,,,,,,,,,,,,,"[""tomato.png""]","[""ham.png""]",,,,2,right,keydown(ArrowRight),false,,1,,,,,,,327098.86499999993,327097.6799999999,326377.357,326986.2250000001,326993.867,327693.745,,5,,
square,canvas.Screen,2_4_3_6_1_0_0_0_0_4_3,2021-05-24T16:14:13.620Z,,,blank.png,blank.png,blank.png,blank.png,blank.png,blank.png,blank.png,"[""ham.png""]",blank.png,blank.png,blank.png,blank.png,blank.png,,,,,,,,,,,,,,,,,,,,,,,,,,,,,"[""ham.png""]","[""tomato.png""]",PB18.png,,,,,,,,,,,0,6,"[""tomato.png""]","[""tomato.png""]","[""tomato.png""]","[""tomato.png""]","[""tomato.png""]","[""tomato.png""]",blank.png,PB18.png,PB16.png,"[""tomato.png""]","[""tomato.png""]","[""tomato.png""]","[""tomato.png""]","[""tomato.png""]","[""tomato.png""]","[""tomato.png""]","[""tomato.png""]","[""tomato.png""]","[""tomato.png""]","[""tomato.png""]",blank.png,1,"[""ham.png""]",blank.png,blank.png,blank.png,5,"[""tomato.png""]","[""tomato.png""]","[""tomato.png""]","[""tomato.png""]","[""tomato.png""]",blank.png,PB16.png,,,,,,,,,,,1,,,#808080,#33ff3f,,,,,,,,,999.7800000000279,,timeout,,,,,,,,,,,,,4,,,,,,,,,,,,,,,,,,,,,,,,,,,,,,,,,,,,,,,,,,,,,,,,,,,,,,,,,"[""tomato.png""]","[""ham.png""]",,,,2,,,false,,1,,,,,white,black,328677.77999999997,328676.901,327677.046,327686.5149999999,327693.745,328693.525,,,,
ITI_late,canvas.Screen,2_4_3_6_1_0_0_0_0_4_4,2021-05-24T16:14:14.369Z,,,blank.png,blank.png,blank.png,blank.png,blank.png,blank.png,blank.png,"[""ham.png""]",blank.png,blank.png,blank.png,blank.png,blank.png,,,,,,,,,,,,,,,,,,,,,,,,,,,,,"[""ham.png""]","[""tomato.png""]",PB18.png,,,,,,,,,,,0,6,"[""tomato.png""]","[""tomato.png""]","[""tomato.png""]","[""tomato.png""]","[""tomato.png""]","[""tomato.png""]",blank.png,PB18.png,PB16.png,"[""tomato.png""]","[""tomato.png""]","[""tomato.png""]","[""tomato.png""]","[""tomato.png""]","[""tomato.png""]","[""tomato.png""]","[""tomato.png""]","[""tomato.png""]","[""tomato.png""]","[""tomato.png""]",blank.png,1,"[""ham.png""]",blank.png,blank.png,blank.png,5,"[""tomato.png""]","[""tomato.png""]","[""tomato.png""]","[""tomato.png""]","[""tomato.png""]",blank.png,PB16.png,,,,,,,,,,,1,,,,,,,,,,,,,749.8800000000047,,timeout,,,,,,,,,,,,white,4,,,,,,,,,,,,,,,,,,,,,,,,,,,,,,,,,,,,,,,,,,,,,,,,,,,,,,,,,"[""tomato.png""]","[""ham.png""]",,,,2,,,false,,1,,,,,,,329427.49000000005,329426.784,328676.901,328679.7000000001,328693.525,329443.405,,,,
choice_sequence,flow.Sequence,2_4_3_6_1_0_0_0_0_4,2021-05-24T16:14:14.370Z,,,blank.png,blank.png,blank.png,blank.png,blank.png,blank.png,blank.png,"[""ham.png""]",blank.png,blank.png,blank.png,blank.png,blank.png,,,,,,,,,,,,,,,,,,,,,,,,,,,,,"[""ham.png""]","[""tomato.png""]",PB18.png,,,,,,,,,,,0,6,"[""tomato.png""]","[""tomato.png""]","[""tomato.png""]","[""tomato.png""]","[""tomato.png""]","[""tomato.png""]",blank.png,PB18.png,PB16.png,"[""tomato.png""]","[""tomato.png""]","[""tomato.png""]","[""tomato.png""]","[""tomato.png""]","[""tomato.png""]","[""tomato.png""]","[""tomato.png""]","[""tomato.png""]","[""tomato.png""]","[""tomato.png""]",blank.png,1,"[""ham.png""]",blank.png,blank.png,blank.png,5,"[""tomato.png""]","[""tomato.png""]","[""tomato.png""]","[""tomato.png""]","[""tomato.png""]",blank.png,PB16.png,,,,,,,,,,,1,,,,,,,,,,,,,4699.130000000005,,completion,,,,,,,,,,,,,4,,,,,,,,,,,,,,,,,,,,,,,,,,,,,,,,,,,,,,,,,,,,,,,,,,,,,,,,,"[""tomato.png""]","[""ham.png""]",,,,2,,,false,,1,,,,,,,329427.95999999996,329426.784,324711.031,324715.77500000014,324727.654,329443.405,,,,
fixCross,canvas.Screen,2_4_3_6_1_0_0_0_0_5_0,2021-05-24T16:14:14.619Z,,,blank.png,"[""ham.png""]",blank.png,blank.png,blank.png,blank.png,blank.png,blank.png,blank.png,blank.png,blank.png,blank.png,blank.png,,,,,,,,,,,,,,,,,,,,,,,,,,,,,"[""ham.png""]","[""tomato.png""]",PB07.png,,,,,,,,,,,0,6,"[""tomato.png""]","[""tomato.png""]","[""tomato.png""]","[""tomato.png""]","[""tomato.png""]","[""tomato.png""]",blank.png,PB18.png,PB18.png,"[""tomato.png""]",blank.png,blank.png,blank.png,blank.png,blank.png,"[""tomato.png""]","[""tomato.png""]","[""tomato.png""]","[""tomato.png""]","[""tomato.png""]","[""tomato.png""]",1,"[""ham.png""]",blank.png,blank.png,blank.png,1,"[""tomato.png""]",blank.png,blank.png,blank.png,blank.png,blank.png,PB07.png,,,,,,,,,,,1,,,,,,,,,,,,,716.4599999999627,,timeout,,,,,,,,,,,,,3,,,,,,,,,,,,,,,,,,,,,,,,,,,,,,,,,,,,,,,,,,,,,,,,,,,,,,,,,"[""tomato.png""]","[""ham.png""]",,,,2,,,false,,1,,,,,,,329677.27000000014,329676.676,329426.784,329432.52500000014,329443.405,330159.865,6,,,
timeout,canvas.Screen,2_4_3_6_1_0_0_0_0_5_1,2021-05-24T16:14:15.586Z,,,blank.png,"[""ham.png""]",blank.png,blank.png,blank.png,blank.png,blank.png,blank.png,blank.png,blank.png,blank.png,blank.png,blank.png,,,,,,,,,,,,,,,,,,,,,,,,,,,,,"[""ham.png""]","[""tomato.png""]",PB07.png,,,,,,,,,,,0,6,"[""tomato.png""]","[""tomato.png""]","[""tomato.png""]","[""tomato.png""]","[""tomato.png""]","[""tomato.png""]",blank.png,PB18.png,PB18.png,"[""tomato.png""]",blank.png,blank.png,blank.png,blank.png,blank.png,"[""tomato.png""]","[""tomato.png""]","[""tomato.png""]","[""tomato.png""]","[""tomato.png""]","[""tomato.png""]",1,"[""ham.png""]",blank.png,blank.png,blank.png,1,"[""tomato.png""]",blank.png,blank.png,blank.png,blank.png,blank.png,PB07.png,,,,,,,,,,,1,,,,,,,,,,,,,983.1479999999865,,timeout,,,,,,,,,,,,,3,,,,,,,,,,,,,,,,,,,,,,,,,,,,,,,,,,,,,,,,,,,,,,,,,,,,,,,,,"[""tomato.png""]","[""ham.png""]",,,,2,,,false,,1,,,,,,,330643.7949999999,330643.156,329676.676,330168.14999999997,330159.865,331143.013,,,,
choice,canvas.Screen,2_4_3_6_1_0_0_0_0_5_2,2021-05-24T16:14:16.893Z,,,blank.png,"[""ham.png""]",blank.png,blank.png,blank.png,blank.png,blank.png,blank.png,blank.png,blank.png,blank.png,blank.png,blank.png,,,,,,,,,,,,,,,,,,,,,,,,,,,,,"[""ham.png""]","[""tomato.png""]",PB07.png,,,,,,,,,,,0,6,"[""tomato.png""]","[""tomato.png""]","[""tomato.png""]","[""tomato.png""]","[""tomato.png""]","[""tomato.png""]",blank.png,PB18.png,PB18.png,"[""tomato.png""]",blank.png,blank.png,blank.png,blank.png,blank.png,"[""tomato.png""]","[""tomato.png""]","[""tomato.png""]","[""tomato.png""]","[""tomato.png""]","[""tomato.png""]",1,"[""ham.png""]",blank.png,blank.png,blank.png,1,"[""tomato.png""]",blank.png,blank.png,blank.png,blank.png,blank.png,PB07.png,,,,,,,,,,,1,,,,,,,,,,,,,806.3569999998435,,response,,,,,,,,,,,,,3,,,,,,,,,,,,,,,,,,,,,,,,,,,,,,,,,,,,,,,,,,,,,,,,,,,,,,,,,"[""tomato.png""]","[""ham.png""]",,,,2,right,keydown(ArrowRight),false,,1,,,,,,,331950.7600000002,331949.3699999998,330643.156,331123.5649999999,331143.013,332426.09,,6,,
square,canvas.Screen,2_4_3_6_1_0_0_0_0_5_3,2021-05-24T16:14:18.352Z,,,blank.png,"[""ham.png""]",blank.png,blank.png,blank.png,blank.png,blank.png,blank.png,blank.png,blank.png,blank.png,blank.png,blank.png,,,,,,,,,,,,,,,,,,,,,,,,,,,,,"[""ham.png""]","[""tomato.png""]",PB07.png,,,,,,,,,,,0,6,"[""tomato.png""]","[""tomato.png""]","[""tomato.png""]","[""tomato.png""]","[""tomato.png""]","[""tomato.png""]",blank.png,PB18.png,PB18.png,"[""tomato.png""]",blank.png,blank.png,blank.png,blank.png,blank.png,"[""tomato.png""]","[""tomato.png""]","[""tomato.png""]","[""tomato.png""]","[""tomato.png""]","[""tomato.png""]",1,"[""ham.png""]",blank.png,blank.png,blank.png,1,"[""tomato.png""]",blank.png,blank.png,blank.png,blank.png,blank.png,PB07.png,,,,,,,,,,,1,,,#808080,#33ff3f,,,,,,,,,999.8889999999665,,timeout,,,,,,,,,,,,,3,,,,,,,,,,,,,,,,,,,,,,,,,,,,,,,,,,,,,,,,,,,,,,,,,,,,,,,,,"[""tomato.png""]","[""ham.png""]",,,,2,,,false,,1,,,,,white,black,333410.10000000003,333409.28,332409.541,332417.7100000002,332426.09,333425.979,,,,
ITI_late,canvas.Screen,2_4_3_6_1_0_0_0_0_5_4,2021-05-24T16:14:19.352Z,,,blank.png,"[""ham.png""]",blank.png,blank.png,blank.png,blank.png,blank.png,blank.png,blank.png,blank.png,blank.png,blank.png,blank.png,,,,,,,,,,,,,,,,,,,,,,,,,,,,,"[""ham.png""]","[""tomato.png""]",PB07.png,,,,,,,,,,,0,6,"[""tomato.png""]","[""tomato.png""]","[""tomato.png""]","[""tomato.png""]","[""tomato.png""]","[""tomato.png""]",blank.png,PB18.png,PB18.png,"[""tomato.png""]",blank.png,blank.png,blank.png,blank.png,blank.png,"[""tomato.png""]","[""tomato.png""]","[""tomato.png""]","[""tomato.png""]","[""tomato.png""]","[""tomato.png""]",1,"[""ham.png""]",blank.png,blank.png,blank.png,1,"[""tomato.png""]",blank.png,blank.png,blank.png,blank.png,blank.png,PB07.png,,,,,,,,,,,1,,,,,,,,,,,,,999.7220000000088,,timeout,,,,,,,,,,,,white,3,,,,,,,,,,,,,,,,,,,,,,,,,,,,,,,,,,,,,,,,,,,,,,,,,,,,,,,,,"[""tomato.png""]","[""ham.png""]",,,,2,,,false,,1,,,,,,,334409.7849999998,334409.1,333409.28,333411.9000000001,333425.979,334425.701,,,,
choice_sequence,flow.Sequence,2_4_3_6_1_0_0_0_0_5,2021-05-24T16:14:19.352Z,,,blank.png,"[""ham.png""]",blank.png,blank.png,blank.png,blank.png,blank.png,blank.png,blank.png,blank.png,blank.png,blank.png,blank.png,,,,,,,,,,,,,,,,,,,,,,,,,,,,,"[""ham.png""]","[""tomato.png""]",PB07.png,,,,,,,,,,,0,6,"[""tomato.png""]","[""tomato.png""]","[""tomato.png""]","[""tomato.png""]","[""tomato.png""]","[""tomato.png""]",blank.png,PB18.png,PB18.png,"[""tomato.png""]",blank.png,blank.png,blank.png,blank.png,blank.png,"[""tomato.png""]","[""tomato.png""]","[""tomato.png""]","[""tomato.png""]","[""tomato.png""]","[""tomato.png""]",1,"[""ham.png""]",blank.png,blank.png,blank.png,1,"[""tomato.png""]",blank.png,blank.png,blank.png,blank.png,blank.png,PB07.png,,,,,,,,,,,1,,,,,,,,,,,,,4965.694999999949,,completion,,,,,,,,,,,,,3,,,,,,,,,,,,,,,,,,,,,,,,,,,,,,,,,,,,,,,,,,,,,,,,,,,,,,,,,"[""tomato.png""]","[""ham.png""]",,,,2,,,false,,1,,,,,,,334410.2549999998,334409.1,329426.784,329431.60499999975,329443.405,334425.701,,,,
fixCross,canvas.Screen,2_4_3_6_1_0_0_0_0_6_0,2021-05-24T16:14:20.002Z,,,blank.png,blank.png,blank.png,blank.png,blank.png,blank.png,blank.png,"[""ham.png""]",blank.png,blank.png,blank.png,blank.png,blank.png,,,,,,,,,,,,,,,,,,,,,,,,,,,,,"[""ham.png""]","[""tomato.png""]",PB18.png,,,,,,,,,,,0,6,"[""tomato.png""]","[""tomato.png""]","[""tomato.png""]","[""tomato.png""]","[""tomato.png""]","[""tomato.png""]",blank.png,PB18.png,PB15.png,"[""tomato.png""]","[""tomato.png""]","[""tomato.png""]","[""tomato.png""]","[""tomato.png""]","[""tomato.png""]","[""tomato.png""]","[""tomato.png""]","[""tomato.png""]","[""tomato.png""]",blank.png,blank.png,1,"[""ham.png""]",blank.png,blank.png,blank.png,4,"[""tomato.png""]","[""tomato.png""]","[""tomato.png""]","[""tomato.png""]",blank.png,blank.png,PB15.png,,,,,,,,,,,1,,,,,,,,,,,,,1199.7700000000186,,timeout,,,,,,,,,,,,,4,,,,,,,,,,,,,,,,,,,,,,,,,,,,,,,,,,,,,,,,,,,,,,,,,,,,,,,,,"[""tomato.png""]","[""ham.png""]",,,,2,,,false,,1,,,,,,,335059.6599999999,335058.969,334409.1,334423.47500000003,334425.701,335625.471,7,,,
timeout,canvas.Screen,2_4_3_6_1_0_0_0_0_6_1,2021-05-24T16:14:21.051Z,,,blank.png,blank.png,blank.png,blank.png,blank.png,blank.png,blank.png,"[""ham.png""]",blank.png,blank.png,blank.png,blank.png,blank.png,,,,,,,,,,,,,,,,,,,,,,,,,,,,,"[""ham.png""]","[""tomato.png""]",PB18.png,,,,,,,,,,,0,6,"[""tomato.png""]","[""tomato.png""]","[""tomato.png""]","[""tomato.png""]","[""tomato.png""]","[""tomato.png""]",blank.png,PB18.png,PB15.png,"[""tomato.png""]","[""tomato.png""]","[""tomato.png""]","[""tomato.png""]","[""tomato.png""]","[""tomato.png""]","[""tomato.png""]","[""tomato.png""]","[""tomato.png""]","[""tomato.png""]",blank.png,blank.png,1,"[""ham.png""]",blank.png,blank.png,blank.png,4,"[""tomato.png""]","[""tomato.png""]","[""tomato.png""]","[""tomato.png""]",blank.png,blank.png,PB15.png,,,,,,,,,,,1,,,,,,,,,,,,,1066.4929999999586,,timeout,,,,,,,,,,,,,4,,,,,,,,,,,,,,,,,,,,,,,,,,,,,,,,,,,,,,,,,,,,,,,,,,,,,,,,,"[""tomato.png""]","[""ham.png""]",,,,2,,,false,,1,,,,,,,336109.555,336108.831,335058.969,335632.075,335625.471,336691.964,,,,
choice,canvas.Screen,2_4_3_6_1_0_0_0_0_6_2,2021-05-24T16:14:21.736Z,,,blank.png,blank.png,blank.png,blank.png,blank.png,blank.png,blank.png,"[""ham.png""]",blank.png,blank.png,blank.png,blank.png,blank.png,,,,,,,,,,,,,,,,,,,,,,,,,,,,,"[""ham.png""]","[""tomato.png""]",PB18.png,,,,,,,,,,,0,6,"[""tomato.png""]","[""tomato.png""]","[""tomato.png""]","[""tomato.png""]","[""tomato.png""]","[""tomato.png""]",blank.png,PB18.png,PB15.png,"[""tomato.png""]","[""tomato.png""]","[""tomato.png""]","[""tomato.png""]","[""tomato.png""]","[""tomato.png""]","[""tomato.png""]","[""tomato.png""]","[""tomato.png""]","[""tomato.png""]",blank.png,blank.png,1,"[""ham.png""]",blank.png,blank.png,blank.png,4,"[""tomato.png""]","[""tomato.png""]","[""tomato.png""]","[""tomato.png""]",blank.png,blank.png,PB15.png,,,,,,,,,,,1,,,,,,,,,,,,,101.02100000006612,,response,,,,,,,,,,,,,4,,,,,,,,,,,,,,,,,,,,,,,,,,,,,,,,,,,,,,,,,,,,,,,,,,,,,,,,,"[""tomato.png""]","[""ham.png""]",,,,2,right,keydown(ArrowRight),false,,1,,,,,,,336794.01000000007,336792.98500000004,336108.831,336674.95499999996,336691.964,337358.46,,7,,
square,canvas.Screen,2_4_3_6_1_0_0_0_0_6_3,2021-05-24T16:14:23.284Z,,,blank.png,blank.png,blank.png,blank.png,blank.png,blank.png,blank.png,"[""ham.png""]",blank.png,blank.png,blank.png,blank.png,blank.png,,,,,,,,,,,,,,,,,,,,,,,,,,,,,"[""ham.png""]","[""tomato.png""]",PB18.png,,,,,,,,,,,0,6,"[""tomato.png""]","[""tomato.png""]","[""tomato.png""]","[""tomato.png""]","[""tomato.png""]","[""tomato.png""]",blank.png,PB18.png,PB15.png,"[""tomato.png""]","[""tomato.png""]","[""tomato.png""]","[""tomato.png""]","[""tomato.png""]","[""tomato.png""]","[""tomato.png""]","[""tomato.png""]","[""tomato.png""]","[""tomato.png""]",blank.png,blank.png,1,"[""ham.png""]",blank.png,blank.png,blank.png,4,"[""tomato.png""]","[""tomato.png""]","[""tomato.png""]","[""tomato.png""]",blank.png,blank.png,PB15.png,,,,,,,,,,,1,,,#808080,#33ff3f,,,,,,,,,999.8729999999632,,timeout,,,,,,,,,,,,,4,,,,,,,,,,,,,,,,,,,,,,,,,,,,,,,,,,,,,,,,,,,,,,,,,,,,,,,,,"[""tomato.png""]","[""ham.png""]",,,,2,,,false,,1,,,,,white,black,338342.61500000005,338341.663,337341.884,337347.85999999987,337358.46,338358.333,,,,
ITI_late,canvas.Screen,2_4_3_6_1_0_0_0_0_6_4,2021-05-24T16:14:24.284Z,,,blank.png,blank.png,blank.png,blank.png,blank.png,blank.png,blank.png,"[""ham.png""]",blank.png,blank.png,blank.png,blank.png,blank.png,,,,,,,,,,,,,,,,,,,,,,,,,,,,,"[""ham.png""]","[""tomato.png""]",PB18.png,,,,,,,,,,,0,6,"[""tomato.png""]","[""tomato.png""]","[""tomato.png""]","[""tomato.png""]","[""tomato.png""]","[""tomato.png""]",blank.png,PB18.png,PB15.png,"[""tomato.png""]","[""tomato.png""]","[""tomato.png""]","[""tomato.png""]","[""tomato.png""]","[""tomato.png""]","[""tomato.png""]","[""tomato.png""]","[""tomato.png""]","[""tomato.png""]",blank.png,blank.png,1,"[""ham.png""]",blank.png,blank.png,blank.png,4,"[""tomato.png""]","[""tomato.png""]","[""tomato.png""]","[""tomato.png""]",blank.png,blank.png,PB15.png,,,,,,,,,,,1,,,,,,,,,,,,,1033.085000000021,,timeout,,,,,,,,,,,,white,4,,,,,,,,,,,,,,,,,,,,,,,,,,,,,,,,,,,,,,,,,,,,,,,,,,,,,,,,,"[""tomato.png""]","[""ham.png""]",,,,2,,,false,,1,,,,,,,339342.1950000002,339341.575,338341.663,338344.63000000006,338358.333,339391.418,,,,
choice_sequence,flow.Sequence,2_4_3_6_1_0_0_0_0_6,2021-05-24T16:14:24.285Z,,,blank.png,blank.png,blank.png,blank.png,blank.png,blank.png,blank.png,"[""ham.png""]",blank.png,blank.png,blank.png,blank.png,blank.png,,,,,,,,,,,,,,,,,,,,,,,,,,,,,"[""ham.png""]","[""tomato.png""]",PB18.png,,,,,,,,,,,0,6,"[""tomato.png""]","[""tomato.png""]","[""tomato.png""]","[""tomato.png""]","[""tomato.png""]","[""tomato.png""]",blank.png,PB18.png,PB15.png,"[""tomato.png""]","[""tomato.png""]","[""tomato.png""]","[""tomato.png""]","[""tomato.png""]","[""tomato.png""]","[""tomato.png""]","[""tomato.png""]","[""tomato.png""]","[""tomato.png""]",blank.png,blank.png,1,"[""ham.png""]",blank.png,blank.png,blank.png,4,"[""tomato.png""]","[""tomato.png""]","[""tomato.png""]","[""tomato.png""]",blank.png,blank.png,PB15.png,,,,,,,,,,,1,,,,,,,,,,,,,4915.874000000011,,completion,,,,,,,,,,,,,4,,,,,,,,,,,,,,,,,,,,,,,,,,,,,,,,,,,,,,,,,,,,,,,,,,,,,,,,,"[""tomato.png""]","[""ham.png""]",,,,2,,,false,,1,,,,,,,339342.7099999999,339341.575,334409.1,334421.2299999999,334425.701,339391.418,,,,
choice_loop,flow.Loop,2_4_3_6_1_0_0_0_0,2021-05-24T16:14:24.285Z,,,,,,,,,,,,,,,,,,,,,,,,,,,,,,,,,,,,,,,,,,,,"[""ham.png""]","[""tomato.png""]",,,,,,,,,,,,,,,,,,,,,,,,,,,,,,,,,,,,,,,,,,,,,,,,,,,,,,,,,,,,,,,,,,,,,,,36026.49200000003,,completion,,,,,,,,,,,,,,,,,,,,,,,,,,,,,,,,,,,,,,,,,,,,,,,,,,,,,,,,,,,,,,,,,,,,,,"[""tomato.png""]","[""ham.png""]",,,,2,,,false,,,,,,,,,339343.01000000007,339341.575,303265.183,303311.8549999999,303315.083,339391.418,,,,
choice_frame,html.Frame,2_4_3_6_1_0_0_0,2021-05-24T16:14:24.285Z,,,,,,,,,,,,,,,,,,,,,,,,,,,,,,,,,,,,,,,,,,,,,,,,,,,,,,,,,,,,,,,,,,,,,,,,,,,,,,,,,,,,,,,,,,,,,,,,,,,,,,,,,,,,,,,,,,,,36028.00699999987,,,,,,,,,,,,,,,,,,,,,,,,,,,,,,,,,,,,,,,,,,,,,,,,,,,,,,,,,,,,,,,,,,,,,,,,,,,,,2,,,false,,,,,,,,,339343.2250000001,339343.08999999985,303265.183,303265.92500000016,303315.083,339408.136,,,,
sublock_1,flow.Sequence,2_4_3_6_1_0_0,2021-05-24T16:14:24.285Z,,,,,,,,,,,,,,,,,,,,,,,,,,,,,,,,,,,,,,,,,,,,,,,,,,,,,,,,,,,,,,,,,,,,,,,,,,,,,,,,,,,,,,,,,,,,,,,,,,,,,,,,,,,,,,,,,,,,36028.00699999987,,completion,,,,,,,,,,,,,,,,,,,,,,,,,,,,,,,,,,,,,,,,,,,,,,,,,,,,,,,,,,,,,,,,,,,,,,,,,,,2,,,false,,,,,,,,,339343.355,339343.08999999985,303265.183,303265.895,303315.083,339408.136,,,,
fixCross,canvas.Screen,2_4_3_6_1_0_1_0_0_0_0,2021-05-24T16:14:24.884Z,,,blank.png,"[""ham.png""]",blank.png,blank.png,blank.png,blank.png,blank.png,blank.png,blank.png,blank.png,blank.png,blank.png,blank.png,,,,,,,,,,,,,,,,,,,,,,,,,,,,,"[""ham.png""]","[""tomato.png""]",PB14.png,,,,,,,,,,,0,6,"[""tomato.png""]","[""tomato.png""]","[""tomato.png""]","[""tomato.png""]","[""tomato.png""]","[""tomato.png""]",blank.png,PB18.png,PB18.png,"[""tomato.png""]","[""tomato.png""]","[""tomato.png""]",blank.png,blank.png,blank.png,"[""tomato.png""]","[""tomato.png""]","[""tomato.png""]","[""tomato.png""]","[""tomato.png""]","[""tomato.png""]",1,"[""ham.png""]",blank.png,blank.png,blank.png,3,"[""tomato.png""]","[""tomato.png""]","[""tomato.png""]",blank.png,blank.png,blank.png,PB14.png,,,,,,,,,,,1,,,,,,,,,,,,,1066.4020000000019,,timeout,,,,,,,,,,,,,3,,,,,,,,,,,,,,,,,,,,,,,,,,,,,,,,,,,,,,,,,,,,,,,,,,,,,,,,,"[""tomato.png""]","[""ham.png""]",,,,1,,,false,,1,,,,,,,339942.03000000014,339941.362,339391.418,339392.39499999984,339408.136,340474.538,8,,,
timeout,canvas.Screen,2_4_3_6_1_0_1_0_0_0_1,2021-05-24T16:14:25.900Z,,,blank.png,"[""ham.png""]",blank.png,blank.png,blank.png,blank.png,blank.png,blank.png,blank.png,blank.png,blank.png,blank.png,blank.png,,,,,,,,,,,,,,,,,,,,,,,,,,,,,"[""ham.png""]","[""tomato.png""]",PB14.png,,,,,,,,,,,0,6,"[""tomato.png""]","[""tomato.png""]","[""tomato.png""]","[""tomato.png""]","[""tomato.png""]","[""tomato.png""]",blank.png,PB18.png,PB18.png,"[""tomato.png""]","[""tomato.png""]","[""tomato.png""]",blank.png,blank.png,blank.png,"[""tomato.png""]","[""tomato.png""]","[""tomato.png""]","[""tomato.png""]","[""tomato.png""]","[""tomato.png""]",1,"[""ham.png""]",blank.png,blank.png,blank.png,3,"[""tomato.png""]","[""tomato.png""]","[""tomato.png""]",blank.png,blank.png,blank.png,PB14.png,,,,,,,,,,,1,,,,,,,,,,,,,1166.439000000013,,timeout,,,,,,,,,,,,,3,,,,,,,,,,,,,,,,,,,,,,,,,,,,,,,,,,,,,,,,,,,,,,,,,,,,,,,,,"[""tomato.png""]","[""ham.png""]",,,,1,,,false,,1,,,,,,,340958.45499999996,340957.803,339941.362,340471.27999999974,340474.538,341640.977,,,,
choice,canvas.Screen,2_4_3_6_1_0_1_0_0_0_2,2021-05-24T16:14:26.589Z,,,blank.png,"[""ham.png""]",blank.png,blank.png,blank.png,blank.png,blank.png,blank.png,blank.png,blank.png,blank.png,blank.png,blank.png,,,,,,,,,,,,,,,,,,,,,,,,,,,,,"[""ham.png""]","[""tomato.png""]",PB14.png,,,,,,,,,,,0,6,"[""tomato.png""]","[""tomato.png""]","[""tomato.png""]","[""tomato.png""]","[""tomato.png""]","[""tomato.png""]",blank.png,PB18.png,PB18.png,"[""tomato.png""]","[""tomato.png""]","[""tomato.png""]",blank.png,blank.png,blank.png,"[""tomato.png""]","[""tomato.png""]","[""tomato.png""]","[""tomato.png""]","[""tomato.png""]","[""tomato.png""]",1,"[""ham.png""]",blank.png,blank.png,blank.png,3,"[""tomato.png""]","[""tomato.png""]","[""tomato.png""]",blank.png,blank.png,blank.png,PB14.png,,,,,,,,,,,1,,,,,,,,,,,,,329.73199999990175,,response,,,,,,,,,,,,,3,,,,,,,,,,,,,,,,,,,,,,,,,,,,,,,,,,,,,,,,,,,,,,,,,,,,,,,,,"[""tomato.png""]","[""ham.png""]",,,,1,left,keydown(ArrowLeft),false,,1,,,,,,,341647.56499999977,341287.5349999999,340957.803,341623.65,,342524.119,,8,,
square,canvas.Screen,2_4_3_6_1_0_1_0_0_0_3,2021-05-24T16:14:28.450Z,,,blank.png,"[""ham.png""]",blank.png,blank.png,blank.png,blank.png,blank.png,blank.png,blank.png,blank.png,blank.png,blank.png,blank.png,,,,,,,,,,,,,,,,,,,,,,,,,,,,,"[""ham.png""]","[""tomato.png""]",PB14.png,,,,,,,,,,,0,6,"[""tomato.png""]","[""tomato.png""]","[""tomato.png""]","[""tomato.png""]","[""tomato.png""]","[""tomato.png""]",blank.png,PB18.png,PB18.png,"[""tomato.png""]","[""tomato.png""]","[""tomato.png""]",blank.png,blank.png,blank.png,"[""tomato.png""]","[""tomato.png""]","[""tomato.png""]","[""tomato.png""]","[""tomato.png""]","[""tomato.png""]",1,"[""ham.png""]",blank.png,blank.png,blank.png,3,"[""tomato.png""]","[""tomato.png""]","[""tomato.png""]",blank.png,blank.png,blank.png,PB14.png,,,,,,,,,,,1,,,#33ff3f,#808080,,,,,,,,,999.8219999999856,,timeout,,,,,,,,,,,,,3,,,,,,,,,,,,,,,,,,,,,,,,,,,,,,,,,,,,,,,,,,,,,,,,,,,,,,,,,"[""tomato.png""]","[""ham.png""]",,,,1,,,false,,1,,,,,black,white,343508.46,343507.332,341640.977,342518.8499999999,342524.119,343523.941,,,,
ITI_late,canvas.Screen,2_4_3_6_1_0_1_0_0_0_4,2021-05-24T16:14:28.700Z,,,blank.png,"[""ham.png""]",blank.png,blank.png,blank.png,blank.png,blank.png,blank.png,blank.png,blank.png,blank.png,blank.png,blank.png,,,,,,,,,,,,,,,,,,,,,,,,,,,,,"[""ham.png""]","[""tomato.png""]",PB14.png,,,,,,,,,,,0,6,"[""tomato.png""]","[""tomato.png""]","[""tomato.png""]","[""tomato.png""]","[""tomato.png""]","[""tomato.png""]",blank.png,PB18.png,PB18.png,"[""tomato.png""]","[""tomato.png""]","[""tomato.png""]",blank.png,blank.png,blank.png,"[""tomato.png""]","[""tomato.png""]","[""tomato.png""]","[""tomato.png""]","[""tomato.png""]","[""tomato.png""]",1,"[""ham.png""]",blank.png,blank.png,blank.png,3,"[""tomato.png""]","[""tomato.png""]","[""tomato.png""]",blank.png,blank.png,blank.png,PB14.png,,,,,,,,,,,1,,,,,,,,,,,,,249.9529999999795,,timeout,,,,,,,,,,,,white,3,,,,,,,,,,,,,,,,,,,,,,,,,,,,,,,,,,,,,,,,,,,,,,,,,,,,,,,,,"[""tomato.png""]","[""ham.png""]",,,,1,,,false,,1,,,,,,,343758.15499999997,343757.32,343507.332,343510.0750000001,343523.941,343773.894,,,,
choice_sequence,flow.Sequence,2_4_3_6_1_0_1_0_0_0,2021-05-24T16:14:28.700Z,,,blank.png,"[""ham.png""]",blank.png,blank.png,blank.png,blank.png,blank.png,blank.png,blank.png,blank.png,blank.png,blank.png,blank.png,,,,,,,,,,,,,,,,,,,,,,,,,,,,,"[""ham.png""]","[""tomato.png""]",PB14.png,,,,,,,,,,,0,6,"[""tomato.png""]","[""tomato.png""]","[""tomato.png""]","[""tomato.png""]","[""tomato.png""]","[""tomato.png""]",blank.png,PB18.png,PB18.png,"[""tomato.png""]","[""tomato.png""]","[""tomato.png""]",blank.png,blank.png,blank.png,"[""tomato.png""]","[""tomato.png""]","[""tomato.png""]","[""tomato.png""]","[""tomato.png""]","[""tomato.png""]",1,"[""ham.png""]",blank.png,blank.png,blank.png,3,"[""tomato.png""]","[""tomato.png""]","[""tomato.png""]",blank.png,blank.png,blank.png,PB14.png,,,,,,,,,,,1,,,,,,,,,,,,,4349.184000000008,,completion,,,,,,,,,,,,,3,,,,,,,,,,,,,,,,,,,,,,,,,,,,,,,,,,,,,,,,,,,,,,,,,,,,,,,,,"[""tomato.png""]","[""ham.png""]",,,,1,,,false,,1,,,,,,,343758.56500000006,343757.32,339391.418,339391.05500000005,339408.136,343773.894,,,,
fixCross,canvas.Screen,2_4_3_6_1_0_1_0_0_1_0,2021-05-24T16:14:29.200Z,,,blank.png,"[""ham.png""]",blank.png,blank.png,blank.png,blank.png,blank.png,blank.png,blank.png,blank.png,blank.png,blank.png,blank.png,,,,,,,,,,,,,,,,,,,,,,,,,,,,,"[""ham.png""]","[""tomato.png""]",PB17.png,,,,,,,,,,,0,6,"[""tomato.png""]","[""tomato.png""]","[""tomato.png""]","[""tomato.png""]","[""tomato.png""]","[""tomato.png""]",blank.png,PB18.png,PB18.png,"[""tomato.png""]","[""tomato.png""]","[""tomato.png""]","[""tomato.png""]","[""tomato.png""]","[""tomato.png""]","[""tomato.png""]","[""tomato.png""]","[""tomato.png""]","[""tomato.png""]","[""tomato.png""]","[""tomato.png""]",1,"[""ham.png""]",blank.png,blank.png,blank.png,6,"[""tomato.png""]","[""tomato.png""]","[""tomato.png""]","[""tomato.png""]","[""tomato.png""]","[""tomato.png""]",PB17.png,,,,,,,,,,,1,,,,,,,,,,,,,1116.4090000000433,,timeout,,,,,,,,,,,,,3,,,,,,,,,,,,,,,,,,,,,,,,,,,,,,,,,,,,,,,,,,,,,,,,,,,,,,,,,"[""tomato.png""]","[""ham.png""]",,,,1,,,false,,1,,,,,,,344257.94499999983,344257.211,343757.32,343763.2100000001,343773.894,344890.303,9,,,
timeout,canvas.Screen,2_4_3_6_1_0_1_0_0_1_1,2021-05-24T16:14:30.316Z,,,blank.png,"[""ham.png""]",blank.png,blank.png,blank.png,blank.png,blank.png,blank.png,blank.png,blank.png,blank.png,blank.png,blank.png,,,,,,,,,,,,,,,,,,,,,,,,,,,,,"[""ham.png""]","[""tomato.png""]",PB17.png,,,,,,,,,,,0,6,"[""tomato.png""]","[""tomato.png""]","[""tomato.png""]","[""tomato.png""]","[""tomato.png""]","[""tomato.png""]",blank.png,PB18.png,PB18.png,"[""tomato.png""]","[""tomato.png""]","[""tomato.png""]","[""tomato.png""]","[""tomato.png""]","[""tomato.png""]","[""tomato.png""]","[""tomato.png""]","[""tomato.png""]","[""tomato.png""]","[""tomato.png""]","[""tomato.png""]",1,"[""ham.png""]",blank.png,blank.png,blank.png,6,"[""tomato.png""]","[""tomato.png""]","[""tomato.png""]","[""tomato.png""]","[""tomato.png""]","[""tomato.png""]",PB17.png,,,,,,,,,,,1,,,,,,,,,,,,,1133.1529999999912,,timeout,,,,,,,,,,,,,3,,,,,,,,,,,,,,,,,,,,,,,,,,,,,,,,,,,,,,,,,,,,,,,,,,,,,,,,,"[""tomato.png""]","[""ham.png""]",,,,1,,,false,,1,,,,,,,345374.3549999999,345373.648,344257.211,344874.9849999999,344890.303,346023.456,,,,
choice,canvas.Screen,2_4_3_6_1_0_1_0_0_1_2,2021-05-24T16:14:30.970Z,,,blank.png,"[""ham.png""]",blank.png,blank.png,blank.png,blank.png,blank.png,blank.png,blank.png,blank.png,blank.png,blank.png,blank.png,,,,,,,,,,,,,,,,,,,,,,,,,,,,,"[""ham.png""]","[""tomato.png""]",PB17.png,,,,,,,,,,,0,6,"[""tomato.png""]","[""tomato.png""]","[""tomato.png""]","[""tomato.png""]","[""tomato.png""]","[""tomato.png""]",blank.png,PB18.png,PB18.png,"[""tomato.png""]","[""tomato.png""]","[""tomato.png""]","[""tomato.png""]","[""tomato.png""]","[""tomato.png""]","[""tomato.png""]","[""tomato.png""]","[""tomato.png""]","[""tomato.png""]","[""tomato.png""]","[""tomato.png""]",1,"[""ham.png""]",blank.png,blank.png,blank.png,6,"[""tomato.png""]","[""tomato.png""]","[""tomato.png""]","[""tomato.png""]","[""tomato.png""]","[""tomato.png""]",PB17.png,,,,,,,,,,,1,,,,,,,,,,,,,468.7170000000042,,response,,,,,,,,,,,,,3,,,,,,,,,,,,,,,,,,,,,,,,,,,,,,,,,,,,,,,,,,,,,,,,,,,,,,,,,"[""tomato.png""]","[""ham.png""]",,,,1,left,keydown(ArrowLeft),false,,1,,,,,,,346027.93999999994,345842.365,345373.648,346008.15000000014,,346673.331,,9,,
square,canvas.Screen,2_4_3_6_1_0_1_0_0_1_3,2021-05-24T16:14:32.599Z,,,blank.png,"[""ham.png""]",blank.png,blank.png,blank.png,blank.png,blank.png,blank.png,blank.png,blank.png,blank.png,blank.png,blank.png,,,,,,,,,,,,,,,,,,,,,,,,,,,,,"[""ham.png""]","[""tomato.png""]",PB17.png,,,,,,,,,,,0,6,"[""tomato.png""]","[""tomato.png""]","[""tomato.png""]","[""tomato.png""]","[""tomato.png""]","[""tomato.png""]",blank.png,PB18.png,PB18.png,"[""tomato.png""]","[""tomato.png""]","[""tomato.png""]","[""tomato.png""]","[""tomato.png""]","[""tomato.png""]","[""tomato.png""]","[""tomato.png""]","[""tomato.png""]","[""tomato.png""]","[""tomato.png""]","[""tomato.png""]",1,"[""ham.png""]",blank.png,blank.png,blank.png,6,"[""tomato.png""]","[""tomato.png""]","[""tomato.png""]","[""tomato.png""]","[""tomato.png""]","[""tomato.png""]",PB17.png,,,,,,,,,,,1,,,#33ff3f,#808080,,,,,,,,,999.8150000000023,,timeout,,,,,,,,,,,,,3,,,,,,,,,,,,,,,,,,,,,,,,,,,,,,,,,,,,,,,,,,,,,,,,,,,,,,,,,"[""tomato.png""]","[""ham.png""]",,,,1,,,false,,1,,,,,black,white,347657.25999999995,347656.444,346023.456,346663.70499999996,346673.331,347673.146,,,,
ITI_late,canvas.Screen,2_4_3_6_1_0_1_0_0_1_4,2021-05-24T16:14:33.849Z,,,blank.png,"[""ham.png""]",blank.png,blank.png,blank.png,blank.png,blank.png,blank.png,blank.png,blank.png,blank.png,blank.png,blank.png,,,,,,,,,,,,,,,,,,,,,,,,,,,,,"[""ham.png""]","[""tomato.png""]",PB17.png,,,,,,,,,,,0,6,"[""tomato.png""]","[""tomato.png""]","[""tomato.png""]","[""tomato.png""]","[""tomato.png""]","[""tomato.png""]",blank.png,PB18.png,PB18.png,"[""tomato.png""]","[""tomato.png""]","[""tomato.png""]","[""tomato.png""]","[""tomato.png""]","[""tomato.png""]","[""tomato.png""]","[""tomato.png""]","[""tomato.png""]","[""tomato.png""]","[""tomato.png""]","[""tomato.png""]",1,"[""ham.png""]",blank.png,blank.png,blank.png,6,"[""tomato.png""]","[""tomato.png""]","[""tomato.png""]","[""tomato.png""]","[""tomato.png""]","[""tomato.png""]",PB17.png,,,,,,,,,,,1,,,,,,,,,,,,,1249.725999999966,,timeout,,,,,,,,,,,,white,3,,,,,,,,,,,,,,,,,,,,,,,,,,,,,,,,,,,,,,,,,,,,,,,,,,,,,,,,,"[""tomato.png""]","[""ham.png""]",,,,1,,,false,,1,,,,,,,348907.0699999998,348906.296,347656.444,347659.51499999984,347673.146,348922.872,,,,
choice_sequence,flow.Sequence,2_4_3_6_1_0_1_0_0_1,2021-05-24T16:14:33.849Z,,,blank.png,"[""ham.png""]",blank.png,blank.png,blank.png,blank.png,blank.png,blank.png,blank.png,blank.png,blank.png,blank.png,blank.png,,,,,,,,,,,,,,,,,,,,,,,,,,,,,"[""ham.png""]","[""tomato.png""]",PB17.png,,,,,,,,,,,0,6,"[""tomato.png""]","[""tomato.png""]","[""tomato.png""]","[""tomato.png""]","[""tomato.png""]","[""tomato.png""]",blank.png,PB18.png,PB18.png,"[""tomato.png""]","[""tomato.png""]","[""tomato.png""]","[""tomato.png""]","[""tomato.png""]","[""tomato.png""]","[""tomato.png""]","[""tomato.png""]","[""tomato.png""]","[""tomato.png""]","[""tomato.png""]","[""tomato.png""]",1,"[""ham.png""]",blank.png,blank.png,blank.png,6,"[""tomato.png""]","[""tomato.png""]","[""tomato.png""]","[""tomato.png""]","[""tomato.png""]","[""tomato.png""]",PB17.png,,,,,,,,,,,1,,,,,,,,,,,,,5132.402000000002,,completion,,,,,,,,,,,,,3,,,,,,,,,,,,,,,,,,,,,,,,,,,,,,,,,,,,,,,,,,,,,,,,,,,,,,,,,"[""tomato.png""]","[""ham.png""]",,,,1,,,false,,1,,,,,,,348907.51,348906.296,343757.32,343762.31499999994,343773.894,348922.872,,,,
fixCross,canvas.Screen,2_4_3_6_1_0_1_0_0_2_0,2021-05-24T16:14:34.399Z,,,blank.png,"[""ham.png""]",blank.png,blank.png,blank.png,blank.png,blank.png,blank.png,blank.png,blank.png,blank.png,blank.png,blank.png,,,,,,,,,,,,,,,,,,,,,,,,,,,,,"[""ham.png""]","[""tomato.png""]",PB16.png,,,,,,,,,,,0,6,"[""tomato.png""]","[""tomato.png""]","[""tomato.png""]","[""tomato.png""]","[""tomato.png""]","[""tomato.png""]",blank.png,PB18.png,PB18.png,"[""tomato.png""]","[""tomato.png""]","[""tomato.png""]","[""tomato.png""]","[""tomato.png""]",blank.png,"[""tomato.png""]","[""tomato.png""]","[""tomato.png""]","[""tomato.png""]","[""tomato.png""]","[""tomato.png""]",1,"[""ham.png""]",blank.png,blank.png,blank.png,5,"[""tomato.png""]","[""tomato.png""]","[""tomato.png""]","[""tomato.png""]","[""tomato.png""]",blank.png,PB16.png,,,,,,,,,,,1,,,,,,,,,,,,,1149.7750000000233,,timeout,,,,,,,,,,,,,3,,,,,,,,,,,,,,,,,,,,,,,,,,,,,,,,,,,,,,,,,,,,,,,,,,,,,,,,,"[""tomato.png""]","[""ham.png""]",,,,1,,,false,,1,,,,,,,349456.88999999996,349456.176,348906.296,348920.70999999985,348922.872,350072.647,10,,,
timeout,canvas.Screen,2_4_3_6_1_0_1_0_0_2_1,2021-05-24T16:14:35.499Z,,,blank.png,"[""ham.png""]",blank.png,blank.png,blank.png,blank.png,blank.png,blank.png,blank.png,blank.png,blank.png,blank.png,blank.png,,,,,,,,,,,,,,,,,,,,,,,,,,,,,"[""ham.png""]","[""tomato.png""]",PB16.png,,,,,,,,,,,0,6,"[""tomato.png""]","[""tomato.png""]","[""tomato.png""]","[""tomato.png""]","[""tomato.png""]","[""tomato.png""]",blank.png,PB18.png,PB18.png,"[""tomato.png""]","[""tomato.png""]","[""tomato.png""]","[""tomato.png""]","[""tomato.png""]",blank.png,"[""tomato.png""]","[""tomato.png""]","[""tomato.png""]","[""tomato.png""]","[""tomato.png""]","[""tomato.png""]",1,"[""ham.png""]",blank.png,blank.png,blank.png,5,"[""tomato.png""]","[""tomato.png""]","[""tomato.png""]","[""tomato.png""]","[""tomato.png""]",blank.png,PB16.png,,,,,,,,,,,1,,,,,,,,,,,,,1116.4139999999898,,timeout,,,,,,,,,,,,,3,,,,,,,,,,,,,,,,,,,,,,,,,,,,,,,,,,,,,,,,,,,,,,,,,,,,,,,,,"[""tomato.png""]","[""ham.png""]",,,,1,,,false,,1,,,,,,,350556.71500000014,350555.986,349456.176,350065.52499999997,350072.647,351189.061,,,,
choice,canvas.Screen,2_4_3_6_1_0_1_0_0_2_2,2021-05-24T16:14:36.135Z,,,blank.png,"[""ham.png""]",blank.png,blank.png,blank.png,blank.png,blank.png,blank.png,blank.png,blank.png,blank.png,blank.png,blank.png,,,,,,,,,,,,,,,,,,,,,,,,,,,,,"[""ham.png""]","[""tomato.png""]",PB16.png,,,,,,,,,,,0,6,"[""tomato.png""]","[""tomato.png""]","[""tomato.png""]","[""tomato.png""]","[""tomato.png""]","[""tomato.png""]",blank.png,PB18.png,PB18.png,"[""tomato.png""]","[""tomato.png""]","[""tomato.png""]","[""tomato.png""]","[""tomato.png""]",blank.png,"[""tomato.png""]","[""tomato.png""]","[""tomato.png""]","[""tomato.png""]","[""tomato.png""]","[""tomato.png""]",1,"[""ham.png""]",blank.png,blank.png,blank.png,5,"[""tomato.png""]","[""tomato.png""]","[""tomato.png""]","[""tomato.png""]","[""tomato.png""]",blank.png,PB16.png,,,,,,,,,,,1,,,,,,,,,,,,,214.55899999989197,,response,,,,,,,,,,,,,3,,,,,,,,,,,,,,,,,,,,,,,,,,,,,,,,,,,,,,,,,,,,,,,,,,,,,,,,,"[""tomato.png""]","[""ham.png""]",,,,1,left,keydown(ArrowLeft),false,,1,,,,,,,351193.3300000001,350770.54499999987,350555.986,351168.49999999977,,351822.3,,10,,
square,canvas.Screen,2_4_3_6_1_0_1_0_0_2_3,2021-05-24T16:14:37.748Z,,,blank.png,"[""ham.png""]",blank.png,blank.png,blank.png,blank.png,blank.png,blank.png,blank.png,blank.png,blank.png,blank.png,blank.png,,,,,,,,,,,,,,,,,,,,,,,,,,,,,"[""ham.png""]","[""tomato.png""]",PB16.png,,,,,,,,,,,0,6,"[""tomato.png""]","[""tomato.png""]","[""tomato.png""]","[""tomato.png""]","[""tomato.png""]","[""tomato.png""]",blank.png,PB18.png,PB18.png,"[""tomato.png""]","[""tomato.png""]","[""tomato.png""]","[""tomato.png""]","[""tomato.png""]",blank.png,"[""tomato.png""]","[""tomato.png""]","[""tomato.png""]","[""tomato.png""]","[""tomato.png""]","[""tomato.png""]",1,"[""ham.png""]",blank.png,blank.png,blank.png,5,"[""tomato.png""]","[""tomato.png""]","[""tomato.png""]","[""tomato.png""]","[""tomato.png""]",blank.png,PB16.png,,,,,,,,,,,1,,,#33ff3f,#808080,,,,,,,,,999.8730000000214,,timeout,,,,,,,,,,,,,3,,,,,,,,,,,,,,,,,,,,,,,,,,,,,,,,,,,,,,,,,,,,,,,,,,,,,,,,,"[""tomato.png""]","[""ham.png""]",,,,1,,,false,,1,,,,,black,white,352806.5000000001,352805.506,351189.061,351809.24499999994,351822.3,352822.173,,,,
ITI_late,canvas.Screen,2_4_3_6_1_0_1_0_0_2_4,2021-05-24T16:14:38.248Z,,,blank.png,"[""ham.png""]",blank.png,blank.png,blank.png,blank.png,blank.png,blank.png,blank.png,blank.png,blank.png,blank.png,blank.png,,,,,,,,,,,,,,,,,,,,,,,,,,,,,"[""ham.png""]","[""tomato.png""]",PB16.png,,,,,,,,,,,0,6,"[""tomato.png""]","[""tomato.png""]","[""tomato.png""]","[""tomato.png""]","[""tomato.png""]","[""tomato.png""]",blank.png,PB18.png,PB18.png,"[""tomato.png""]","[""tomato.png""]","[""tomato.png""]","[""tomato.png""]","[""tomato.png""]",blank.png,"[""tomato.png""]","[""tomato.png""]","[""tomato.png""]","[""tomato.png""]","[""tomato.png""]","[""tomato.png""]",1,"[""ham.png""]",blank.png,blank.png,blank.png,5,"[""tomato.png""]","[""tomato.png""]","[""tomato.png""]","[""tomato.png""]","[""tomato.png""]",blank.png,PB16.png,,,,,,,,,,,1,,,,,,,,,,,,,499.93699999997625,,timeout,,,,,,,,,,,,white,3,,,,,,,,,,,,,,,,,,,,,,,,,,,,,,,,,,,,,,,,,,,,,,,,,,,,,,,,,"[""tomato.png""]","[""ham.png""]",,,,1,,,false,,1,,,,,,,353306.2399999999,353305.399,352805.506,352808.1750000001,352822.173,353322.11,,,,
