sender,sender_type,sender_id,timestamp,meta,,Blank,DownLeft1,DownLeft2,DownLeft3,DownLeft4,DownLeft5,DownLeft6,DownRight1,DownRight2,DownRight3,DownRight4,DownRight5,DownRight6,FoodHabits_Fru_item1,FoodHabits_Fru_item2,FoodHabits_Fru_item3,FoodHabits_Fru_item4,FoodHabits_Fru_item5,FoodHabits_Fru_item6,FoodHabits_Fru_item7,FoodHabits_Meat_item1,FoodHabits_Meat_item2,FoodHabits_Meat_item3,FoodHabits_Meat_item4,FoodHabits_Meat_item5,FoodHabits_Meat_item6,FoodHabits_Meat_item7,FoodHabits_Swe_item1,FoodHabits_Swe_item2,FoodHabits_Swe_item3,FoodHabits_Swe_item4,FoodHabits_Swe_item5,FoodHabits_Swe_item6,FoodHabits_Swe_item7,FoodHabits_Veg_item1,FoodHabits_Veg_item2,FoodHabits_Veg_item3,FoodHabits_Veg_item4,FoodHabits_Veg_item5,FoodHabits_Veg_item6,FoodHabits_Veg_item7,ImgA,ImgB,LeftBar,PSS_item01,PSS_item02,PSS_item03,PSS_item04,PSS_item05,PSS_item06,PSS_item07,PSS_item08,PSS_item09,PSS_item10,RefA,RefB,RefB1,RefB2,RefB3,RefB4,RefB5,RefB6,RefB7,Ref_PB,RightBar,UpLeft1,UpLeft2,UpLeft3,UpLeft4,UpLeft5,UpLeft6,UpRight1,UpRight2,UpRight3,UpRight4,UpRight5,UpRight6,VarA,VarA1,VarA2,VarA3,VarA4,VarB,VarB1,VarB2,VarB3,VarB4,VarB5,VarB6,Var_PB,attCheck_fileA,attCheck_fileB,attCheck_fileC,attCheck_fileD,attCheck_options,attCheck_valueA,attCheck_valueB,attCheck_valueC,attCheck_valueD,attention_check,block,break1,browser_name,choseL,choseR,consent_form1,consent_form2,consentconfirmation_form1,consentconfirmation_form2,correct,correctResponse,diet,disorder,duration,edu,ended_on,enjoy,full_version,gender,group,hunger,img,imgTask,input_age,input_meal,input_occ,input_remark,lateRespFeed,list,major_version,message,mixQ_item1,mixQ_item2,mixQ_item3,mixQ_item4,mixQ_item5,name,navigator_appName,navigator_userAgent,os,pracQ1_IDa,pracQ1_IDb,pracQ1_IDc,pracQ1_IDd,pracQ1_optionA,pracQ1_optionB,pracQ1_optionC,pracQ1_optionD,pracQ1_valueA,pracQ1_valueB,pracQ1_valueC,pracQ1_valueD,pracQ2_IDa,pracQ2_IDb,pracQ2_IDc,pracQ2_optionA,pracQ2_optionB,pracQ2_optionC,pracQ2_valueA,pracQ2_valueB,pracQ2_valueC,pracQ4_IDa,pracQ4_IDb,pracQ4_IDc,pracQ4_IDd,pracQ4_optionA,pracQ4_optionB,pracQ4_optionC,pracQ4_optionD,pracQ4_valueA,pracQ4_valueB,pracQ4_valueC,pracQ4_valueD,pracQ5_IDa,pracQ5_IDb,pracQ5_IDc,pracQ5_IDd,pracQ5_optionA,pracQ5_optionB,pracQ5_optionC,pracQ5_optionD,pracQ5_valueA,pracQ5_valueB,pracQ5_valueC,pracQ5_valueD,prefHealty,prefUnhealthy,prolific_ID,psessionID,pstudyID,rep,response,response_action,skip,snack,sublock,subtitle,task_difficulty,task_engagement,task_focus,textL,textR,time_commit,time_end,time_render,time_run,time_show,time_switch,trial_count,trial_countO,url,valence
Title,html.Page,0,2021-05-24T16:00:56.154Z,"{""labjs_version"":""20.2.2"",""labjs_build"":{""flavor"":""production"",""commit"":""a25486e0c714a0ae2ce03ff94b7bb6896854dcfa""},""location"":""https://run.pavlovia.org/E3lab/rebund/html/?PROLIFIC_PID=55ce1b0f34e906000ae5631f&STUDY_ID=60008f34cd719d13b0d706dd&SESSION_ID=60abcda648a1204b42ed42c6"",""userAgent"":""Mozilla/5.0 (Windows NT 10.0; Win64; x64; rv:88.0) Gecko/20100101 Firefox/88.0"",""platform"":""Win32"",""language"":""en-GB"",""locale"":""en-GB"",""timeZone"":""Europe/London"",""timezoneOffset"":-60,""screen_width"":1680,""screen_height"":1050,""scroll_width"":1680,""scroll_height"":888,""window_innerWidth"":1680,""window_innerHeight"":936,""devicePixelRatio"":1}",,,,,,,,,,,,,,,,,,,,,,,,,,,,,,,,,,,,,,,,,,,,,,,,,,,,,,,,,,,,,,,,,,,,,,,,,,,,,,,,,,,,,,,,,,,,,,,,,,,,,,,,,,,,,,,,,,,2138.58,,form submission,,,,,,,,,,,,,,,,,,,,,,,,,,,,,,,,,,,,,,,,,,,,,,,,,,,,,,,,,,,,,,,,,,,,,,,,,,,,,,,,,,,,,,,4520,4519,2363.74,2360,2380.42,4536.24,,,"{""PROLIFIC_PID"":""55ce1b0f34e906000ae5631f"",""STUDY_ID"":""60008f34cd719d13b0d706dd"",""SESSION_ID"":""60abcda648a1204b42ed42c6""}",
get_systemInfo,canvas.Screen,1,2021-05-24T16:00:56.172Z,,,,,,,,,,,,,,,,,,,,,,,,,,,,,,,,,,,,,,,,,,,,,,,,,,,,,,,,,,,,,,,,,,,,,,,,,,,,,,,,,,,,,,,,,,,,,,,,,,,,,,,,,Firefox,,,,,,,,,,,3130.6400000000003,,timeout,,88.0,,,,,,,,,,,,88,,,,,,,,Netscape,Mozilla/5.0 (Windows NT 10.0; Win64; x64; rv:88.0) Gecko/20100101 Firefox/88.0,Windows,,,,,,,,,,,,,,,,,,,,,,,,,,,,,,,,,,,,,,,,,,,,,,,,55ce1b0f34e906000ae5631f,,60008f34cd719d13b0d706dd,,,,,,,,,,,,,4538,4537,4519.58,4522,4536.24,7666.88,,,,
ConsentForm,html.Form,2_0,2021-05-24T16:01:20.609Z,,,,,,,,,,,,,,,,,,,,,,,,,,,,,,,,,,,,,,,,,,,,,,,,,,,,,,,,,,,,,,,,,,,,,,,,,,,,,,,,,,,,,,,,,,,,,,,,,,,,,,,,,,,,true,true,,,,,,,21306.12,,form submission,,,,,,,,,,,,,,,,,,,,,,,,,,,,,,,,,,,,,,,,,,,,,,,,,,,,,,,,,,,,,,,,,,,,,,,,,,,,,,,,,,,,,,,28973,28973,4537,7663,7666.88,29001.44,,,,
PepTalk,html.Page,2_1,2021-05-24T16:01:26.584Z,,,,,,,,,,,,,,,,,,,,,,,,,,,,,,,,,,,,,,,,,,,,,,,,,,,,,,,,,,,,,,,,,,,,,,,,,,,,,,,,,,,,,,,,,,,,,,,,,,,,,,,,,,,,,,,,,,,,5946.560000000001,,form submission,,,,,,,,,,,,,,,,,,,,,,,,,,,,,,,,,,,,,,,,,,,,,,,,,,,,,,,,,,,,,,,,,,,,,,,,,,,,,,,,,,,,,,,34949,34948,28984.78,28974,29001.44,34980.16,,,,
Demographics,html.Form,2_2,2021-05-24T16:01:42.132Z,,,,,,,,,,,,,,,,,,,,,,,,,,,,,,,,,,,,,,,,,,,,,,,,,,,,,,,,,,,,,,,,,,,,,,,,,,,,,,,,,,,,,,,,,,,,,,,,,,,,,,,,,,,,,,,,,,,,15514.839999999997,3,form submission,,,1,,,,,42,,Admin Manager,,,,,,,,,,,,,,,,,,,,,,,,,,,,,,,,,,,,,,,,,,,,,,,,,,,,,,,,,,,,,,,,,,,,,,,,,,,,,50497,50495,34963.5,34949,34980.16,50509.38,,,,
InclusionCrit,html.Form,2_3,2021-05-24T16:01:49.131Z,,,,,,,,,,,,,,,,,,,,,,,,,,,,,,,,,,,,,,,,,,,,,,,,,,,,,,,,,,,,,,,,,,,,,,,,,,,,,,,,,,,,,,,,,,,,,,,,,,,,,,,,,,,,,,,,,,1,1,6984.620000000003,,form submission,1,,,,,,,,,,,,,,,,,,,,,,,,,,,,,,,,,,,,,,,,,,,,,,,,,,,,,,,,,,,,,,,,,,,,,,,,,,,,,,,,,,,,,,57495,57494,50492.72,50497,50509.38,57525.12,,,,
Selection,html.Page,2_4_0,2021-05-24T16:01:55.328Z,,,,,,,,,,,,,,,,,,,,,,,,,,,,,,,,,,,,,,,,,,,,,,,,,,,,,,,,,,,,,,,,,,,,,,,,,,,,,,,,,,,,,,,,,,,,,,,,,,,,,,,,,,,,,,,,,,,,6167.879999999997,,form submission,,,,,,,,,,,,,,,,,,,,,,,,,,,,,,,,,,,,,,,,,,,,,,,,,,,,,,,,,,,,,,,,,,,,,,,,,,,,,,,1,,,,,,,,63693,63693,57508.46,57496,57525.12,63720.64,,,,
Load,html.Page,2_4_1,2021-05-24T16:01:55.356Z,,,,,,,,,,,,,,,,,,,,,,,,,,,,,,,,,,,,,,,,,,,,,,,,,,,,,,,,,,,,,,,,,,,,,,,,,,,,,,,,,,,,,,,,,,,,,,,,,,,,,,,,,,,,,,,,,,,,7563.779999999999,,timeout,,,,,,,,,,,,,,,,,,,,,,,,,,,,,,,,,,,,,,,,,,,,,,,,,,,,,,,,,,,,,,,,,,,,,,,,,,,,,,,,,,,,,,,63722,63721,63703.98,63693,63720.64,71284.42,,,,
SequenceSweet,flow.Sequence,2_4_2,2021-05-24T16:01:59.625Z,,,,,,,,,,,,,,,,,,,,,,,,,,,,,,,,,,,,,,,,,,,,,,,,,,,,,,,,,,,,,,,,,,,,,,,,,,,,,,,,,,,,,,,,,,,,,,,,,,,,,,,,,,,,,,,,,,,,NaN,,skipped,,,,,,,,,,,,,,,,,,,,,,,,,,,,,,,,,,,,,,,,,,,,,,,,,,,,,,,,,,,,,,,,,,,,,,,,,,,,,,true,,,,,,,,,67990,63721,,67990,,71284.42,0,0,,
ratings_instructions,html.Screen,2_4_3_0,2021-05-24T16:02:14.481Z,,,,,,,,,,,,,,,,,,,,,,,,,,,,,,,,,,,,,,,,,,,,,,,,,,,,,,,,,,,,,,,,,,,,,,,,,,,,,,,,,,,,,,,,,,,,,,,,,,,,,,,,,,,,,,,,,,,,11548.580000000002,,response,,,,,,,,,,,,,,,,,,,,,,,,,,,,,,,,,,,,,,,,,,,,,,,,,,,,,,,,,,,,,,,,,,,,,,,,,,,,continue,keypress(Space),false,,,,,,,,,82847,82833,63721,71276,71284.42,82859.04,0,0,,
fixCross,canvas.Screen,2_4_3_1_0_0,2021-05-24T16:02:14.979Z,,,,,,,,,,,,,,,,,,,,,,,,,,,,,,,,,,,,,,,,,,,,,,,,,,,,,,,,,,,,,,,,,,,,,,,,,,,,,,,,,,,,,,,,,,,,,,,,,,,,,,,,,,,,,,,,,,,,500.6399999999994,,timeout,,,,unhealthy,,peanut_cracker.png,,,,,,,,,,,,,,,peanut chip,,,,,,,,,,,,,,,,,,,,,,,,,,,,,,,,,,,,,,,,,,,,,,,,,,,,,,,,,false,,,,,,,,,83344,83343.02,82847.96,82848,82859.04,83359.68,,,,
Rating,html.Form,2_4_3_1_0_1,2021-05-24T16:02:19.720Z,,,,,,,,,,,,,,,,,,,,,,,,,,,,,,,,,,,,,,,,,,,,,,,,,,,,,,,,,,,,,,,,,,,,,,,,,,,,,,,,,,,,,,,,,,,,,,,,,,,,,,,,,,,,,,,,,,,,4724.320000000007,,form submission,,,,unhealthy,,peanut_cracker.png,,,,,,,,,,,,,,,peanut chip,,,,,,,,,,,,,,,,,,,,,,,,,,,,,,,,,,,,,,,,,,,,,,,,,,,,,,,,,false,,,,,,,,,88085,88084,83343.02,83345,83359.68,88102.58,,,,89
rating_sequence,flow.Sequence,2_4_3_1_0,2021-05-24T16:02:19.720Z,,,,,,,,,,,,,,,,,,,,,,,,,,,,,,,,,,,,,,,,,,,,,,,,,,,,,,,,,,,,,,,,,,,,,,,,,,,,,,,,,,,,,,,,,,,,,,,,,,,,,,,,,,,,,,,,,,,,5224.960000000006,,completion,,,,unhealthy,,peanut_cracker.png,,,,,,,,,,,,,,,peanut chip,,,,,,,,,,,,,,,,,,,,,,,,,,,,,,,,,,,,,,,,,,,,,,,,,,,,,,,,,false,,,,,,,,,88085,88084,82847.96,82847,82859.04,88102.58,,,,
fixCross,canvas.Screen,2_4_3_1_1_0,2021-05-24T16:02:20.223Z,,,,,,,,,,,,,,,,,,,,,,,,,,,,,,,,,,,,,,,,,,,,,,,,,,,,,,,,,,,,,,,,,,,,,,,,,,,,,,,,,,,,,,,,,,,,,,,,,,,,,,,,,,,,,,,,,,,,500,,timeout,,,,healthy,,celery.png,,,,,,,,,,,,,,,celery,,,,,,,,,,,,,,,,,,,,,,,,,,,,,,,,,,,,,,,,,,,,,,,,,,,,,,,,,false,,,,,,,,,88588,88585.9,88085.9,88085,88102.58,88602.58,,,,
Rating,html.Form,2_4_3_1_1_1,2021-05-24T16:02:24.832Z,,,,,,,,,,,,,,,,,,,,,,,,,,,,,,,,,,,,,,,,,,,,,,,,,,,,,,,,,,,,,,,,,,,,,,,,,,,,,,,,,,,,,,,,,,,,,,,,,,,,,,,,,,,,,,,,,,,,4593.419999999998,,form submission,,,,healthy,,celery.png,,,,,,,,,,,,,,,celery,,,,,,,,,,,,,,,,,,,,,,,,,,,,,,,,,,,,,,,,,,,,,,,,,,,,,,,,,false,,,,,,,,,93197,93196,88585.9,88588,88602.58,93212.66,,,,57
rating_sequence,flow.Sequence,2_4_3_1_1,2021-05-24T16:02:24.832Z,,,,,,,,,,,,,,,,,,,,,,,,,,,,,,,,,,,,,,,,,,,,,,,,,,,,,,,,,,,,,,,,,,,,,,,,,,,,,,,,,,,,,,,,,,,,,,,,,,,,,,,,,,,,,,,,,,,,5093.419999999998,,completion,,,,healthy,,celery.png,,,,,,,,,,,,,,,celery,,,,,,,,,,,,,,,,,,,,,,,,,,,,,,,,,,,,,,,,,,,,,,,,,,,,,,,,,false,,,,,,,,,93197,93196,88085.9,88085,88102.58,93212.66,,,,
fixCross,canvas.Screen,2_4_3_1_2_0,2021-05-24T16:02:25.333Z,,,,,,,,,,,,,,,,,,,,,,,,,,,,,,,,,,,,,,,,,,,,,,,,,,,,,,,,,,,,,,,,,,,,,,,,,,,,,,,,,,,,,,,,,,,,,,,,,,,,,,,,,,,,,,,,,,,,500.9799999999959,,timeout,,,,healthy,,radish.png,,,,,,,,,,,,,,,radish,,,,,,,,,,,,,,,,,,,,,,,,,,,,,,,,,,,,,,,,,,,,,,,,,,,,,,,,,false,,,,,,,,,93698,93696.98,93196,93197,93212.66,93713.64,,,,
Rating,html.Form,2_4_3_1_2_1,2021-05-24T16:02:28.471Z,,,,,,,,,,,,,,,,,,,,,,,,,,,,,,,,,,,,,,,,,,,,,,,,,,,,,,,,,,,,,,,,,,,,,,,,,,,,,,,,,,,,,,,,,,,,,,,,,,,,,,,,,,,,,,,,,,,,3122.3600000000006,,form submission,,,,healthy,,radish.png,,,,,,,,,,,,,,,radish,,,,,,,,,,,,,,,,,,,,,,,,,,,,,,,,,,,,,,,,,,,,,,,,,,,,,,,,,false,,,,,,,,,96836,96836,93696.98,93699,93713.64,96853.36,,,,68
rating_sequence,flow.Sequence,2_4_3_1_2,2021-05-24T16:02:28.472Z,,,,,,,,,,,,,,,,,,,,,,,,,,,,,,,,,,,,,,,,,,,,,,,,,,,,,,,,,,,,,,,,,,,,,,,,,,,,,,,,,,,,,,,,,,,,,,,,,,,,,,,,,,,,,,,,,,,,3623.3399999999965,,completion,,,,healthy,,radish.png,,,,,,,,,,,,,,,radish,,,,,,,,,,,,,,,,,,,,,,,,,,,,,,,,,,,,,,,,,,,,,,,,,,,,,,,,,false,,,,,,,,,96837,96836,93196,93197,93212.66,96853.36,,,,
fixCross,canvas.Screen,2_4_3_1_3_0,2021-05-24T16:02:28.974Z,,,,,,,,,,,,,,,,,,,,,,,,,,,,,,,,,,,,,,,,,,,,,,,,,,,,,,,,,,,,,,,,,,,,,,,,,,,,,,,,,,,,,,,,,,,,,,,,,,,,,,,,,,,,,,,,,,,,500.75999999999476,,timeout,,,,unhealthy,,sausage.png,,,,,,,,,,,,,,,salami,,,,,,,,,,,,,,,,,,,,,,,,,,,,,,,,,,,,,,,,,,,,,,,,,,,,,,,,,false,,,,,,,,,97338,97337.46,96836.7,96837,96853.36,97354.12,,,,
Rating,html.Form,2_4_3_1_3_1,2021-05-24T16:02:32.567Z,,,,,,,,,,,,,,,,,,,,,,,,,,,,,,,,,,,,,,,,,,,,,,,,,,,,,,,,,,,,,,,,,,,,,,,,,,,,,,,,,,,,,,,,,,,,,,,,,,,,,,,,,,,,,,,,,,,,3577.8800000000047,,form submission,,,,unhealthy,,sausage.png,,,,,,,,,,,,,,,salami,,,,,,,,,,,,,,,,,,,,,,,,,,,,,,,,,,,,,,,,,,,,,,,,,,,,,,,,,false,,,,,,,,,100933,100932,97337.46,97339,97354.12,100961.6,,,,93
rating_sequence,flow.Sequence,2_4_3_1_3,2021-05-24T16:02:32.568Z,,,,,,,,,,,,,,,,,,,,,,,,,,,,,,,,,,,,,,,,,,,,,,,,,,,,,,,,,,,,,,,,,,,,,,,,,,,,,,,,,,,,,,,,,,,,,,,,,,,,,,,,,,,,,,,,,,,,4078.6399999999994,,completion,,,,unhealthy,,sausage.png,,,,,,,,,,,,,,,salami,,,,,,,,,,,,,,,,,,,,,,,,,,,,,,,,,,,,,,,,,,,,,,,,,,,,,,,,,false,,,,,,,,,100933,100932,96836.7,96837,96853.36,100961.6,,,,
fixCross,canvas.Screen,2_4_3_1_4_0,2021-05-24T16:02:33.082Z,,,,,,,,,,,,,,,,,,,,,,,,,,,,,,,,,,,,,,,,,,,,,,,,,,,,,,,,,,,,,,,,,,,,,,,,,,,,,,,,,,,,,,,,,,,,,,,,,,,,,,,,,,,,,,,,,,,,500.8399999999965,,timeout,,,,healthy,,walnut.png,,,,,,,,,,,,,,,walnut,,,,,,,,,,,,,,,,,,,,,,,,,,,,,,,,,,,,,,,,,,,,,,,,,,,,,,,,,false,,,,,,,,,101447,101445.76,100944.94,100933,100961.6,101462.44,,,,
Rating,html.Form,2_4_3_1_4_1,2021-05-24T16:02:36.048Z,,,,,,,,,,,,,,,,,,,,,,,,,,,,,,,,,,,,,,,,,,,,,,,,,,,,,,,,,,,,,,,,,,,,,,,,,,,,,,,,,,,,,,,,,,,,,,,,,,,,,,,,,,,,,,,,,,,,2949.5599999999977,,form submission,,,,healthy,,walnut.png,,,,,,,,,,,,,,,walnut,,,,,,,,,,,,,,,,,,,,,,,,,,,,,,,,,,,,,,,,,,,,,,,,,,,,,,,,,false,,,,,,,,,104412,104412,101445.76,101447,101462.44,104435.14,,,,73
rating_sequence,flow.Sequence,2_4_3_1_4,2021-05-24T16:02:36.048Z,,,,,,,,,,,,,,,,,,,,,,,,,,,,,,,,,,,,,,,,,,,,,,,,,,,,,,,,,,,,,,,,,,,,,,,,,,,,,,,,,,,,,,,,,,,,,,,,,,,,,,,,,,,,,,,,,,,,3450.399999999994,,completion,,,,healthy,,walnut.png,,,,,,,,,,,,,,,walnut,,,,,,,,,,,,,,,,,,,,,,,,,,,,,,,,,,,,,,,,,,,,,,,,,,,,,,,,,false,,,,,,,,,104412,104412,100944.94,100933,100961.6,104435.14,,,,
fixCross,canvas.Screen,2_4_3_1_5_0,2021-05-24T16:02:36.556Z,,,,,,,,,,,,,,,,,,,,,,,,,,,,,,,,,,,,,,,,,,,,,,,,,,,,,,,,,,,,,,,,,,,,,,,,,,,,,,,,,,,,,,,,,,,,,,,,,,,,,,,,,,,,,,,,,,,,500.88000000000466,,timeout,,,,healthy,,tomato.png,,,,,,,,,,,,,,,cherry tomato,,,,,,,,,,,,,,,,,,,,,,,,,,,,,,,,,,,,,,,,,,,,,,,,,,,,,,,,,false,,,,,,,,,104921,104919.34,104418.48,104412,104435.14,104936.02,,,,
Rating,html.Form,2_4_3_1_5_1,2021-05-24T16:02:39.335Z,,,,,,,,,,,,,,,,,,,,,,,,,,,,,,,,,,,,,,,,,,,,,,,,,,,,,,,,,,,,,,,,,,,,,,,,,,,,,,,,,,,,,,,,,,,,,,,,,,,,,,,,,,,,,,,,,,,,2763.979999999996,,form submission,,,,healthy,,tomato.png,,,,,,,,,,,,,,,cherry tomato,,,,,,,,,,,,,,,,,,,,,,,,,,,,,,,,,,,,,,,,,,,,,,,,,,,,,,,,,false,,,,,,,,,107700,107700,104919.34,104921,104936.02,107725.12,,,,92
rating_sequence,flow.Sequence,2_4_3_1_5,2021-05-24T16:02:39.335Z,,,,,,,,,,,,,,,,,,,,,,,,,,,,,,,,,,,,,,,,,,,,,,,,,,,,,,,,,,,,,,,,,,,,,,,,,,,,,,,,,,,,,,,,,,,,,,,,,,,,,,,,,,,,,,,,,,,,3264.8600000000006,,completion,,,,healthy,,tomato.png,,,,,,,,,,,,,,,cherry tomato,,,,,,,,,,,,,,,,,,,,,,,,,,,,,,,,,,,,,,,,,,,,,,,,,,,,,,,,,false,,,,,,,,,107700,107700,104418.48,104412,104435.14,107725.12,,,,
fixCross,canvas.Screen,2_4_3_1_6_0,2021-05-24T16:02:39.846Z,,,,,,,,,,,,,,,,,,,,,,,,,,,,,,,,,,,,,,,,,,,,,,,,,,,,,,,,,,,,,,,,,,,,,,,,,,,,,,,,,,,,,,,,,,,,,,,,,,,,,,,,,,,,,,,,,,,,500.74000000000524,,timeout,,,,unhealthy,,ritz.png,,,,,,,,,,,,,,,cracker,,,,,,,,,,,,,,,,,,,,,,,,,,,,,,,,,,,,,,,,,,,,,,,,,,,,,,,,,false,,,,,,,,,108210,108209.2,107708.44,107701,107725.12,108225.86,,,,
Rating,html.Form,2_4_3_1_6_1,2021-05-24T16:02:42.455Z,,,,,,,,,,,,,,,,,,,,,,,,,,,,,,,,,,,,,,,,,,,,,,,,,,,,,,,,,,,,,,,,,,,,,,,,,,,,,,,,,,,,,,,,,,,,,,,,,,,,,,,,,,,,,,,,,,,,2593.1399999999994,,form submission,,,,unhealthy,,ritz.png,,,,,,,,,,,,,,,cracker,,,,,,,,,,,,,,,,,,,,,,,,,,,,,,,,,,,,,,,,,,,,,,,,,,,,,,,,,false,,,,,,,,,110820,110819,108209.2,108211,108225.86,110848.12,,,,100
rating_sequence,flow.Sequence,2_4_3_1_6,2021-05-24T16:02:42.455Z,,,,,,,,,,,,,,,,,,,,,,,,,,,,,,,,,,,,,,,,,,,,,,,,,,,,,,,,,,,,,,,,,,,,,,,,,,,,,,,,,,,,,,,,,,,,,,,,,,,,,,,,,,,,,,,,,,,,3093.8800000000047,,completion,,,,unhealthy,,ritz.png,,,,,,,,,,,,,,,cracker,,,,,,,,,,,,,,,,,,,,,,,,,,,,,,,,,,,,,,,,,,,,,,,,,,,,,,,,,false,,,,,,,,,110820,110819,107708.44,107701,107725.12,110848.12,,,,
fixCross,canvas.Screen,2_4_3_1_7_0,2021-05-24T16:02:42.968Z,,,,,,,,,,,,,,,,,,,,,,,,,,,,,,,,,,,,,,,,,,,,,,,,,,,,,,,,,,,,,,,,,,,,,,,,,,,,,,,,,,,,,,,,,,,,,,,,,,,,,,,,,,,,,,,,,,,,500.70000000001164,,timeout,,,,unhealthy,,nacho.png,,,,,,,,,,,,,,,nacho,,,,,,,,,,,,,,,,,,,,,,,,,,,,,,,,,,,,,,,,,,,,,,,,,,,,,,,,,false,,,,,,,,,111334,111332.16,110831.46,110820,110848.12,111348.82,,,,
Rating,html.Form,2_4_3_1_7_1,2021-05-24T16:02:45.919Z,,,,,,,,,,,,,,,,,,,,,,,,,,,,,,,,,,,,,,,,,,,,,,,,,,,,,,,,,,,,,,,,,,,,,,,,,,,,,,,,,,,,,,,,,,,,,,,,,,,,,,,,,,,,,,,,,,,,2935.179999999993,,form submission,,,,unhealthy,,nacho.png,,,,,,,,,,,,,,,nacho,,,,,,,,,,,,,,,,,,,,,,,,,,,,,,,,,,,,,,,,,,,,,,,,,,,,,,,,,false,,,,,,,,,114285,114284,111332.16,111334,111348.82,114304.14,,,,95
rating_sequence,flow.Sequence,2_4_3_1_7,2021-05-24T16:02:45.919Z,,,,,,,,,,,,,,,,,,,,,,,,,,,,,,,,,,,,,,,,,,,,,,,,,,,,,,,,,,,,,,,,,,,,,,,,,,,,,,,,,,,,,,,,,,,,,,,,,,,,,,,,,,,,,,,,,,,,3435.8800000000047,,completion,,,,unhealthy,,nacho.png,,,,,,,,,,,,,,,nacho,,,,,,,,,,,,,,,,,,,,,,,,,,,,,,,,,,,,,,,,,,,,,,,,,,,,,,,,,false,,,,,,,,,114285,114284,110831.46,110820,110848.12,114304.14,,,,
fixCross,canvas.Screen,2_4_3_1_8_0,2021-05-24T16:02:46.425Z,,,,,,,,,,,,,,,,,,,,,,,,,,,,,,,,,,,,,,,,,,,,,,,,,,,,,,,,,,,,,,,,,,,,,,,,,,,,,,,,,,,,,,,,,,,,,,,,,,,,,,,,,,,,,,,,,,,,501.5599999999977,,timeout,,,,healthy,,cashew.png,,,,,,,,,,,,,,,cashew,,,,,,,,,,,,,,,,,,,,,,,,,,,,,,,,,,,,,,,,,,,,,,,,,,,,,,,,,false,,,,,,,,,114790,114789.04,114287.46,114285,114304.14,114805.7,,,,
Rating,html.Form,2_4_3_1_8_1,2021-05-24T16:02:49.295Z,,,,,,,,,,,,,,,,,,,,,,,,,,,,,,,,,,,,,,,,,,,,,,,,,,,,,,,,,,,,,,,,,,,,,,,,,,,,,,,,,,,,,,,,,,,,,,,,,,,,,,,,,,,,,,,,,,,,2854.300000000003,,form submission,,,,healthy,,cashew.png,,,,,,,,,,,,,,,cashew,,,,,,,,,,,,,,,,,,,,,,,,,,,,,,,,,,,,,,,,,,,,,,,,,,,,,,,,,false,,,,,,,,,117660,117660,114789.04,114791,114805.7,117678.28,,,,81
rating_sequence,flow.Sequence,2_4_3_1_8,2021-05-24T16:02:49.296Z,,,,,,,,,,,,,,,,,,,,,,,,,,,,,,,,,,,,,,,,,,,,,,,,,,,,,,,,,,,,,,,,,,,,,,,,,,,,,,,,,,,,,,,,,,,,,,,,,,,,,,,,,,,,,,,,,,,,3355.8600000000006,,completion,,,,healthy,,cashew.png,,,,,,,,,,,,,,,cashew,,,,,,,,,,,,,,,,,,,,,,,,,,,,,,,,,,,,,,,,,,,,,,,,,,,,,,,,,false,,,,,,,,,117660,117660,114287.46,114285,114304.14,117678.28,,,,
fixCross,canvas.Screen,2_4_3_1_9_0,2021-05-24T16:02:49.798Z,,,,,,,,,,,,,,,,,,,,,,,,,,,,,,,,,,,,,,,,,,,,,,,,,,,,,,,,,,,,,,,,,,,,,,,,,,,,,,,,,,,,,,,,,,,,,,,,,,,,,,,,,,,,,,,,,,,,500.72000000000116,,timeout,,,,healthy,,cucumber.png,,,,,,,,,,,,,,,cucumber,,,,,,,,,,,,,,,,,,,,,,,,,,,,,,,,,,,,,,,,,,,,,,,,,,,,,,,,,false,,,,,,,,,118164,118162.32,117661.62,117661,117678.28,118179,,,,
Rating,html.Form,2_4_3_1_9_1,2021-05-24T16:02:52.271Z,,,,,,,,,,,,,,,,,,,,,,,,,,,,,,,,,,,,,,,,,,,,,,,,,,,,,,,,,,,,,,,,,,,,,,,,,,,,,,,,,,,,,,,,,,,,,,,,,,,,,,,,,,,,,,,,,,,,2457,,form submission,,,,healthy,,cucumber.png,,,,,,,,,,,,,,,cucumber,,,,,,,,,,,,,,,,,,,,,,,,,,,,,,,,,,,,,,,,,,,,,,,,,,,,,,,,,false,,,,,,,,,120636,120636,118162.32,118164,118179,120650.8,,,,72
rating_sequence,flow.Sequence,2_4_3_1_9,2021-05-24T16:02:52.271Z,,,,,,,,,,,,,,,,,,,,,,,,,,,,,,,,,,,,,,,,,,,,,,,,,,,,,,,,,,,,,,,,,,,,,,,,,,,,,,,,,,,,,,,,,,,,,,,,,,,,,,,,,,,,,,,,,,,,2957.720000000001,,completion,,,,healthy,,cucumber.png,,,,,,,,,,,,,,,cucumber,,,,,,,,,,,,,,,,,,,,,,,,,,,,,,,,,,,,,,,,,,,,,,,,,,,,,,,,,false,,,,,,,,,120637,120636,117661.62,117661,117678.28,120650.8,,,,
fixCross,canvas.Screen,2_4_3_1_10_0,2021-05-24T16:02:52.771Z,,,,,,,,,,,,,,,,,,,,,,,,,,,,,,,,,,,,,,,,,,,,,,,,,,,,,,,,,,,,,,,,,,,,,,,,,,,,,,,,,,,,,,,,,,,,,,,,,,,,,,,,,,,,,,,,,,,,500.8799999999901,,timeout,,,,unhealthy,,dried_meat.png,,,,,,,,,,,,,,,dried meat,,,,,,,,,,,,,,,,,,,,,,,,,,,,,,,,,,,,,,,,,,,,,,,,,,,,,,,,,false,,,,,,,,,121136,121135,120634.14,120637,120650.8,121151.68,,,,
Rating,html.Form,2_4_3_1_10_1,2021-05-24T16:02:55.753Z,,,,,,,,,,,,,,,,,,,,,,,,,,,,,,,,,,,,,,,,,,,,,,,,,,,,,,,,,,,,,,,,,,,,,,,,,,,,,,,,,,,,,,,,,,,,,,,,,,,,,,,,,,,,,,,,,,,,2964.320000000007,,form submission,,,,unhealthy,,dried_meat.png,,,,,,,,,,,,,,,dried meat,,,,,,,,,,,,,,,,,,,,,,,,,,,,,,,,,,,,,,,,,,,,,,,,,,,,,,,,,false,,,,,,,,,124118,124116,121135,121137,121151.68,124140.94,,,,72
rating_sequence,flow.Sequence,2_4_3_1_10,2021-05-24T16:02:55.754Z,,,,,,,,,,,,,,,,,,,,,,,,,,,,,,,,,,,,,,,,,,,,,,,,,,,,,,,,,,,,,,,,,,,,,,,,,,,,,,,,,,,,,,,,,,,,,,,,,,,,,,,,,,,,,,,,,,,,3465.199999999997,,completion,,,,unhealthy,,dried_meat.png,,,,,,,,,,,,,,,dried meat,,,,,,,,,,,,,,,,,,,,,,,,,,,,,,,,,,,,,,,,,,,,,,,,,,,,,,,,,false,,,,,,,,,124119,124116,120634.14,120637,120650.8,124140.94,,,,
fixCross,canvas.Screen,2_4_3_1_11_0,2021-05-24T16:02:56.261Z,,,,,,,,,,,,,,,,,,,,,,,,,,,,,,,,,,,,,,,,,,,,,,,,,,,,,,,,,,,,,,,,,,,,,,,,,,,,,,,,,,,,,,,,,,,,,,,,,,,,,,,,,,,,,,,,,,,,501.0200000000041,,timeout,,,,unhealthy,,frie.png,,,,,,,,,,,,,,,frie,,,,,,,,,,,,,,,,,,,,,,,,,,,,,,,,,,,,,,,,,,,,,,,,,,,,,,,,,false,,,,,,,,,124626,124625.28,124124.28,124120,124140.94,124641.96,,,,
Rating,html.Form,2_4_3_1_11_1,2021-05-24T16:03:00.888Z,,,,,,,,,,,,,,,,,,,,,,,,,,,,,,,,,,,,,,,,,,,,,,,,,,,,,,,,,,,,,,,,,,,,,,,,,,,,,,,,,,,,,,,,,,,,,,,,,,,,,,,,,,,,,,,,,,,,4611.039999999994,,form submission,,,,unhealthy,,frie.png,,,,,,,,,,,,,,,frie,,,,,,,,,,,,,,,,,,,,,,,,,,,,,,,,,,,,,,,,,,,,,,,,,,,,,,,,,false,,,,,,,,,129253,129253,124625.28,124627,124641.96,129283.06,,,,79
rating_sequence,flow.Sequence,2_4_3_1_11,2021-05-24T16:03:00.889Z,,,,,,,,,,,,,,,,,,,,,,,,,,,,,,,,,,,,,,,,,,,,,,,,,,,,,,,,,,,,,,,,,,,,,,,,,,,,,,,,,,,,,,,,,,,,,,,,,,,,,,,,,,,,,,,,,,,,5112.059999999998,,completion,,,,unhealthy,,frie.png,,,,,,,,,,,,,,,frie,,,,,,,,,,,,,,,,,,,,,,,,,,,,,,,,,,,,,,,,,,,,,,,,,,,,,,,,,false,,,,,,,,,129254,129253,124124.28,124120,124140.94,129283.06,,,,
fixCross,canvas.Screen,2_4_3_1_12_0,2021-05-24T16:03:01.405Z,,,,,,,,,,,,,,,,,,,,,,,,,,,,,,,,,,,,,,,,,,,,,,,,,,,,,,,,,,,,,,,,,,,,,,,,,,,,,,,,,,,,,,,,,,,,,,,,,,,,,,,,,,,,,,,,,,,,502.5,,timeout,,,,unhealthy,,chips.png,,,,,,,,,,,,,,,potato chip,,,,,,,,,,,,,,,,,,,,,,,,,,,,,,,,,,,,,,,,,,,,,,,,,,,,,,,,,false,,,,,,,,,129770,129768.88,129266.38,129254,129283.06,129785.56,,,,
Rating,html.Form,2_4_3_1_12_1,2021-05-24T16:03:03.776Z,,,,,,,,,,,,,,,,,,,,,,,,,,,,,,,,,,,,,,,,,,,,,,,,,,,,,,,,,,,,,,,,,,,,,,,,,,,,,,,,,,,,,,,,,,,,,,,,,,,,,,,,,,,,,,,,,,,,2354.4400000000023,,form submission,,,,unhealthy,,chips.png,,,,,,,,,,,,,,,potato chip,,,,,,,,,,,,,,,,,,,,,,,,,,,,,,,,,,,,,,,,,,,,,,,,,,,,,,,,,false,,,,,,,,,132141,132140,129768.88,129771,129785.56,132156.24,,,,100
rating_sequence,flow.Sequence,2_4_3_1_12,2021-05-24T16:03:03.777Z,,,,,,,,,,,,,,,,,,,,,,,,,,,,,,,,,,,,,,,,,,,,,,,,,,,,,,,,,,,,,,,,,,,,,,,,,,,,,,,,,,,,,,,,,,,,,,,,,,,,,,,,,,,,,,,,,,,,2856.9400000000023,,completion,,,,unhealthy,,chips.png,,,,,,,,,,,,,,,potato chip,,,,,,,,,,,,,,,,,,,,,,,,,,,,,,,,,,,,,,,,,,,,,,,,,,,,,,,,,false,,,,,,,,,132142,132140,129266.38,129254,129283.06,132156.24,,,,
fixCross,canvas.Screen,2_4_3_1_13_0,2021-05-24T16:03:04.278Z,,,,,,,,,,,,,,,,,,,,,,,,,,,,,,,,,,,,,,,,,,,,,,,,,,,,,,,,,,,,,,,,,,,,,,,,,,,,,,,,,,,,,,,,,,,,,,,,,,,,,,,,,,,,,,,,,,,,501.70000000001164,,timeout,,,,unhealthy,,bretzel.png,,,,,,,,,,,,,,,bretzel,,,,,,,,,,,,,,,,,,,,,,,,,,,,,,,,,,,,,,,,,,,,,,,,,,,,,,,,,false,,,,,,,,,132643,132641.26,132139.56,132142,132156.24,132657.94,,,,
Rating,html.Form,2_4_3_1_13_1,2021-05-24T16:03:06.967Z,,,,,,,,,,,,,,,,,,,,,,,,,,,,,,,,,,,,,,,,,,,,,,,,,,,,,,,,,,,,,,,,,,,,,,,,,,,,,,,,,,,,,,,,,,,,,,,,,,,,,,,,,,,,,,,,,,,,2674.0599999999977,,form submission,,,,unhealthy,,bretzel.png,,,,,,,,,,,,,,,bretzel,,,,,,,,,,,,,,,,,,,,,,,,,,,,,,,,,,,,,,,,,,,,,,,,,,,,,,,,,false,,,,,,,,,135332,135332,132641.26,132643,132657.94,135346.86,,,,100
rating_sequence,flow.Sequence,2_4_3_1_13,2021-05-24T16:03:06.968Z,,,,,,,,,,,,,,,,,,,,,,,,,,,,,,,,,,,,,,,,,,,,,,,,,,,,,,,,,,,,,,,,,,,,,,,,,,,,,,,,,,,,,,,,,,,,,,,,,,,,,,,,,,,,,,,,,,,,3175.7600000000093,,completion,,,,unhealthy,,bretzel.png,,,,,,,,,,,,,,,bretzel,,,,,,,,,,,,,,,,,,,,,,,,,,,,,,,,,,,,,,,,,,,,,,,,,,,,,,,,,false,,,,,,,,,135333,135332,132139.56,132142,132156.24,135346.86,,,,
fixCross,canvas.Screen,2_4_3_1_14_0,2021-05-24T16:03:07.468Z,,,,,,,,,,,,,,,,,,,,,,,,,,,,,,,,,,,,,,,,,,,,,,,,,,,,,,,,,,,,,,,,,,,,,,,,,,,,,,,,,,,,,,,,,,,,,,,,,,,,,,,,,,,,,,,,,,,,500.80000000001746,,timeout,,,,unhealthy,,ham.png,,,,,,,,,,,,,,,ham,,,,,,,,,,,,,,,,,,,,,,,,,,,,,,,,,,,,,,,,,,,,,,,,,,,,,,,,,false,,,,,,,,,135832,135830.98,135330.2,135334,135346.86,135847.66,,,,
Rating,html.Form,2_4_3_1_14_1,2021-05-24T16:03:10.135Z,,,,,,,,,,,,,,,,,,,,,,,,,,,,,,,,,,,,,,,,,,,,,,,,,,,,,,,,,,,,,,,,,,,,,,,,,,,,,,,,,,,,,,,,,,,,,,,,,,,,,,,,,,,,,,,,,,,,2651.3399999999965,,form submission,,,,unhealthy,,ham.png,,,,,,,,,,,,,,,ham,,,,,,,,,,,,,,,,,,,,,,,,,,,,,,,,,,,,,,,,,,,,,,,,,,,,,,,,,false,,,,,,,,,138500,138499,135830.98,135833,135847.66,138518.78,,,,82
rating_sequence,flow.Sequence,2_4_3_1_14,2021-05-24T16:03:10.135Z,,,,,,,,,,,,,,,,,,,,,,,,,,,,,,,,,,,,,,,,,,,,,,,,,,,,,,,,,,,,,,,,,,,,,,,,,,,,,,,,,,,,,,,,,,,,,,,,,,,,,,,,,,,,,,,,,,,,3152.140000000014,,completion,,,,unhealthy,,ham.png,,,,,,,,,,,,,,,ham,,,,,,,,,,,,,,,,,,,,,,,,,,,,,,,,,,,,,,,,,,,,,,,,,,,,,,,,,false,,,,,,,,,138500,138499,135330.2,135334,135346.86,138518.78,,,,
fixCross,canvas.Screen,2_4_3_1_15_0,2021-05-24T16:03:10.640Z,,,,,,,,,,,,,,,,,,,,,,,,,,,,,,,,,,,,,,,,,,,,,,,,,,,,,,,,,,,,,,,,,,,,,,,,,,,,,,,,,,,,,,,,,,,,,,,,,,,,,,,,,,,,,,,,,,,,501.86000000001513,,timeout,,,,healthy,,carrot.png,,,,,,,,,,,,,,,carrot,,,,,,,,,,,,,,,,,,,,,,,,,,,,,,,,,,,,,,,,,,,,,,,,,,,,,,,,,false,,,,,,,,,139006,139003.98,138502.12,138500,138518.78,139020.64,,,,
Rating,html.Form,2_4_3_1_15_1,2021-05-24T16:03:14.433Z,,,,,,,,,,,,,,,,,,,,,,,,,,,,,,,,,,,,,,,,,,,,,,,,,,,,,,,,,,,,,,,,,,,,,,,,,,,,,,,,,,,,,,,,,,,,,,,,,,,,,,,,,,,,,,,,,,,,3776.359999999986,,form submission,,,,healthy,,carrot.png,,,,,,,,,,,,,,,carrot,,,,,,,,,,,,,,,,,,,,,,,,,,,,,,,,,,,,,,,,,,,,,,,,,,,,,,,,,false,,,,,,,,,142798,142797,139003.98,139006,139020.64,142827.02,,,,83
rating_sequence,flow.Sequence,2_4_3_1_15,2021-05-24T16:03:14.434Z,,,,,,,,,,,,,,,,,,,,,,,,,,,,,,,,,,,,,,,,,,,,,,,,,,,,,,,,,,,,,,,,,,,,,,,,,,,,,,,,,,,,,,,,,,,,,,,,,,,,,,,,,,,,,,,,,,,,4278.220000000001,,completion,,,,healthy,,carrot.png,,,,,,,,,,,,,,,carrot,,,,,,,,,,,,,,,,,,,,,,,,,,,,,,,,,,,,,,,,,,,,,,,,,,,,,,,,,false,,,,,,,,,142800,142797,138502.12,138500,138518.78,142827.02,,,,
fixCross,canvas.Screen,2_4_3_1_16_0,2021-05-24T16:03:14.949Z,,,,,,,,,,,,,,,,,,,,,,,,,,,,,,,,,,,,,,,,,,,,,,,,,,,,,,,,,,,,,,,,,,,,,,,,,,,,,,,,,,,,,,,,,,,,,,,,,,,,,,,,,,,,,,,,,,,,502.20000000001164,,timeout,,,,healthy,,edamame.png,,,,,,,,,,,,,,,edamame,,,,,,,,,,,,,,,,,,,,,,,,,,,,,,,,,,,,,,,,,,,,,,,,,,,,,,,,,false,,,,,,,,,143314,143312.54,142810.36,142801,142827.02,143329.22,,,,
Rating,html.Form,2_4_3_1_16_1,2021-05-24T16:03:17.840Z,,,,,,,,,,,,,,,,,,,,,,,,,,,,,,,,,,,,,,,,,,,,,,,,,,,,,,,,,,,,,,,,,,,,,,,,,,,,,,,,,,,,,,,,,,,,,,,,,,,,,,,,,,,,,,,,,,,,2874.779999999999,,form submission,,,,healthy,,edamame.png,,,,,,,,,,,,,,,edamame,,,,,,,,,,,,,,,,,,,,,,,,,,,,,,,,,,,,,,,,,,,,,,,,,,,,,,,,,false,,,,,,,,,146204,146204,143312.54,143314,143329.22,146235.04,,,,64
rating_sequence,flow.Sequence,2_4_3_1_16,2021-05-24T16:03:17.840Z,,,,,,,,,,,,,,,,,,,,,,,,,,,,,,,,,,,,,,,,,,,,,,,,,,,,,,,,,,,,,,,,,,,,,,,,,,,,,,,,,,,,,,,,,,,,,,,,,,,,,,,,,,,,,,,,,,,,3376.9800000000105,,completion,,,,healthy,,edamame.png,,,,,,,,,,,,,,,edamame,,,,,,,,,,,,,,,,,,,,,,,,,,,,,,,,,,,,,,,,,,,,,,,,,,,,,,,,,false,,,,,,,,,146205,146204,142810.36,142800,142827.02,146235.04,,,,
fixCross,canvas.Screen,2_4_3_1_17_0,2021-05-24T16:03:18.356Z,,,,,,,,,,,,,,,,,,,,,,,,,,,,,,,,,,,,,,,,,,,,,,,,,,,,,,,,,,,,,,,,,,,,,,,,,,,,,,,,,,,,,,,,,,,,,,,,,,,,,,,,,,,,,,,,,,,,500.9400000000023,,timeout,,,,healthy,,pickle.png,,,,,,,,,,,,,,,pickle,,,,,,,,,,,,,,,,,,,,,,,,,,,,,,,,,,,,,,,,,,,,,,,,,,,,,,,,,false,,,,,,,,,146721,146719.3,146218.38,146205,146235.04,146735.98,,,,
Rating,html.Form,2_4_3_1_17_1,2021-05-24T16:03:20.784Z,,,,,,,,,,,,,,,,,,,,,,,,,,,,,,,,,,,,,,,,,,,,,,,,,,,,,,,,,,,,,,,,,,,,,,,,,,,,,,,,,,,,,,,,,,,,,,,,,,,,,,,,,,,,,,,,,,,,2412.0199999999895,,form submission,,,,healthy,,pickle.png,,,,,,,,,,,,,,,pickle,,,,,,,,,,,,,,,,,,,,,,,,,,,,,,,,,,,,,,,,,,,,,,,,,,,,,,,,,false,,,,,,,,,149149,149148,146719.3,146722,146735.98,149173.8,,,,100
rating_sequence,flow.Sequence,2_4_3_1_17,2021-05-24T16:03:20.784Z,,,,,,,,,,,,,,,,,,,,,,,,,,,,,,,,,,,,,,,,,,,,,,,,,,,,,,,,,,,,,,,,,,,,,,,,,,,,,,,,,,,,,,,,,,,,,,,,,,,,,,,,,,,,,,,,,,,,2912.959999999992,,completion,,,,healthy,,pickle.png,,,,,,,,,,,,,,,pickle,,,,,,,,,,,,,,,,,,,,,,,,,,,,,,,,,,,,,,,,,,,,,,,,,,,,,,,,,false,,,,,,,,,149150,149148,146218.38,146205,146235.04,149173.8,,,,
rating_loop,flow.Loop,2_4_3_1,2021-05-24T16:03:20.785Z,,,,,,,,,,,,,,,,,,,,,,,,,,,,,,,,,,,,,,,,,,,,,,,,,,,,,,,,,,,,,,,,,,,,,,,,,,,,,,,,,,,,,,,,,,,,,,,,,,,,,,,,,,,,,,,,,,,,66288.96,,completion,,,,,,,,,,,,,,,,,,,,,,,,,,,,,,,,,,,,,,,,,,,,,,,,,,,,,,,,,,,,,,,,,,,,,,,,,,,,,,false,,,,,,,,,149150,149148,82847.96,82847,82859.04,149173.8,,,,
data_transmission,html.Screen,2_4_3_2,2021-05-24T16:03:20.786Z,,,,,,,,,,,,,,,,,,,,,,,,,,,,,,,,,,,,,,,,,,,,,,,,,,,,,,,,,,,,,,,,,,,,,,,,,,,,,,,,,,,,,,,,,,,,,,,,,,,,,,,,,,,,,,,,,,,,NaN,,no compatible backend,,,,,,,,,,,,,,,Transferring data,,,,,,,,,,,,,,,,,,,,,,,,,,,,,,,,,,,,,,,,,,,,,,,,,,,,,,,,,,,,,,,false,,,Please wait a second…,,,,,,149152,149151,,149150,,149173.8,,,,
instructions,html.Screen,2_4_3_3,2021-05-24T16:04:28.489Z,,,,,,,,,,,,,,,,,,,,,,,,,,,,,,,,,,,,,,,,,,,,,,,,,,,,,,,,,,,,,,,,,,,,,,,,,,,,,,,,,,,,,,,,,,,,,,,,,,,,,,,,,,,,,,,,,,,,67678.20000000001,,done,,,,,,,,,,,,,,,,,,,,,,,,,,,,,,,,,,,,,,,,,,,,,,,,,,,,,,,,,,,,,,,,,,,,,,,,,,,,,,false,,,,,,,,,216854,216852,149157.12,149152,149173.8,216859.42,,,,
Q1,html.Screen,2_4_3_4_0,2021-05-24T16:04:38.261Z,,,,,,,,,,,,,,,,,,,,,,,,,,,,,,,,,,,,,,,,,,,,,,,,,,,,,,,,,,,,,,,,,,,,,,,,,,,,,,,,,,,,,,,,,,,,,,,,,,,,,,,,,,,,,,,,false,input_Q1==3,,,9754.579999999987,,response,,,,,,,,,,,,,,,,,,,,,,,,,Q1_i4,Q1_i2,Q1_i3,Q1_i1,4,2,3,1,false,false,correct,false,,,,,,,,,,,,,,,,,,,,,,,,,,,,,,,,,,,,,,,,,click #Q1_i3,false,,,,,,,,,226626,226614,216857.22,216857,216859.42,226645.6,,,,
Q1_correct,html.Screen,2_4_3_4_1,2021-05-24T16:04:40.047Z,,,,,,,,,,,,,,,,,,,,,,,,,,,,,,,,,,,,,,,,,,,,,,,,,,,,,,,,,,,,,,,,,,,,,,,,,,,,,,,,,,,,,,,,,,,,,,,,,,,,,,,,,,,,,,,,,,,,1750.3999999999942,,response,,,,,,,,,,,,,,,,,,,,,,,,,,,,,,,,,,,,,,,,,,,,,,,,,,,,,,,,,,,,,,,,,,,,,,,,,,,,,keypress,false,,,,,,,,,228412,228396,226628.94,226627,226645.6,228415.8,,,,
Q2,html.Screen,2_4_3_4_2,2021-05-24T16:04:45.117Z,,,,,,,,,,,,,,,,,,,,,,,,,,,,,,,,,,,,,,,,,,,,,,,,,,,,,,,,,,,,,,,,,,,,,,,,,,,,,,,,,,,,,,,,,,,,,,,,,,,,,,,,,,,,,,,,,,,,5058.200000000012,,response,,,,,,,,,,,,,,,,,,,,,,,,,,,,,,,,,,,,,Q2_i1,Q2_i2,Q2_i3,Option 1,Option 2,Same amount,correct,opt2,same,,,,,,,,,,,,,,,,,,,,,,,,,,,,,,,,click #Q2_i1,false,,,,,,,,,233482,233474,228413.38,228413,228415.8,233509.26,,,,
Q2_correct,html.Screen,2_4_3_4_3,2021-05-24T16:04:47.214Z,,,,,,,,,,,,,,,,,,,,,,,,,,,,,,,,,,,,,,,,,,,,,,,,,,,,,,,,,,,,,,,,,,,,,,,,,,,,,,,,,,,,,,,,,,,,,,,,,,,,,,,,,,,,,,,,,,,,2058.7399999999907,,response,,,,,,,,,,,,,,,,,,,,,,,,,,,,,,,,,,,,,,,,,,,,,,,,,,,,,,,,,,,,,,,,,,,,,,,,,,,,,keypress,false,,,,,,,,,235579,235568,233492.6,233483,233509.26,235596.76,,,,
Q4,html.Screen,2_4_3_4_4,2021-05-24T16:04:55.781Z,,,,,,,,,,,,,,,,,,,,,,,,,,,,,,,,,,,,,,,,,,,,,,,,,,,,,,,,,,,,,,,,,,,,,,,,,,,,,,,,,,,,,,,,,,,,,,,,,,,,,,,,,,,,,,,,,,,,8533.23999999999,,response,,,,,,,,,,,,,,,,,,,,,,,,,,,,,,,,,,,,,,,,,,,,,,Q4_i2,Q4_i1,Q4_i3,Q4_i4,Indicate the number of food items in each snack option,Press the arrow key that corresponds with the snack option I prefer,Press the arrow key that corresponds with the snack option with more food items,Press the space key,indicate,correct,morefood,pressspace,,,,,,,,,,,,,,,,,,,,click #Q4_i1,false,,,,,,,,,244145,244130,235580.22,235579,235596.76,244163.8,,,,
Q4_correct,html.Screen,2_4_3_4_5,2021-05-24T16:04:57.590Z,,,,,,,,,,,,,,,,,,,,,,,,,,,,,,,,,,,,,,,,,,,,,,,,,,,,,,,,,,,,,,,,,,,,,,,,,,,,,,,,,,,,,,,,,,,,,,,,,,,,,,,,,,,,,,,,,,,,1778.2000000000116,,response,,,,,,,,,,,,,,,,,,,,,,,,,,,,,,,,,,,,,,,,,,,,,,,,,,,,,,,,,,,,,,,,,,,,,,,,,,,,,keypress,false,,,,,,,,,245955,245942,244147.14,244146,244163.8,245967.42,,,,
Q5,html.Screen,2_4_3_4_6,2021-05-24T16:05:07.797Z,,,,,,,,,,,,,,,,,,,,,,,,,,,,,,,,,,,,,,,,,,,,,,,,,,,,,,,,,,,,,,,,,,,,,,,,,,,,,,,,,,,,,,,,,,,,,,,,,,,,,,,,,,,,,,,,,,,,10177.579999999987,,response,,,,,,,,,,,,,,,,,,,,,,,,,,,,,,,,,,,,,,,,,,,,,,,,,,,,,,,,,,Q5_i1,Q5_i2,Q5_i3,Q5_i4,Snack Option 2 has been chosen,There are more pieces of chocolate in snack Option 2,There are more slices of kiwi in snack Option 1,Snack Option 1 has been chosen,correct,morechoc2,morekiwi1,chose1,,,,,,,,click #Q5_i1,false,,,,,,,,,256162,256145,245955.9,245956,245967.42,256187.82,,,,
Q5_correct,html.Screen,2_4_3_4_7,2021-05-24T16:05:09.575Z,,,,,,,,,,,,,,,,,,,,,,,,,,,,,,,,,,,,,,,,,,,,,,,,,,,,,,,,,,,,,,,,,,,,,,,,,,,,,,,,,,,,,,,,,,,,,,,,,,,,,,,,,,,,,,,,,,,,1740.179999999993,,response,,,,,,,,,,,,,,,,,,,,,,,,,,,,,,,,,,,,,,,,,,,,,,,,,,,,,,,,,,,,,,,,,,,,,,,,,,,,,keypress,false,,,,,,,,,257940,257928,256171.16,256162,256187.82,257958.04,,,,
practice_sequence,flow.Sequence,2_4_3_4,2021-05-24T16:05:09.575Z,,,,,,,,,,,,,,,,,,,,,,,,,,,,,,,,,,,,,,,,,,,,,,,,,,,,,,,,,,,,,,,,,,,,,,,,,,,,,,,,,,,,,,,,,,,,,,,,,,,,,,,,,,,,,,,,,,,,41068.57999999999,,completion,,,,,,,,,,,,,,,,,,,,,,,,,,,,,,,,,,,,,,,,,,,,,,,,,,,,,,,,,,,,,,,,,,,,,,,,,,,,,,false,,,,,,,,,257940,257928,216857.22,216857,216859.42,257958.04,,,,
final_instru,html.Screen,2_4_3_5,2021-05-24T16:05:22.102Z,,,,,,,,,,,,,,,,,,,,,,,,,,,,,,,,,,,,,,,,,,,,,,,,,,,,,,,,,,,,,,,,,,,,,,,,,,,,,,,,,,,,,,,,,,,,,,,,,,,,,,,,,,,,,,,,,,,,12508.959999999992,,done,,,,,,,,,,,,,,,,,,,,,,,,,,,,,,,,,,,,,,,,,,,,,,,,,,,,,,,,,,,,,,,,,,,,,,,,,,,,,,false,,,,,,,,,270467,270467,257941.3,257940,257958.04,270482.98,,,,
blank_screen,canvas.Screen,2_4_3_6_0,2021-05-24T16:05:24.107Z,,,,,,,,,,,,,,,,,,,,,,,,,,,,,,,,,,,,,,,,,,,,,,,,,,,,,,,,,,,,,,,,,,,,,,,,,,,,,,,,,,,,,,,,,,,,,,,,,,,,,,,,,,,,,,,,,,,,2037.0400000000373,,timeout,,,,,,,,,,,,,,,,,,,,,,,,,,,,,,,,,,,,,,,,,,,,,,,,,,,,,,,,,,,,,,,,,,,,,,,,,,,,,,false,,,,,,,,,272471,272470.02,270468.48,270468,270482.98,272520.02,,,,
fixCross,canvas.Screen,2_4_3_6_1_0_0_0_0_0_0,2021-05-24T16:05:24.440Z,,,blank.png,blank.png,blank.png,blank.png,blank.png,blank.png,blank.png,"[""ritz.png""]",blank.png,blank.png,blank.png,blank.png,blank.png,,,,,,,,,,,,,,,,,,,,,,,,,,,,,"[""ritz.png""]","[""pickle.png""]",PB18.png,,,,,,,,,,,0,6,"[""pickle.png""]","[""pickle.png""]","[""pickle.png""]","[""pickle.png""]","[""pickle.png""]","[""pickle.png""]",blank.png,PB18.png,PB07.png,"[""pickle.png""]","[""pickle.png""]","[""pickle.png""]","[""pickle.png""]","[""pickle.png""]","[""pickle.png""]","[""pickle.png""]",blank.png,blank.png,blank.png,blank.png,blank.png,1,"[""ritz.png""]",blank.png,blank.png,blank.png,1,"[""pickle.png""]",blank.png,blank.png,blank.png,blank.png,blank.png,PB07.png,,,,,,,,,,,1,,,,,,,,,,,,,451.179999999993,,timeout,,,,,,,,,,,,,4,,,,,,,,,,,,,,,,,,,,,,,,,,,,,,,,,,,,,,,,,,,,,,,,,,,,,,,,,"[""pickle.png""]","[""ritz.png""]",,,,2,,,false,,1,,,,,,,272805,272803.34,272470.02,272531,272520.02,272971.2,1,,,
timeout,canvas.Screen,2_4_3_6_1_0_0_0_0_0_1,2021-05-24T16:05:25.092Z,,,blank.png,blank.png,blank.png,blank.png,blank.png,blank.png,blank.png,"[""ritz.png""]",blank.png,blank.png,blank.png,blank.png,blank.png,,,,,,,,,,,,,,,,,,,,,,,,,,,,,"[""ritz.png""]","[""pickle.png""]",PB18.png,,,,,,,,,,,0,6,"[""pickle.png""]","[""pickle.png""]","[""pickle.png""]","[""pickle.png""]","[""pickle.png""]","[""pickle.png""]",blank.png,PB18.png,PB07.png,"[""pickle.png""]","[""pickle.png""]","[""pickle.png""]","[""pickle.png""]","[""pickle.png""]","[""pickle.png""]","[""pickle.png""]",blank.png,blank.png,blank.png,blank.png,blank.png,1,"[""ritz.png""]",blank.png,blank.png,blank.png,1,"[""pickle.png""]",blank.png,blank.png,blank.png,blank.png,blank.png,PB07.png,,,,,,,,,,,1,,,,,,,,,,,,,617.9599999999627,,timeout,,,,,,,,,,,,,4,,,,,,,,,,,,,,,,,,,,,,,,,,,,,,,,,,,,,,,,,,,,,,,,,,,,,,,,,"[""pickle.png""]","[""ritz.png""]",,,,2,,,false,,1,,,,,,,273457,273455.28,272803.34,272929,272971.2,273589.16,,,,
choice,canvas.Screen,2_4_3_6_1_0_0_0_0_0_2,2021-05-24T16:05:29.822Z,,,blank.png,blank.png,blank.png,blank.png,blank.png,blank.png,blank.png,"[""ritz.png""]",blank.png,blank.png,blank.png,blank.png,blank.png,,,,,,,,,,,,,,,,,,,,,,,,,,,,,"[""ritz.png""]","[""pickle.png""]",PB18.png,,,,,,,,,,,0,6,"[""pickle.png""]","[""pickle.png""]","[""pickle.png""]","[""pickle.png""]","[""pickle.png""]","[""pickle.png""]",blank.png,PB18.png,PB07.png,"[""pickle.png""]","[""pickle.png""]","[""pickle.png""]","[""pickle.png""]","[""pickle.png""]","[""pickle.png""]","[""pickle.png""]",blank.png,blank.png,blank.png,blank.png,blank.png,1,"[""ritz.png""]",blank.png,blank.png,blank.png,1,"[""pickle.png""]",blank.png,blank.png,blank.png,blank.png,blank.png,PB07.png,,,,,,,,,,,1,,,,,,,,,,,,,4588.840000000026,,response,,,,,,,,,,,,,4,,,,,,,,,,,,,,,,,,,,,,,,,,,,,,,,,,,,,,,,,,,,,,,,,,,,,,,,,"[""pickle.png""]","[""ritz.png""]",,,,2,left,keydown(ArrowLeft),false,,1,,,,,,,278187,278178,273455.28,273584,273589.16,278214.96,,1,,
square,canvas.Screen,2_4_3_6_1_0_0_0_0_0_3,2021-05-24T16:05:30.836Z,,,blank.png,blank.png,blank.png,blank.png,blank.png,blank.png,blank.png,"[""ritz.png""]",blank.png,blank.png,blank.png,blank.png,blank.png,,,,,,,,,,,,,,,,,,,,,,,,,,,,,"[""ritz.png""]","[""pickle.png""]",PB18.png,,,,,,,,,,,0,6,"[""pickle.png""]","[""pickle.png""]","[""pickle.png""]","[""pickle.png""]","[""pickle.png""]","[""pickle.png""]",blank.png,PB18.png,PB07.png,"[""pickle.png""]","[""pickle.png""]","[""pickle.png""]","[""pickle.png""]","[""pickle.png""]","[""pickle.png""]","[""pickle.png""]",blank.png,blank.png,blank.png,blank.png,blank.png,1,"[""ritz.png""]",blank.png,blank.png,blank.png,1,"[""pickle.png""]",blank.png,blank.png,blank.png,blank.png,blank.png,PB07.png,,,,,,,,,,,1,,,#33ff3f,#808080,,,,,,,,,1001.8399999999674,,timeout,,,,,,,,,,,,,4,,,,,,,,,,,,,,,,,,,,,,,,,,,,,,,,,,,,,,,,,,,,,,,,,,,,,,,,,"[""pickle.png""]","[""ritz.png""]",,,,2,,,false,,1,,,,,black,white,279201,279200.14,278210.68,278211,278214.96,279216.8,,,,
ITI_late,canvas.Screen,2_4_3_6_1_0_0_0_0_0_4,2021-05-24T16:05:32.089Z,,,blank.png,blank.png,blank.png,blank.png,blank.png,blank.png,blank.png,"[""ritz.png""]",blank.png,blank.png,blank.png,blank.png,blank.png,,,,,,,,,,,,,,,,,,,,,,,,,,,,,"[""ritz.png""]","[""pickle.png""]",PB18.png,,,,,,,,,,,0,6,"[""pickle.png""]","[""pickle.png""]","[""pickle.png""]","[""pickle.png""]","[""pickle.png""]","[""pickle.png""]",blank.png,PB18.png,PB07.png,"[""pickle.png""]","[""pickle.png""]","[""pickle.png""]","[""pickle.png""]","[""pickle.png""]","[""pickle.png""]","[""pickle.png""]",blank.png,blank.png,blank.png,blank.png,blank.png,1,"[""ritz.png""]",blank.png,blank.png,blank.png,1,"[""pickle.png""]",blank.png,blank.png,blank.png,blank.png,blank.png,PB07.png,,,,,,,,,,,1,,,,,,,,,,,,,1252.4400000000023,,timeout,,,,,,,,,,,,white,4,,,,,,,,,,,,,,,,,,,,,,,,,,,,,,,,,,,,,,,,,,,,,,,,,,,,,,,,,"[""pickle.png""]","[""ritz.png""]",,,,2,,,false,,1,,,,,,,280454,280452.58,279200.14,279205,279216.8,280469.24,,,,
choice_sequence,flow.Sequence,2_4_3_6_1_0_0_0_0_0,2021-05-24T16:05:32.090Z,,,blank.png,blank.png,blank.png,blank.png,blank.png,blank.png,blank.png,"[""ritz.png""]",blank.png,blank.png,blank.png,blank.png,blank.png,,,,,,,,,,,,,,,,,,,,,,,,,,,,,"[""ritz.png""]","[""pickle.png""]",PB18.png,,,,,,,,,,,0,6,"[""pickle.png""]","[""pickle.png""]","[""pickle.png""]","[""pickle.png""]","[""pickle.png""]","[""pickle.png""]",blank.png,PB18.png,PB07.png,"[""pickle.png""]","[""pickle.png""]","[""pickle.png""]","[""pickle.png""]","[""pickle.png""]","[""pickle.png""]","[""pickle.png""]",blank.png,blank.png,blank.png,blank.png,blank.png,1,"[""ritz.png""]",blank.png,blank.png,blank.png,1,"[""pickle.png""]",blank.png,blank.png,blank.png,blank.png,blank.png,PB07.png,,,,,,,,,,,1,,,,,,,,,,,,,7932.559999999998,,completion,,,,,,,,,,,,,4,,,,,,,,,,,,,,,,,,,,,,,,,,,,,,,,,,,,,,,,,,,,,,,,,,,,,,,,,"[""pickle.png""]","[""ritz.png""]",,,,2,,,false,,1,,,,,,,280455,280452.58,272470.02,272529,272520.02,280469.24,,,,
fixCross,canvas.Screen,2_4_3_6_1_0_0_0_0_1_0,2021-05-24T16:05:32.339Z,,,blank.png,"[""ritz.png""]",blank.png,blank.png,blank.png,blank.png,blank.png,blank.png,blank.png,blank.png,blank.png,blank.png,blank.png,,,,,,,,,,,,,,,,,,,,,,,,,,,,,"[""ritz.png""]","[""pickle.png""]",PB14.png,,,,,,,,,,,0,6,"[""pickle.png""]","[""pickle.png""]","[""pickle.png""]","[""pickle.png""]","[""pickle.png""]","[""pickle.png""]",blank.png,PB18.png,PB18.png,"[""pickle.png""]","[""pickle.png""]","[""pickle.png""]",blank.png,blank.png,blank.png,"[""pickle.png""]","[""pickle.png""]","[""pickle.png""]","[""pickle.png""]","[""pickle.png""]","[""pickle.png""]",1,"[""ritz.png""]",blank.png,blank.png,blank.png,3,"[""pickle.png""]","[""pickle.png""]","[""pickle.png""]",blank.png,blank.png,blank.png,PB14.png,,,,,,,,,,,1,,,,,,,,,,,,,300.88000000000466,,timeout,,,,,,,,,,,,,3,,,,,,,,,,,,,,,,,,,,,,,,,,,,,,,,,,,,,,,,,,,,,,,,,,,,,,,,,"[""pickle.png""]","[""ritz.png""]",,,,2,,,false,,1,,,,,,,280704,280702.58,280452.58,280469,280469.24,280770.12,2,,,
timeout,canvas.Screen,2_4_3_6_1_0_0_0_0_1_1,2021-05-24T16:05:32.890Z,,,blank.png,"[""ritz.png""]",blank.png,blank.png,blank.png,blank.png,blank.png,blank.png,blank.png,blank.png,blank.png,blank.png,blank.png,,,,,,,,,,,,,,,,,,,,,,,,,,,,,"[""ritz.png""]","[""pickle.png""]",PB14.png,,,,,,,,,,,0,6,"[""pickle.png""]","[""pickle.png""]","[""pickle.png""]","[""pickle.png""]","[""pickle.png""]","[""pickle.png""]",blank.png,PB18.png,PB18.png,"[""pickle.png""]","[""pickle.png""]","[""pickle.png""]",blank.png,blank.png,blank.png,"[""pickle.png""]","[""pickle.png""]","[""pickle.png""]","[""pickle.png""]","[""pickle.png""]","[""pickle.png""]",1,"[""ritz.png""]",blank.png,blank.png,blank.png,3,"[""pickle.png""]","[""pickle.png""]","[""pickle.png""]",blank.png,blank.png,blank.png,PB14.png,,,,,,,,,,,1,,,,,,,,,,,,,500.64000000001397,,timeout,,,,,,,,,,,,,3,,,,,,,,,,,,,,,,,,,,,,,,,,,,,,,,,,,,,,,,,,,,,,,,,,,,,,,,,"[""pickle.png""]","[""ritz.png""]",,,,2,,,false,,1,,,,,,,281256,281254.1,280702.58,280768,280770.12,281270.76,,,,
choice,canvas.Screen,2_4_3_6_1_0_0_0_0_1_2,2021-05-24T16:05:35.406Z,,,blank.png,"[""ritz.png""]",blank.png,blank.png,blank.png,blank.png,blank.png,blank.png,blank.png,blank.png,blank.png,blank.png,blank.png,,,,,,,,,,,,,,,,,,,,,,,,,,,,,"[""ritz.png""]","[""pickle.png""]",PB14.png,,,,,,,,,,,0,6,"[""pickle.png""]","[""pickle.png""]","[""pickle.png""]","[""pickle.png""]","[""pickle.png""]","[""pickle.png""]",blank.png,PB18.png,PB18.png,"[""pickle.png""]","[""pickle.png""]","[""pickle.png""]",blank.png,blank.png,blank.png,"[""pickle.png""]","[""pickle.png""]","[""pickle.png""]","[""pickle.png""]","[""pickle.png""]","[""pickle.png""]",1,"[""ritz.png""]",blank.png,blank.png,blank.png,3,"[""pickle.png""]","[""pickle.png""]","[""pickle.png""]",blank.png,blank.png,blank.png,PB14.png,,,,,,,,,,,1,,,,,,,,,,,,,2485.2399999999907,,response,,,,,,,,,,,,,3,,,,,,,,,,,,,,,,,,,,,,,,,,,,,,,,,,,,,,,,,,,,,,,,,,,,,,,,,"[""pickle.png""]","[""ritz.png""]",,,,2,right,keydown(ArrowRight),false,,1,,,,,,,283771,283756,281254.1,281276,281270.76,283809.52,,2,,
square,canvas.Screen,2_4_3_6_1_0_0_0_0_1_3,2021-05-24T16:05:36.430Z,,,blank.png,"[""ritz.png""]",blank.png,blank.png,blank.png,blank.png,blank.png,blank.png,blank.png,blank.png,blank.png,blank.png,blank.png,,,,,,,,,,,,,,,,,,,,,,,,,,,,,"[""ritz.png""]","[""pickle.png""]",PB14.png,,,,,,,,,,,0,6,"[""pickle.png""]","[""pickle.png""]","[""pickle.png""]","[""pickle.png""]","[""pickle.png""]","[""pickle.png""]",blank.png,PB18.png,PB18.png,"[""pickle.png""]","[""pickle.png""]","[""pickle.png""]",blank.png,blank.png,blank.png,"[""pickle.png""]","[""pickle.png""]","[""pickle.png""]","[""pickle.png""]","[""pickle.png""]","[""pickle.png""]",1,"[""ritz.png""]",blank.png,blank.png,blank.png,3,"[""pickle.png""]","[""pickle.png""]","[""pickle.png""]",blank.png,blank.png,blank.png,PB14.png,,,,,,,,,,,1,,,#808080,#33ff3f,,,,,,,,,1001.7600000000093,,timeout,,,,,,,,,,,,,3,,,,,,,,,,,,,,,,,,,,,,,,,,,,,,,,,,,,,,,,,,,,,,,,,,,,,,,,,"[""pickle.png""]","[""ritz.png""]",,,,2,,,false,,1,,,,,white,black,284796,284794.62,283793.06,283793,283809.52,284811.28,,,,
ITI_late,canvas.Screen,2_4_3_6_1_0_0_0_0_1_4,2021-05-24T16:05:37.433Z,,,blank.png,"[""ritz.png""]",blank.png,blank.png,blank.png,blank.png,blank.png,blank.png,blank.png,blank.png,blank.png,blank.png,blank.png,,,,,,,,,,,,,,,,,,,,,,,,,,,,,"[""ritz.png""]","[""pickle.png""]",PB14.png,,,,,,,,,,,0,6,"[""pickle.png""]","[""pickle.png""]","[""pickle.png""]","[""pickle.png""]","[""pickle.png""]","[""pickle.png""]",blank.png,PB18.png,PB18.png,"[""pickle.png""]","[""pickle.png""]","[""pickle.png""]",blank.png,blank.png,blank.png,"[""pickle.png""]","[""pickle.png""]","[""pickle.png""]","[""pickle.png""]","[""pickle.png""]","[""pickle.png""]",1,"[""ritz.png""]",blank.png,blank.png,blank.png,3,"[""pickle.png""]","[""pickle.png""]","[""pickle.png""]",blank.png,blank.png,blank.png,PB14.png,,,,,,,,,,,1,,,,,,,,,,,,,1002,,timeout,,,,,,,,,,,,white,3,,,,,,,,,,,,,,,,,,,,,,,,,,,,,,,,,,,,,,,,,,,,,,,,,,,,,,,,,"[""pickle.png""]","[""ritz.png""]",,,,2,,,false,,1,,,,,,,285798,285796.62,284794.62,284800,284811.28,285813.28,,,,
choice_sequence,flow.Sequence,2_4_3_6_1_0_0_0_0_1,2021-05-24T16:05:37.434Z,,,blank.png,"[""ritz.png""]",blank.png,blank.png,blank.png,blank.png,blank.png,blank.png,blank.png,blank.png,blank.png,blank.png,blank.png,,,,,,,,,,,,,,,,,,,,,,,,,,,,,"[""ritz.png""]","[""pickle.png""]",PB14.png,,,,,,,,,,,0,6,"[""pickle.png""]","[""pickle.png""]","[""pickle.png""]","[""pickle.png""]","[""pickle.png""]","[""pickle.png""]",blank.png,PB18.png,PB18.png,"[""pickle.png""]","[""pickle.png""]","[""pickle.png""]",blank.png,blank.png,blank.png,"[""pickle.png""]","[""pickle.png""]","[""pickle.png""]","[""pickle.png""]","[""pickle.png""]","[""pickle.png""]",1,"[""ritz.png""]",blank.png,blank.png,blank.png,3,"[""pickle.png""]","[""pickle.png""]","[""pickle.png""]",blank.png,blank.png,blank.png,PB14.png,,,,,,,,,,,1,,,,,,,,,,,,,5327.380000000005,,completion,,,,,,,,,,,,,3,,,,,,,,,,,,,,,,,,,,,,,,,,,,,,,,,,,,,,,,,,,,,,,,,,,,,,,,,"[""pickle.png""]","[""ritz.png""]",,,,2,,,false,,1,,,,,,,285799,285796.62,280452.58,280466,280469.24,285813.28,,,,
fixCross,canvas.Screen,2_4_3_6_1_0_0_0_0_2_0,2021-05-24T16:05:37.983Z,,,blank.png,blank.png,blank.png,blank.png,blank.png,blank.png,blank.png,"[""ritz.png""]",blank.png,blank.png,blank.png,blank.png,blank.png,,,,,,,,,,,,,,,,,,,,,,,,,,,,,"[""ritz.png""]","[""pickle.png""]",PB18.png,,,,,,,,,,,0,6,"[""pickle.png""]","[""pickle.png""]","[""pickle.png""]","[""pickle.png""]","[""pickle.png""]","[""pickle.png""]",blank.png,PB18.png,PB12.png,"[""pickle.png""]","[""pickle.png""]","[""pickle.png""]","[""pickle.png""]","[""pickle.png""]","[""pickle.png""]","[""pickle.png""]","[""pickle.png""]",blank.png,blank.png,blank.png,blank.png,1,"[""ritz.png""]",blank.png,blank.png,blank.png,2,"[""pickle.png""]","[""pickle.png""]",blank.png,blank.png,blank.png,blank.png,PB12.png,,,,,,,,,,,1,,,,,,,,,,,,,655.5599999999977,,timeout,,,,,,,,,,,,,4,,,,,,,,,,,,,,,,,,,,,,,,,,,,,,,,,,,,,,,,,,,,,,,,,,,,,,,,,"[""pickle.png""]","[""ritz.png""]",,,,2,,,false,,1,,,,,,,286349,286347.6,285796.62,285810,285813.28,286468.84,3,,,
timeout,canvas.Screen,2_4_3_6_1_0_0_0_0_2_1,2021-05-24T16:05:38.585Z,,,blank.png,blank.png,blank.png,blank.png,blank.png,blank.png,blank.png,"[""ritz.png""]",blank.png,blank.png,blank.png,blank.png,blank.png,,,,,,,,,,,,,,,,,,,,,,,,,,,,,"[""ritz.png""]","[""pickle.png""]",PB18.png,,,,,,,,,,,0,6,"[""pickle.png""]","[""pickle.png""]","[""pickle.png""]","[""pickle.png""]","[""pickle.png""]","[""pickle.png""]",blank.png,PB18.png,PB12.png,"[""pickle.png""]","[""pickle.png""]","[""pickle.png""]","[""pickle.png""]","[""pickle.png""]","[""pickle.png""]","[""pickle.png""]","[""pickle.png""]",blank.png,blank.png,blank.png,blank.png,1,"[""ritz.png""]",blank.png,blank.png,blank.png,2,"[""pickle.png""]","[""pickle.png""]",blank.png,blank.png,blank.png,blank.png,PB12.png,,,,,,,,,,,1,,,,,,,,,,,,,496.6599999999744,,timeout,,,,,,,,,,,,,4,,,,,,,,,,,,,,,,,,,,,,,,,,,,,,,,,,,,,,,,,,,,,,,,,,,,,,,,,"[""pickle.png""]","[""ritz.png""]",,,,2,,,false,,1,,,,,,,286950,286948.84,286347.6,286469,286468.84,286965.5,,,,
choice,canvas.Screen,2_4_3_6_1_0_0_0_0_2_2,2021-05-24T16:05:41.390Z,,,blank.png,blank.png,blank.png,blank.png,blank.png,blank.png,blank.png,"[""ritz.png""]",blank.png,blank.png,blank.png,blank.png,blank.png,,,,,,,,,,,,,,,,,,,,,,,,,,,,,"[""ritz.png""]","[""pickle.png""]",PB18.png,,,,,,,,,,,0,6,"[""pickle.png""]","[""pickle.png""]","[""pickle.png""]","[""pickle.png""]","[""pickle.png""]","[""pickle.png""]",blank.png,PB18.png,PB12.png,"[""pickle.png""]","[""pickle.png""]","[""pickle.png""]","[""pickle.png""]","[""pickle.png""]","[""pickle.png""]","[""pickle.png""]","[""pickle.png""]",blank.png,blank.png,blank.png,blank.png,1,"[""ritz.png""]",blank.png,blank.png,blank.png,2,"[""pickle.png""]","[""pickle.png""]",blank.png,blank.png,blank.png,blank.png,PB12.png,,,,,,,,,,,1,,,,,,,,,,,,,2774.5,,response,,,,,,,,,,,,,4,,,,,,,,,,,,,,,,,,,,,,,,,,,,,,,,,,,,,,,,,,,,,,,,,,,,,,,,,"[""pickle.png""]","[""ritz.png""]",,,,2,left,keydown(ArrowLeft),false,,1,,,,,,,289756,289740,286948.84,286972,286965.5,289788.12,,3,,
square,canvas.Screen,2_4_3_6_1_0_0_0_0_2_3,2021-05-24T16:05:42.409Z,,,blank.png,blank.png,blank.png,blank.png,blank.png,blank.png,blank.png,"[""ritz.png""]",blank.png,blank.png,blank.png,blank.png,blank.png,,,,,,,,,,,,,,,,,,,,,,,,,,,,,"[""ritz.png""]","[""pickle.png""]",PB18.png,,,,,,,,,,,0,6,"[""pickle.png""]","[""pickle.png""]","[""pickle.png""]","[""pickle.png""]","[""pickle.png""]","[""pickle.png""]",blank.png,PB18.png,PB12.png,"[""pickle.png""]","[""pickle.png""]","[""pickle.png""]","[""pickle.png""]","[""pickle.png""]","[""pickle.png""]","[""pickle.png""]","[""pickle.png""]",blank.png,blank.png,blank.png,blank.png,1,"[""ritz.png""]",blank.png,blank.png,blank.png,2,"[""pickle.png""]","[""pickle.png""]",blank.png,blank.png,blank.png,blank.png,PB12.png,,,,,,,,,,,1,,,#33ff3f,#808080,,,,,,,,,1001.640000000014,,timeout,,,,,,,,,,,,,4,,,,,,,,,,,,,,,,,,,,,,,,,,,,,,,,,,,,,,,,,,,,,,,,,,,,,,,,,"[""pickle.png""]","[""ritz.png""]",,,,2,,,false,,1,,,,,black,white,290774,290773.08,289775.06,289775,289788.12,290789.76,,,,
ITI_late,canvas.Screen,2_4_3_6_1_0_0_0_0_2_4,2021-05-24T16:05:43.662Z,,,blank.png,blank.png,blank.png,blank.png,blank.png,blank.png,blank.png,"[""ritz.png""]",blank.png,blank.png,blank.png,blank.png,blank.png,,,,,,,,,,,,,,,,,,,,,,,,,,,,,"[""ritz.png""]","[""pickle.png""]",PB18.png,,,,,,,,,,,0,6,"[""pickle.png""]","[""pickle.png""]","[""pickle.png""]","[""pickle.png""]","[""pickle.png""]","[""pickle.png""]",blank.png,PB18.png,PB12.png,"[""pickle.png""]","[""pickle.png""]","[""pickle.png""]","[""pickle.png""]","[""pickle.png""]","[""pickle.png""]","[""pickle.png""]","[""pickle.png""]",blank.png,blank.png,blank.png,blank.png,1,"[""ritz.png""]",blank.png,blank.png,blank.png,2,"[""pickle.png""]","[""pickle.png""]",blank.png,blank.png,blank.png,blank.png,PB12.png,,,,,,,,,,,1,,,,,,,,,,,,,1252.539999999979,,timeout,,,,,,,,,,,,white,4,,,,,,,,,,,,,,,,,,,,,,,,,,,,,,,,,,,,,,,,,,,,,,,,,,,,,,,,,"[""pickle.png""]","[""ritz.png""]",,,,2,,,false,,1,,,,,,,292027,292025.64,290773.08,290778,290789.76,292042.3,,,,
choice_sequence,flow.Sequence,2_4_3_6_1_0_0_0_0_2,2021-05-24T16:05:43.663Z,,,blank.png,blank.png,blank.png,blank.png,blank.png,blank.png,blank.png,"[""ritz.png""]",blank.png,blank.png,blank.png,blank.png,blank.png,,,,,,,,,,,,,,,,,,,,,,,,,,,,,"[""ritz.png""]","[""pickle.png""]",PB18.png,,,,,,,,,,,0,6,"[""pickle.png""]","[""pickle.png""]","[""pickle.png""]","[""pickle.png""]","[""pickle.png""]","[""pickle.png""]",blank.png,PB18.png,PB12.png,"[""pickle.png""]","[""pickle.png""]","[""pickle.png""]","[""pickle.png""]","[""pickle.png""]","[""pickle.png""]","[""pickle.png""]","[""pickle.png""]",blank.png,blank.png,blank.png,blank.png,1,"[""ritz.png""]",blank.png,blank.png,blank.png,2,"[""pickle.png""]","[""pickle.png""]",blank.png,blank.png,blank.png,blank.png,PB12.png,,,,,,,,,,,1,,,,,,,,,,,,,6212.359999999986,,completion,,,,,,,,,,,,,4,,,,,,,,,,,,,,,,,,,,,,,,,,,,,,,,,,,,,,,,,,,,,,,,,,,,,,,,,"[""pickle.png""]","[""ritz.png""]",,,,2,,,false,,1,,,,,,,292027,292025.64,285796.62,285808,285813.28,292042.3,,,,
fixCross,canvas.Screen,2_4_3_6_1_0_0_0_0_3_0,2021-05-24T16:05:43.912Z,,,blank.png,"[""ritz.png""]",blank.png,blank.png,blank.png,blank.png,blank.png,blank.png,blank.png,blank.png,blank.png,blank.png,blank.png,,,,,,,,,,,,,,,,,,,,,,,,,,,,,"[""ritz.png""]","[""pickle.png""]",PB16.png,,,,,,,,,,,0,6,"[""pickle.png""]","[""pickle.png""]","[""pickle.png""]","[""pickle.png""]","[""pickle.png""]","[""pickle.png""]",blank.png,PB18.png,PB18.png,"[""pickle.png""]","[""pickle.png""]","[""pickle.png""]","[""pickle.png""]","[""pickle.png""]",blank.png,"[""pickle.png""]","[""pickle.png""]","[""pickle.png""]","[""pickle.png""]","[""pickle.png""]","[""pickle.png""]",1,"[""ritz.png""]",blank.png,blank.png,blank.png,5,"[""pickle.png""]","[""pickle.png""]","[""pickle.png""]","[""pickle.png""]","[""pickle.png""]",blank.png,PB16.png,,,,,,,,,,,1,,,,,,,,,,,,,300.179999999993,,timeout,,,,,,,,,,,,,3,,,,,,,,,,,,,,,,,,,,,,,,,,,,,,,,,,,,,,,,,,,,,,,,,,,,,,,,,"[""pickle.png""]","[""ritz.png""]",,,,2,,,false,,1,,,,,,,292277,292275.64,292025.64,292038,292042.3,292342.48,4,,,
timeout,canvas.Screen,2_4_3_6_1_0_0_0_0_3_1,2021-05-24T16:05:44.463Z,,,blank.png,"[""ritz.png""]",blank.png,blank.png,blank.png,blank.png,blank.png,blank.png,blank.png,blank.png,blank.png,blank.png,blank.png,,,,,,,,,,,,,,,,,,,,,,,,,,,,,"[""ritz.png""]","[""pickle.png""]",PB16.png,,,,,,,,,,,0,6,"[""pickle.png""]","[""pickle.png""]","[""pickle.png""]","[""pickle.png""]","[""pickle.png""]","[""pickle.png""]",blank.png,PB18.png,PB18.png,"[""pickle.png""]","[""pickle.png""]","[""pickle.png""]","[""pickle.png""]","[""pickle.png""]",blank.png,"[""pickle.png""]","[""pickle.png""]","[""pickle.png""]","[""pickle.png""]","[""pickle.png""]","[""pickle.png""]",1,"[""ritz.png""]",blank.png,blank.png,blank.png,5,"[""pickle.png""]","[""pickle.png""]","[""pickle.png""]","[""pickle.png""]","[""pickle.png""]",blank.png,PB16.png,,,,,,,,,,,1,,,,,,,,,,,,,501.36000000004424,,timeout,,,,,,,,,,,,,3,,,,,,,,,,,,,,,,,,,,,,,,,,,,,,,,,,,,,,,,,,,,,,,,,,,,,,,,,"[""pickle.png""]","[""ritz.png""]",,,,2,,,false,,1,,,,,,,292828,292827.18,292275.64,292342,292342.48,292843.84,,,,
choice,canvas.Screen,2_4_3_6_1_0_0_0_0_3_2,2021-05-24T16:05:47.422Z,,,blank.png,"[""ritz.png""]",blank.png,blank.png,blank.png,blank.png,blank.png,blank.png,blank.png,blank.png,blank.png,blank.png,blank.png,,,,,,,,,,,,,,,,,,,,,,,,,,,,,"[""ritz.png""]","[""pickle.png""]",PB16.png,,,,,,,,,,,0,6,"[""pickle.png""]","[""pickle.png""]","[""pickle.png""]","[""pickle.png""]","[""pickle.png""]","[""pickle.png""]",blank.png,PB18.png,PB18.png,"[""pickle.png""]","[""pickle.png""]","[""pickle.png""]","[""pickle.png""]","[""pickle.png""]",blank.png,"[""pickle.png""]","[""pickle.png""]","[""pickle.png""]","[""pickle.png""]","[""pickle.png""]","[""pickle.png""]",1,"[""ritz.png""]",blank.png,blank.png,blank.png,5,"[""pickle.png""]","[""pickle.png""]","[""pickle.png""]","[""pickle.png""]","[""pickle.png""]",blank.png,PB16.png,,,,,,,,,,,1,,,,,,,,,,,,,2926.1599999999744,,response,,,,,,,,,,,,,3,,,,,,,,,,,,,,,,,,,,,,,,,,,,,,,,,,,,,,,,,,,,,,,,,,,,,,,,,"[""pickle.png""]","[""ritz.png""]",,,,2,left,keydown(ArrowLeft),false,,1,,,,,,,295787,295770,292827.18,292848,292843.84,295816.72,,4,,
square,canvas.Screen,2_4_3_6_1_0_0_0_0_3_3,2021-05-24T16:05:48.438Z,,,blank.png,"[""ritz.png""]",blank.png,blank.png,blank.png,blank.png,blank.png,blank.png,blank.png,blank.png,blank.png,blank.png,blank.png,,,,,,,,,,,,,,,,,,,,,,,,,,,,,"[""ritz.png""]","[""pickle.png""]",PB16.png,,,,,,,,,,,0,6,"[""pickle.png""]","[""pickle.png""]","[""pickle.png""]","[""pickle.png""]","[""pickle.png""]","[""pickle.png""]",blank.png,PB18.png,PB18.png,"[""pickle.png""]","[""pickle.png""]","[""pickle.png""]","[""pickle.png""]","[""pickle.png""]",blank.png,"[""pickle.png""]","[""pickle.png""]","[""pickle.png""]","[""pickle.png""]","[""pickle.png""]","[""pickle.png""]",1,"[""ritz.png""]",blank.png,blank.png,blank.png,5,"[""pickle.png""]","[""pickle.png""]","[""pickle.png""]","[""pickle.png""]","[""pickle.png""]",blank.png,PB16.png,,,,,,,,,,,1,,,#33ff3f,#808080,,,,,,,,,1001.8400000000256,,timeout,,,,,,,,,,,,,3,,,,,,,,,,,,,,,,,,,,,,,,,,,,,,,,,,,,,,,,,,,,,,,,,,,,,,,,,"[""pickle.png""]","[""ritz.png""]",,,,2,,,false,,1,,,,,black,white,296803,296801.9,295809.2,295808,295816.72,296818.56,,,,
ITI_late,canvas.Screen,2_4_3_6_1_0_0_0_0_3_4,2021-05-24T16:05:48.688Z,,,blank.png,"[""ritz.png""]",blank.png,blank.png,blank.png,blank.png,blank.png,blank.png,blank.png,blank.png,blank.png,blank.png,blank.png,,,,,,,,,,,,,,,,,,,,,,,,,,,,,"[""ritz.png""]","[""pickle.png""]",PB16.png,,,,,,,,,,,0,6,"[""pickle.png""]","[""pickle.png""]","[""pickle.png""]","[""pickle.png""]","[""pickle.png""]","[""pickle.png""]",blank.png,PB18.png,PB18.png,"[""pickle.png""]","[""pickle.png""]","[""pickle.png""]","[""pickle.png""]","[""pickle.png""]",blank.png,"[""pickle.png""]","[""pickle.png""]","[""pickle.png""]","[""pickle.png""]","[""pickle.png""]","[""pickle.png""]",1,"[""ritz.png""]",blank.png,blank.png,blank.png,5,"[""pickle.png""]","[""pickle.png""]","[""pickle.png""]","[""pickle.png""]","[""pickle.png""]",blank.png,PB16.png,,,,,,,,,,,1,,,,,,,,,,,,,250,,timeout,,,,,,,,,,,,white,3,,,,,,,,,,,,,,,,,,,,,,,,,,,,,,,,,,,,,,,,,,,,,,,,,,,,,,,,,"[""pickle.png""]","[""ritz.png""]",,,,2,,,false,,1,,,,,,,297053,297051.9,296801.9,296807,296818.56,297068.56,,,,
choice_sequence,flow.Sequence,2_4_3_6_1_0_0_0_0_3,2021-05-24T16:05:48.689Z,,,blank.png,"[""ritz.png""]",blank.png,blank.png,blank.png,blank.png,blank.png,blank.png,blank.png,blank.png,blank.png,blank.png,blank.png,,,,,,,,,,,,,,,,,,,,,,,,,,,,,"[""ritz.png""]","[""pickle.png""]",PB16.png,,,,,,,,,,,0,6,"[""pickle.png""]","[""pickle.png""]","[""pickle.png""]","[""pickle.png""]","[""pickle.png""]","[""pickle.png""]",blank.png,PB18.png,PB18.png,"[""pickle.png""]","[""pickle.png""]","[""pickle.png""]","[""pickle.png""]","[""pickle.png""]",blank.png,"[""pickle.png""]","[""pickle.png""]","[""pickle.png""]","[""pickle.png""]","[""pickle.png""]","[""pickle.png""]",1,"[""ritz.png""]",blank.png,blank.png,blank.png,5,"[""pickle.png""]","[""pickle.png""]","[""pickle.png""]","[""pickle.png""]","[""pickle.png""]",blank.png,PB16.png,,,,,,,,,,,1,,,,,,,,,,,,,5009.600000000035,,completion,,,,,,,,,,,,,3,,,,,,,,,,,,,,,,,,,,,,,,,,,,,,,,,,,,,,,,,,,,,,,,,,,,,,,,,"[""pickle.png""]","[""ritz.png""]",,,,2,,,false,,1,,,,,,,297054,297051.9,292025.64,292036,292042.3,297068.56,,,,
fixCross,canvas.Screen,2_4_3_6_1_0_0_0_0_4_0,2021-05-24T16:05:49.390Z,,,blank.png,blank.png,blank.png,blank.png,blank.png,blank.png,blank.png,"[""ritz.png""]",blank.png,blank.png,blank.png,blank.png,blank.png,,,,,,,,,,,,,,,,,,,,,,,,,,,,,"[""ritz.png""]","[""pickle.png""]",PB18.png,,,,,,,,,,,0,6,"[""pickle.png""]","[""pickle.png""]","[""pickle.png""]","[""pickle.png""]","[""pickle.png""]","[""pickle.png""]",blank.png,PB18.png,PB01.png,"[""pickle.png""]","[""pickle.png""]","[""pickle.png""]","[""pickle.png""]","[""pickle.png""]","[""pickle.png""]",blank.png,blank.png,blank.png,blank.png,blank.png,blank.png,1,"[""ritz.png""]",blank.png,blank.png,blank.png,0,blank.png,blank.png,blank.png,blank.png,blank.png,blank.png,PB01.png,,,,,,,,,,,1,,,,,,,,,,,,,869.1199999999953,,timeout,,,,,,,,,,,,,4,,,,,,,,,,,,,,,,,,,,,,,,,,,,,,,,,,,,,,,,,,,,,,,,,,,,,,,,,"[""pickle.png""]","[""ritz.png""]",,,,2,,,false,,1,,,,,,,297755,297753.74,297051.9,297067,297068.56,297937.68,5,,,
timeout,canvas.Screen,2_4_3_6_1_0_0_0_0_4_1,2021-05-24T16:05:50.057Z,,,blank.png,blank.png,blank.png,blank.png,blank.png,blank.png,blank.png,"[""ritz.png""]",blank.png,blank.png,blank.png,blank.png,blank.png,,,,,,,,,,,,,,,,,,,,,,,,,,,,,"[""ritz.png""]","[""pickle.png""]",PB18.png,,,,,,,,,,,0,6,"[""pickle.png""]","[""pickle.png""]","[""pickle.png""]","[""pickle.png""]","[""pickle.png""]","[""pickle.png""]",blank.png,PB18.png,PB01.png,"[""pickle.png""]","[""pickle.png""]","[""pickle.png""]","[""pickle.png""]","[""pickle.png""]","[""pickle.png""]",blank.png,blank.png,blank.png,blank.png,blank.png,blank.png,1,"[""ritz.png""]",blank.png,blank.png,blank.png,0,blank.png,blank.png,blank.png,blank.png,blank.png,blank.png,PB01.png,,,,,,,,,,,1,,,,,,,,,,,,,500.64000000001397,,timeout,,,,,,,,,,,,,4,,,,,,,,,,,,,,,,,,,,,,,,,,,,,,,,,,,,,,,,,,,,,,,,,,,,,,,,,"[""pickle.png""]","[""ritz.png""]",,,,2,,,false,,1,,,,,,,298423,298421.64,297753.74,297936,297937.68,298438.32,,,,
choice,canvas.Screen,2_4_3_6_1_0_0_0_0_4_2,2021-05-24T16:05:52.014Z,,,blank.png,blank.png,blank.png,blank.png,blank.png,blank.png,blank.png,"[""ritz.png""]",blank.png,blank.png,blank.png,blank.png,blank.png,,,,,,,,,,,,,,,,,,,,,,,,,,,,,"[""ritz.png""]","[""pickle.png""]",PB18.png,,,,,,,,,,,0,6,"[""pickle.png""]","[""pickle.png""]","[""pickle.png""]","[""pickle.png""]","[""pickle.png""]","[""pickle.png""]",blank.png,PB18.png,PB01.png,"[""pickle.png""]","[""pickle.png""]","[""pickle.png""]","[""pickle.png""]","[""pickle.png""]","[""pickle.png""]",blank.png,blank.png,blank.png,blank.png,blank.png,blank.png,1,"[""ritz.png""]",blank.png,blank.png,blank.png,0,blank.png,blank.png,blank.png,blank.png,blank.png,blank.png,PB01.png,,,,,,,,,,,1,,,,,,,,,,,,,1926.679999999993,,response,,,,,,,,,,,,,4,,,,,,,,,,,,,,,,,,,,,,,,,,,,,,,,,,,,,,,,,,,,,,,,,,,,,,,,,"[""pickle.png""]","[""ritz.png""]",,,,2,left,keydown(ArrowLeft),false,,1,,,,,,,300379,300365,298421.64,298443,298438.32,300409.24,,5,,
square,canvas.Screen,2_4_3_6_1_0_0_0_0_4_3,2021-05-24T16:05:53.031Z,,,blank.png,blank.png,blank.png,blank.png,blank.png,blank.png,blank.png,"[""ritz.png""]",blank.png,blank.png,blank.png,blank.png,blank.png,,,,,,,,,,,,,,,,,,,,,,,,,,,,,"[""ritz.png""]","[""pickle.png""]",PB18.png,,,,,,,,,,,0,6,"[""pickle.png""]","[""pickle.png""]","[""pickle.png""]","[""pickle.png""]","[""pickle.png""]","[""pickle.png""]",blank.png,PB18.png,PB01.png,"[""pickle.png""]","[""pickle.png""]","[""pickle.png""]","[""pickle.png""]","[""pickle.png""]","[""pickle.png""]",blank.png,blank.png,blank.png,blank.png,blank.png,blank.png,1,"[""ritz.png""]",blank.png,blank.png,blank.png,0,blank.png,blank.png,blank.png,blank.png,blank.png,blank.png,PB01.png,,,,,,,,,,,1,,,#33ff3f,#808080,,,,,,,,,1001.7800000000279,,timeout,,,,,,,,,,,,,4,,,,,,,,,,,,,,,,,,,,,,,,,,,,,,,,,,,,,,,,,,,,,,,,,,,,,,,,,"[""pickle.png""]","[""ritz.png""]",,,,2,,,false,,1,,,,,black,white,301396,301394.36,300404.2,300404,300409.24,301411.02,,,,
ITI_late,canvas.Screen,2_4_3_6_1_0_0_0_0_4_4,2021-05-24T16:05:53.782Z,,,blank.png,blank.png,blank.png,blank.png,blank.png,blank.png,blank.png,"[""ritz.png""]",blank.png,blank.png,blank.png,blank.png,blank.png,,,,,,,,,,,,,,,,,,,,,,,,,,,,,"[""ritz.png""]","[""pickle.png""]",PB18.png,,,,,,,,,,,0,6,"[""pickle.png""]","[""pickle.png""]","[""pickle.png""]","[""pickle.png""]","[""pickle.png""]","[""pickle.png""]",blank.png,PB18.png,PB01.png,"[""pickle.png""]","[""pickle.png""]","[""pickle.png""]","[""pickle.png""]","[""pickle.png""]","[""pickle.png""]",blank.png,blank.png,blank.png,blank.png,blank.png,blank.png,1,"[""ritz.png""]",blank.png,blank.png,blank.png,0,blank.png,blank.png,blank.png,blank.png,blank.png,blank.png,PB01.png,,,,,,,,,,,1,,,,,,,,,,,,,751.4199999999837,,timeout,,,,,,,,,,,,white,4,,,,,,,,,,,,,,,,,,,,,,,,,,,,,,,,,,,,,,,,,,,,,,,,,,,,,,,,,"[""pickle.png""]","[""ritz.png""]",,,,2,,,false,,1,,,,,,,302147,302145.78,301394.36,301399,301411.02,302162.44,,,,
choice_sequence,flow.Sequence,2_4_3_6_1_0_0_0_0_4,2021-05-24T16:05:53.783Z,,,blank.png,blank.png,blank.png,blank.png,blank.png,blank.png,blank.png,"[""ritz.png""]",blank.png,blank.png,blank.png,blank.png,blank.png,,,,,,,,,,,,,,,,,,,,,,,,,,,,,"[""ritz.png""]","[""pickle.png""]",PB18.png,,,,,,,,,,,0,6,"[""pickle.png""]","[""pickle.png""]","[""pickle.png""]","[""pickle.png""]","[""pickle.png""]","[""pickle.png""]",blank.png,PB18.png,PB01.png,"[""pickle.png""]","[""pickle.png""]","[""pickle.png""]","[""pickle.png""]","[""pickle.png""]","[""pickle.png""]",blank.png,blank.png,blank.png,blank.png,blank.png,blank.png,1,"[""ritz.png""]",blank.png,blank.png,blank.png,0,blank.png,blank.png,blank.png,blank.png,blank.png,blank.png,PB01.png,,,,,,,,,,,1,,,,,,,,,,,,,5077.22000000003,,completion,,,,,,,,,,,,,4,,,,,,,,,,,,,,,,,,,,,,,,,,,,,,,,,,,,,,,,,,,,,,,,,,,,,,,,,"[""pickle.png""]","[""ritz.png""]",,,,2,,,false,,1,,,,,,,302148,302145.78,297051.9,297064,297068.56,302162.44,,,,
fixCross,canvas.Screen,2_4_3_6_1_0_0_0_0_5_0,2021-05-24T16:05:54.383Z,,,blank.png,blank.png,blank.png,blank.png,blank.png,blank.png,blank.png,"[""ritz.png""]",blank.png,blank.png,blank.png,blank.png,blank.png,,,,,,,,,,,,,,,,,,,,,,,,,,,,,"[""ritz.png""]","[""pickle.png""]",PB18.png,,,,,,,,,,,0,6,"[""pickle.png""]","[""pickle.png""]","[""pickle.png""]","[""pickle.png""]","[""pickle.png""]","[""pickle.png""]",blank.png,PB18.png,PB15.png,"[""pickle.png""]","[""pickle.png""]","[""pickle.png""]","[""pickle.png""]","[""pickle.png""]","[""pickle.png""]","[""pickle.png""]","[""pickle.png""]","[""pickle.png""]","[""pickle.png""]",blank.png,blank.png,1,"[""ritz.png""]",blank.png,blank.png,blank.png,4,"[""pickle.png""]","[""pickle.png""]","[""pickle.png""]","[""pickle.png""]",blank.png,blank.png,PB15.png,,,,,,,,,,,1,,,,,,,,,,,,,675.4400000000023,,timeout,,,,,,,,,,,,,4,,,,,,,,,,,,,,,,,,,,,,,,,,,,,,,,,,,,,,,,,,,,,,,,,,,,,,,,,"[""pickle.png""]","[""ritz.png""]",,,,2,,,false,,1,,,,,,,302748,302747.04,302145.78,302157,302162.44,302837.88,6,,,
timeout,canvas.Screen,2_4_3_6_1_0_0_0_0_5_1,2021-05-24T16:05:54.951Z,,,blank.png,blank.png,blank.png,blank.png,blank.png,blank.png,blank.png,"[""ritz.png""]",blank.png,blank.png,blank.png,blank.png,blank.png,,,,,,,,,,,,,,,,,,,,,,,,,,,,,"[""ritz.png""]","[""pickle.png""]",PB18.png,,,,,,,,,,,0,6,"[""pickle.png""]","[""pickle.png""]","[""pickle.png""]","[""pickle.png""]","[""pickle.png""]","[""pickle.png""]",blank.png,PB18.png,PB15.png,"[""pickle.png""]","[""pickle.png""]","[""pickle.png""]","[""pickle.png""]","[""pickle.png""]","[""pickle.png""]","[""pickle.png""]","[""pickle.png""]","[""pickle.png""]","[""pickle.png""]",blank.png,blank.png,1,"[""ritz.png""]",blank.png,blank.png,blank.png,4,"[""pickle.png""]","[""pickle.png""]","[""pickle.png""]","[""pickle.png""]",blank.png,blank.png,PB15.png,,,,,,,,,,,1,,,,,,,,,,,,,493.5599999999977,,timeout,,,,,,,,,,,,,4,,,,,,,,,,,,,,,,,,,,,,,,,,,,,,,,,,,,,,,,,,,,,,,,,,,,,,,,,"[""pickle.png""]","[""ritz.png""]",,,,2,,,false,,1,,,,,,,303316,303314.78,302747.04,302838,302837.88,303331.44,,,,
choice,canvas.Screen,2_4_3_6_1_0_0_0_0_5_2,2021-05-24T16:05:56.294Z,,,blank.png,blank.png,blank.png,blank.png,blank.png,blank.png,blank.png,"[""ritz.png""]",blank.png,blank.png,blank.png,blank.png,blank.png,,,,,,,,,,,,,,,,,,,,,,,,,,,,,"[""ritz.png""]","[""pickle.png""]",PB18.png,,,,,,,,,,,0,6,"[""pickle.png""]","[""pickle.png""]","[""pickle.png""]","[""pickle.png""]","[""pickle.png""]","[""pickle.png""]",blank.png,PB18.png,PB15.png,"[""pickle.png""]","[""pickle.png""]","[""pickle.png""]","[""pickle.png""]","[""pickle.png""]","[""pickle.png""]","[""pickle.png""]","[""pickle.png""]","[""pickle.png""]","[""pickle.png""]",blank.png,blank.png,1,"[""ritz.png""]",blank.png,blank.png,blank.png,4,"[""pickle.png""]","[""pickle.png""]","[""pickle.png""]","[""pickle.png""]",blank.png,blank.png,PB15.png,,,,,,,,,,,1,,,,,,,,,,,,,1313.5599999999977,,response,,,,,,,,,,,,,4,,,,,,,,,,,,,,,,,,,,,,,,,,,,,,,,,,,,,,,,,,,,,,,,,,,,,,,,,"[""pickle.png""]","[""ritz.png""]",,,,2,left,keydown(ArrowLeft),false,,1,,,,,,,304659,304645,303314.78,303335,303331.44,304684.4,,6,,
square,canvas.Screen,2_4_3_6_1_0_0_0_0_5_3,2021-05-24T16:05:57.305Z,,,blank.png,blank.png,blank.png,blank.png,blank.png,blank.png,blank.png,"[""ritz.png""]",blank.png,blank.png,blank.png,blank.png,blank.png,,,,,,,,,,,,,,,,,,,,,,,,,,,,,"[""ritz.png""]","[""pickle.png""]",PB18.png,,,,,,,,,,,0,6,"[""pickle.png""]","[""pickle.png""]","[""pickle.png""]","[""pickle.png""]","[""pickle.png""]","[""pickle.png""]",blank.png,PB18.png,PB15.png,"[""pickle.png""]","[""pickle.png""]","[""pickle.png""]","[""pickle.png""]","[""pickle.png""]","[""pickle.png""]","[""pickle.png""]","[""pickle.png""]","[""pickle.png""]","[""pickle.png""]",blank.png,blank.png,1,"[""ritz.png""]",blank.png,blank.png,blank.png,4,"[""pickle.png""]","[""pickle.png""]","[""pickle.png""]","[""pickle.png""]",blank.png,blank.png,PB15.png,,,,,,,,,,,1,,,#33ff3f,#808080,,,,,,,,,1001.8199999999488,,timeout,,,,,,,,,,,,,4,,,,,,,,,,,,,,,,,,,,,,,,,,,,,,,,,,,,,,,,,,,,,,,,,,,,,,,,,"[""pickle.png""]","[""ritz.png""]",,,,2,,,false,,1,,,,,black,white,305670,305669.56,304678,304678,304684.4,305686.22,,,,
ITI_late,canvas.Screen,2_4_3_6_1_0_0_0_0_5_4,2021-05-24T16:05:58.308Z,,,blank.png,blank.png,blank.png,blank.png,blank.png,blank.png,blank.png,"[""ritz.png""]",blank.png,blank.png,blank.png,blank.png,blank.png,,,,,,,,,,,,,,,,,,,,,,,,,,,,,"[""ritz.png""]","[""pickle.png""]",PB18.png,,,,,,,,,,,0,6,"[""pickle.png""]","[""pickle.png""]","[""pickle.png""]","[""pickle.png""]","[""pickle.png""]","[""pickle.png""]",blank.png,PB18.png,PB15.png,"[""pickle.png""]","[""pickle.png""]","[""pickle.png""]","[""pickle.png""]","[""pickle.png""]","[""pickle.png""]","[""pickle.png""]","[""pickle.png""]","[""pickle.png""]","[""pickle.png""]",blank.png,blank.png,1,"[""ritz.png""]",blank.png,blank.png,blank.png,4,"[""pickle.png""]","[""pickle.png""]","[""pickle.png""]","[""pickle.png""]",blank.png,blank.png,PB15.png,,,,,,,,,,,1,,,,,,,,,,,,,1001.9000000000233,,timeout,,,,,,,,,,,,white,4,,,,,,,,,,,,,,,,,,,,,,,,,,,,,,,,,,,,,,,,,,,,,,,,,,,,,,,,,"[""pickle.png""]","[""ritz.png""]",,,,2,,,false,,1,,,,,,,306673,306671.46,305669.56,305674,305686.22,306688.12,,,,
choice_sequence,flow.Sequence,2_4_3_6_1_0_0_0_0_5,2021-05-24T16:05:58.309Z,,,blank.png,blank.png,blank.png,blank.png,blank.png,blank.png,blank.png,"[""ritz.png""]",blank.png,blank.png,blank.png,blank.png,blank.png,,,,,,,,,,,,,,,,,,,,,,,,,,,,,"[""ritz.png""]","[""pickle.png""]",PB18.png,,,,,,,,,,,0,6,"[""pickle.png""]","[""pickle.png""]","[""pickle.png""]","[""pickle.png""]","[""pickle.png""]","[""pickle.png""]",blank.png,PB18.png,PB15.png,"[""pickle.png""]","[""pickle.png""]","[""pickle.png""]","[""pickle.png""]","[""pickle.png""]","[""pickle.png""]","[""pickle.png""]","[""pickle.png""]","[""pickle.png""]","[""pickle.png""]",blank.png,blank.png,1,"[""ritz.png""]",blank.png,blank.png,blank.png,4,"[""pickle.png""]","[""pickle.png""]","[""pickle.png""]","[""pickle.png""]",blank.png,blank.png,PB15.png,,,,,,,,,,,1,,,,,,,,,,,,,4509.020000000019,,completion,,,,,,,,,,,,,4,,,,,,,,,,,,,,,,,,,,,,,,,,,,,,,,,,,,,,,,,,,,,,,,,,,,,,,,,"[""pickle.png""]","[""ritz.png""]",,,,2,,,false,,1,,,,,,,306674,306671.46,302145.78,302155,302162.44,306688.12,,,,
fixCross,canvas.Screen,2_4_3_6_1_0_0_0_0_6_0,2021-05-24T16:05:58.809Z,,,blank.png,blank.png,blank.png,blank.png,blank.png,blank.png,blank.png,"[""ritz.png""]",blank.png,blank.png,blank.png,blank.png,blank.png,,,,,,,,,,,,,,,,,,,,,,,,,,,,,"[""ritz.png""]","[""pickle.png""]",PB18.png,,,,,,,,,,,0,6,"[""pickle.png""]","[""pickle.png""]","[""pickle.png""]","[""pickle.png""]","[""pickle.png""]","[""pickle.png""]",blank.png,PB18.png,PB17.png,"[""pickle.png""]","[""pickle.png""]","[""pickle.png""]","[""pickle.png""]","[""pickle.png""]","[""pickle.png""]","[""pickle.png""]","[""pickle.png""]","[""pickle.png""]","[""pickle.png""]","[""pickle.png""]","[""pickle.png""]",1,"[""ritz.png""]",blank.png,blank.png,blank.png,6,"[""pickle.png""]","[""pickle.png""]","[""pickle.png""]","[""pickle.png""]","[""pickle.png""]","[""pickle.png""]",PB17.png,,,,,,,,,,,1,,,,,,,,,,,,,591.039999999979,,timeout,,,,,,,,,,,,,4,,,,,,,,,,,,,,,,,,,,,,,,,,,,,,,,,,,,,,,,,,,,,,,,,,,,,,,,,"[""pickle.png""]","[""ritz.png""]",,,,2,,,false,,1,,,,,,,307174,307172.44,306671.46,306685,306688.12,307279.16,7,,,
timeout,canvas.Screen,2_4_3_6_1_0_0_0_0_6_1,2021-05-24T16:05:59.393Z,,,blank.png,blank.png,blank.png,blank.png,blank.png,blank.png,blank.png,"[""ritz.png""]",blank.png,blank.png,blank.png,blank.png,blank.png,,,,,,,,,,,,,,,,,,,,,,,,,,,,,"[""ritz.png""]","[""pickle.png""]",PB18.png,,,,,,,,,,,0,6,"[""pickle.png""]","[""pickle.png""]","[""pickle.png""]","[""pickle.png""]","[""pickle.png""]","[""pickle.png""]",blank.png,PB18.png,PB17.png,"[""pickle.png""]","[""pickle.png""]","[""pickle.png""]","[""pickle.png""]","[""pickle.png""]","[""pickle.png""]","[""pickle.png""]","[""pickle.png""]","[""pickle.png""]","[""pickle.png""]","[""pickle.png""]","[""pickle.png""]",1,"[""ritz.png""]",blank.png,blank.png,blank.png,6,"[""pickle.png""]","[""pickle.png""]","[""pickle.png""]","[""pickle.png""]","[""pickle.png""]","[""pickle.png""]",PB17.png,,,,,,,,,,,1,,,,,,,,,,,,,494.4400000000023,,timeout,,,,,,,,,,,,,4,,,,,,,,,,,,,,,,,,,,,,,,,,,,,,,,,,,,,,,,,,,,,,,,,,,,,,,,,"[""pickle.png""]","[""ritz.png""]",,,,2,,,false,,1,,,,,,,307758,307756.94,307172.44,307279,307279.16,307773.6,,,,
choice,canvas.Screen,2_4_3_6_1_0_0_0_0_6_2,2021-05-24T16:06:00.478Z,,,blank.png,blank.png,blank.png,blank.png,blank.png,blank.png,blank.png,"[""ritz.png""]",blank.png,blank.png,blank.png,blank.png,blank.png,,,,,,,,,,,,,,,,,,,,,,,,,,,,,"[""ritz.png""]","[""pickle.png""]",PB18.png,,,,,,,,,,,0,6,"[""pickle.png""]","[""pickle.png""]","[""pickle.png""]","[""pickle.png""]","[""pickle.png""]","[""pickle.png""]",blank.png,PB18.png,PB17.png,"[""pickle.png""]","[""pickle.png""]","[""pickle.png""]","[""pickle.png""]","[""pickle.png""]","[""pickle.png""]","[""pickle.png""]","[""pickle.png""]","[""pickle.png""]","[""pickle.png""]","[""pickle.png""]","[""pickle.png""]",1,"[""ritz.png""]",blank.png,blank.png,blank.png,6,"[""pickle.png""]","[""pickle.png""]","[""pickle.png""]","[""pickle.png""]","[""pickle.png""]","[""pickle.png""]",PB17.png,,,,,,,,,,,1,,,,,,,,,,,,,1060.4000000000233,,response,,,,,,,,,,,,,4,,,,,,,,,,,,,,,,,,,,,,,,,,,,,,,,,,,,,,,,,,,,,,,,,,,,,,,,,"[""pickle.png""]","[""ritz.png""]",,,,2,right,keydown(ArrowRight),false,,1,,,,,,,308843,308834,307756.94,307779,307773.6,308876.12,,7,,
square,canvas.Screen,2_4_3_6_1_0_0_0_0_6_3,2021-05-24T16:06:01.498Z,,,blank.png,blank.png,blank.png,blank.png,blank.png,blank.png,blank.png,"[""ritz.png""]",blank.png,blank.png,blank.png,blank.png,blank.png,,,,,,,,,,,,,,,,,,,,,,,,,,,,,"[""ritz.png""]","[""pickle.png""]",PB18.png,,,,,,,,,,,0,6,"[""pickle.png""]","[""pickle.png""]","[""pickle.png""]","[""pickle.png""]","[""pickle.png""]","[""pickle.png""]",blank.png,PB18.png,PB17.png,"[""pickle.png""]","[""pickle.png""]","[""pickle.png""]","[""pickle.png""]","[""pickle.png""]","[""pickle.png""]","[""pickle.png""]","[""pickle.png""]","[""pickle.png""]","[""pickle.png""]","[""pickle.png""]","[""pickle.png""]",1,"[""ritz.png""]",blank.png,blank.png,blank.png,6,"[""pickle.png""]","[""pickle.png""]","[""pickle.png""]","[""pickle.png""]","[""pickle.png""]","[""pickle.png""]",PB17.png,,,,,,,,,,,1,,,#808080,#33ff3f,,,,,,,,,1001.7999999999884,,timeout,,,,,,,,,,,,,4,,,,,,,,,,,,,,,,,,,,,,,,,,,,,,,,,,,,,,,,,,,,,,,,,,,,,,,,,"[""pickle.png""]","[""ritz.png""]",,,,2,,,false,,1,,,,,white,black,309862,309861.26,308861.38,308861,308876.12,309877.92,,,,
ITI_late,canvas.Screen,2_4_3_6_1_0_0_0_0_6_4,2021-05-24T16:06:02.749Z,,,blank.png,blank.png,blank.png,blank.png,blank.png,blank.png,blank.png,"[""ritz.png""]",blank.png,blank.png,blank.png,blank.png,blank.png,,,,,,,,,,,,,,,,,,,,,,,,,,,,,"[""ritz.png""]","[""pickle.png""]",PB18.png,,,,,,,,,,,0,6,"[""pickle.png""]","[""pickle.png""]","[""pickle.png""]","[""pickle.png""]","[""pickle.png""]","[""pickle.png""]",blank.png,PB18.png,PB17.png,"[""pickle.png""]","[""pickle.png""]","[""pickle.png""]","[""pickle.png""]","[""pickle.png""]","[""pickle.png""]","[""pickle.png""]","[""pickle.png""]","[""pickle.png""]","[""pickle.png""]","[""pickle.png""]","[""pickle.png""]",1,"[""ritz.png""]",blank.png,blank.png,blank.png,6,"[""pickle.png""]","[""pickle.png""]","[""pickle.png""]","[""pickle.png""]","[""pickle.png""]","[""pickle.png""]",PB17.png,,,,,,,,,,,1,,,,,,,,,,,,,1252.420000000042,,timeout,,,,,,,,,,,,white,4,,,,,,,,,,,,,,,,,,,,,,,,,,,,,,,,,,,,,,,,,,,,,,,,,,,,,,,,,"[""pickle.png""]","[""ritz.png""]",,,,2,,,false,,1,,,,,,,311115,311113.68,309861.26,309866,309877.92,311130.34,,,,
choice_sequence,flow.Sequence,2_4_3_6_1_0_0_0_0_6,2021-05-24T16:06:02.750Z,,,blank.png,blank.png,blank.png,blank.png,blank.png,blank.png,blank.png,"[""ritz.png""]",blank.png,blank.png,blank.png,blank.png,blank.png,,,,,,,,,,,,,,,,,,,,,,,,,,,,,"[""ritz.png""]","[""pickle.png""]",PB18.png,,,,,,,,,,,0,6,"[""pickle.png""]","[""pickle.png""]","[""pickle.png""]","[""pickle.png""]","[""pickle.png""]","[""pickle.png""]",blank.png,PB18.png,PB17.png,"[""pickle.png""]","[""pickle.png""]","[""pickle.png""]","[""pickle.png""]","[""pickle.png""]","[""pickle.png""]","[""pickle.png""]","[""pickle.png""]","[""pickle.png""]","[""pickle.png""]","[""pickle.png""]","[""pickle.png""]",1,"[""ritz.png""]",blank.png,blank.png,blank.png,6,"[""pickle.png""]","[""pickle.png""]","[""pickle.png""]","[""pickle.png""]","[""pickle.png""]","[""pickle.png""]",PB17.png,,,,,,,,,,,1,,,,,,,,,,,,,4425.559999999998,,completion,,,,,,,,,,,,,4,,,,,,,,,,,,,,,,,,,,,,,,,,,,,,,,,,,,,,,,,,,,,,,,,,,,,,,,,"[""pickle.png""]","[""ritz.png""]",,,,2,,,false,,1,,,,,,,311115,311113.68,306671.46,306683,306688.12,311130.34,,,,
choice_loop,flow.Loop,2_4_3_6_1_0_0_0_0,2021-05-24T16:06:02.751Z,,,,,,,,,,,,,,,,,,,,,,,,,,,,,,,,,,,,,,,,,,,,"[""ritz.png""]","[""pickle.png""]",,,,,,,,,,,,,,,,,,,,,,,,,,,,,,,,,,,,,,,,,,,,,,,,,,,,,,,,,,,,,,,,,,,,,,,38593.659999999974,,completion,,,,,,,,,,,,,,,,,,,,,,,,,,,,,,,,,,,,,,,,,,,,,,,,,,,,,,,,,,,,,,,,,,,,,,"[""pickle.png""]","[""ritz.png""]",,,,2,,,false,,,,,,,,,311115,311113.68,272470.02,272521,272520.02,311130.34,,,,
choice_frame,html.Frame,2_4_3_6_1_0_0_0,2021-05-24T16:06:02.752Z,,,,,,,,,,,,,,,,,,,,,,,,,,,,,,,,,,,,,,,,,,,,,,,,,,,,,,,,,,,,,,,,,,,,,,,,,,,,,,,,,,,,,,,,,,,,,,,,,,,,,,,,,,,,,,,,,,,,38595.97999999998,,,,,,,,,,,,,,,,,,,,,,,,,,,,,,,,,,,,,,,,,,,,,,,,,,,,,,,,,,,,,,,,,,,,,,,,,,,,,2,,,false,,,,,,,,,311117,311116,272470.02,272472,272520.02,311147,,,,
sublock_1,flow.Sequence,2_4_3_6_1_0_0,2021-05-24T16:06:02.752Z,,,,,,,,,,,,,,,,,,,,,,,,,,,,,,,,,,,,,,,,,,,,,,,,,,,,,,,,,,,,,,,,,,,,,,,,,,,,,,,,,,,,,,,,,,,,,,,,,,,,,,,,,,,,,,,,,,,,38595.97999999998,,completion,,,,,,,,,,,,,,,,,,,,,,,,,,,,,,,,,,,,,,,,,,,,,,,,,,,,,,,,,,,,,,,,,,,,,,,,,,,2,,,false,,,,,,,,,311117,311116,272470.02,272472,272520.02,311147,,,,
fixCross,canvas.Screen,2_4_3_6_1_0_1_0_0_0_0,2021-05-24T16:06:03.218Z,,,blank.png,"[""ritz.png""]",blank.png,blank.png,blank.png,blank.png,blank.png,blank.png,blank.png,blank.png,blank.png,blank.png,blank.png,,,,,,,,,,,,,,,,,,,,,,,,,,,,,"[""ritz.png""]","[""pickle.png""]",PB14.png,,,,,,,,,,,0,6,"[""pickle.png""]","[""pickle.png""]","[""pickle.png""]","[""pickle.png""]","[""pickle.png""]","[""pickle.png""]",blank.png,PB18.png,PB18.png,"[""pickle.png""]","[""pickle.png""]","[""pickle.png""]",blank.png,blank.png,blank.png,"[""pickle.png""]","[""pickle.png""]","[""pickle.png""]","[""pickle.png""]","[""pickle.png""]","[""pickle.png""]",1,"[""ritz.png""]",blank.png,blank.png,blank.png,3,"[""pickle.png""]","[""pickle.png""]","[""pickle.png""]",blank.png,blank.png,blank.png,PB14.png,,,,,,,,,,,1,,,,,,,,,,,,,450.96000000002095,,timeout,,,,,,,,,,,,,3,,,,,,,,,,,,,,,,,,,,,,,,,,,,,,,,,,,,,,,,,,,,,,,,,,,,,,,,,"[""pickle.png""]","[""ritz.png""]",,,,6,,,false,,1,,,,,,,311582,311581.28,311130.34,311141,311147,311597.96,8,,,
timeout,canvas.Screen,2_4_3_6_1_0_1_0_0_0_1,2021-05-24T16:06:03.718Z,,,blank.png,"[""ritz.png""]",blank.png,blank.png,blank.png,blank.png,blank.png,blank.png,blank.png,blank.png,blank.png,blank.png,blank.png,,,,,,,,,,,,,,,,,,,,,,,,,,,,,"[""ritz.png""]","[""pickle.png""]",PB14.png,,,,,,,,,,,0,6,"[""pickle.png""]","[""pickle.png""]","[""pickle.png""]","[""pickle.png""]","[""pickle.png""]","[""pickle.png""]",blank.png,PB18.png,PB18.png,"[""pickle.png""]","[""pickle.png""]","[""pickle.png""]",blank.png,blank.png,blank.png,"[""pickle.png""]","[""pickle.png""]","[""pickle.png""]","[""pickle.png""]","[""pickle.png""]","[""pickle.png""]",1,"[""ritz.png""]",blank.png,blank.png,blank.png,3,"[""pickle.png""]","[""pickle.png""]","[""pickle.png""]",blank.png,blank.png,blank.png,PB14.png,,,,,,,,,,,1,,,,,,,,,,,,,500.9199999999837,,timeout,,,,,,,,,,,,,3,,,,,,,,,,,,,,,,,,,,,,,,,,,,,,,,,,,,,,,,,,,,,,,,,,,,,,,,,"[""pickle.png""]","[""ritz.png""]",,,,6,,,false,,1,,,,,,,312083,312082.22,311581.28,311604,311597.96,312098.88,,,,
choice,canvas.Screen,2_4_3_6_1_0_1_0_0_0_2,2021-05-24T16:06:04.926Z,,,blank.png,"[""ritz.png""]",blank.png,blank.png,blank.png,blank.png,blank.png,blank.png,blank.png,blank.png,blank.png,blank.png,blank.png,,,,,,,,,,,,,,,,,,,,,,,,,,,,,"[""ritz.png""]","[""pickle.png""]",PB14.png,,,,,,,,,,,0,6,"[""pickle.png""]","[""pickle.png""]","[""pickle.png""]","[""pickle.png""]","[""pickle.png""]","[""pickle.png""]",blank.png,PB18.png,PB18.png,"[""pickle.png""]","[""pickle.png""]","[""pickle.png""]",blank.png,blank.png,blank.png,"[""pickle.png""]","[""pickle.png""]","[""pickle.png""]","[""pickle.png""]","[""pickle.png""]","[""pickle.png""]",1,"[""ritz.png""]",blank.png,blank.png,blank.png,3,"[""pickle.png""]","[""pickle.png""]","[""pickle.png""]",blank.png,blank.png,blank.png,PB14.png,,,,,,,,,,,1,,,,,,,,,,,,,1187.1199999999953,,response,,,,,,,,,,,,,3,,,,,,,,,,,,,,,,,,,,,,,,,,,,,,,,,,,,,,,,,,,,,,,,,,,,,,,,,"[""pickle.png""]","[""ritz.png""]",,,,6,right,keydown(ArrowRight),false,,1,,,,,,,313291,313286,312082.22,312104,312098.88,313318.3,,8,,
square,canvas.Screen,2_4_3_6_1_0_1_0_0_0_3,2021-05-24T16:06:05.939Z,,,blank.png,"[""ritz.png""]",blank.png,blank.png,blank.png,blank.png,blank.png,blank.png,blank.png,blank.png,blank.png,blank.png,blank.png,,,,,,,,,,,,,,,,,,,,,,,,,,,,,"[""ritz.png""]","[""pickle.png""]",PB14.png,,,,,,,,,,,0,6,"[""pickle.png""]","[""pickle.png""]","[""pickle.png""]","[""pickle.png""]","[""pickle.png""]","[""pickle.png""]",blank.png,PB18.png,PB18.png,"[""pickle.png""]","[""pickle.png""]","[""pickle.png""]",blank.png,blank.png,blank.png,"[""pickle.png""]","[""pickle.png""]","[""pickle.png""]","[""pickle.png""]","[""pickle.png""]","[""pickle.png""]",1,"[""ritz.png""]",blank.png,blank.png,blank.png,3,"[""pickle.png""]","[""pickle.png""]","[""pickle.png""]",blank.png,blank.png,blank.png,PB14.png,,,,,,,,,,,1,,,#808080,#33ff3f,,,,,,,,,1001.6600000000326,,timeout,,,,,,,,,,,,,3,,,,,,,,,,,,,,,,,,,,,,,,,,,,,,,,,,,,,,,,,,,,,,,,,,,,,,,,,"[""pickle.png""]","[""ritz.png""]",,,,6,,,false,,1,,,,,white,black,314305,314303.28,313311.5,313311,313318.3,314319.96,,,,
ITI_late,canvas.Screen,2_4_3_6_1_0_1_0_0_0_4,2021-05-24T16:06:06.691Z,,,blank.png,"[""ritz.png""]",blank.png,blank.png,blank.png,blank.png,blank.png,blank.png,blank.png,blank.png,blank.png,blank.png,blank.png,,,,,,,,,,,,,,,,,,,,,,,,,,,,,"[""ritz.png""]","[""pickle.png""]",PB14.png,,,,,,,,,,,0,6,"[""pickle.png""]","[""pickle.png""]","[""pickle.png""]","[""pickle.png""]","[""pickle.png""]","[""pickle.png""]",blank.png,PB18.png,PB18.png,"[""pickle.png""]","[""pickle.png""]","[""pickle.png""]",blank.png,blank.png,blank.png,"[""pickle.png""]","[""pickle.png""]","[""pickle.png""]","[""pickle.png""]","[""pickle.png""]","[""pickle.png""]",1,"[""ritz.png""]",blank.png,blank.png,blank.png,3,"[""pickle.png""]","[""pickle.png""]","[""pickle.png""]",blank.png,blank.png,blank.png,PB14.png,,,,,,,,,,,1,,,,,,,,,,,,,751.5799999999581,,timeout,,,,,,,,,,,,white,3,,,,,,,,,,,,,,,,,,,,,,,,,,,,,,,,,,,,,,,,,,,,,,,,,,,,,,,,,"[""pickle.png""]","[""ritz.png""]",,,,6,,,false,,1,,,,,,,315056,315054.86,314303.28,314308,314319.96,315071.54,,,,
choice_sequence,flow.Sequence,2_4_3_6_1_0_1_0_0_0,2021-05-24T16:06:06.692Z,,,blank.png,"[""ritz.png""]",blank.png,blank.png,blank.png,blank.png,blank.png,blank.png,blank.png,blank.png,blank.png,blank.png,blank.png,,,,,,,,,,,,,,,,,,,,,,,,,,,,,"[""ritz.png""]","[""pickle.png""]",PB14.png,,,,,,,,,,,0,6,"[""pickle.png""]","[""pickle.png""]","[""pickle.png""]","[""pickle.png""]","[""pickle.png""]","[""pickle.png""]",blank.png,PB18.png,PB18.png,"[""pickle.png""]","[""pickle.png""]","[""pickle.png""]",blank.png,blank.png,blank.png,"[""pickle.png""]","[""pickle.png""]","[""pickle.png""]","[""pickle.png""]","[""pickle.png""]","[""pickle.png""]",1,"[""ritz.png""]",blank.png,blank.png,blank.png,3,"[""pickle.png""]","[""pickle.png""]","[""pickle.png""]",blank.png,blank.png,blank.png,PB14.png,,,,,,,,,,,1,,,,,,,,,,,,,3907.859999999986,,completion,,,,,,,,,,,,,3,,,,,,,,,,,,,,,,,,,,,,,,,,,,,,,,,,,,,,,,,,,,,,,,,,,,,,,,,"[""pickle.png""]","[""ritz.png""]",,,,6,,,false,,1,,,,,,,315057,315054.86,311130.34,311140,311147,315071.54,,,,
fixCross,canvas.Screen,2_4_3_6_1_0_1_0_0_1_0,2021-05-24T16:06:07.443Z,,,blank.png,blank.png,blank.png,blank.png,blank.png,blank.png,blank.png,"[""ritz.png""]",blank.png,blank.png,blank.png,blank.png,blank.png,,,,,,,,,,,,,,,,,,,,,,,,,,,,,"[""ritz.png""]","[""pickle.png""]",PB18.png,,,,,,,,,,,0,6,"[""pickle.png""]","[""pickle.png""]","[""pickle.png""]","[""pickle.png""]","[""pickle.png""]","[""pickle.png""]",blank.png,PB18.png,PB12.png,"[""pickle.png""]","[""pickle.png""]","[""pickle.png""]","[""pickle.png""]","[""pickle.png""]","[""pickle.png""]","[""pickle.png""]","[""pickle.png""]",blank.png,blank.png,blank.png,blank.png,1,"[""ritz.png""]",blank.png,blank.png,blank.png,2,"[""pickle.png""]","[""pickle.png""]",blank.png,blank.png,blank.png,blank.png,PB12.png,,,,,,,,,,,1,,,,,,,,,,,,,751.4800000000396,,timeout,,,,,,,,,,,,,4,,,,,,,,,,,,,,,,,,,,,,,,,,,,,,,,,,,,,,,,,,,,,,,,,,,,,,,,,"[""pickle.png""]","[""ritz.png""]",,,,6,,,false,,1,,,,,,,315807,315806.36,315054.86,315069,315071.54,315823.02,9,,,
timeout,canvas.Screen,2_4_3_6_1_0_1_0_0_1_1,2021-05-24T16:06:07.943Z,,,blank.png,blank.png,blank.png,blank.png,blank.png,blank.png,blank.png,"[""ritz.png""]",blank.png,blank.png,blank.png,blank.png,blank.png,,,,,,,,,,,,,,,,,,,,,,,,,,,,,"[""ritz.png""]","[""pickle.png""]",PB18.png,,,,,,,,,,,0,6,"[""pickle.png""]","[""pickle.png""]","[""pickle.png""]","[""pickle.png""]","[""pickle.png""]","[""pickle.png""]",blank.png,PB18.png,PB12.png,"[""pickle.png""]","[""pickle.png""]","[""pickle.png""]","[""pickle.png""]","[""pickle.png""]","[""pickle.png""]","[""pickle.png""]","[""pickle.png""]",blank.png,blank.png,blank.png,blank.png,1,"[""ritz.png""]",blank.png,blank.png,blank.png,2,"[""pickle.png""]","[""pickle.png""]",blank.png,blank.png,blank.png,blank.png,PB12.png,,,,,,,,,,,1,,,,,,,,,,,,,501,,timeout,,,,,,,,,,,,,4,,,,,,,,,,,,,,,,,,,,,,,,,,,,,,,,,,,,,,,,,,,,,,,,,,,,,,,,,"[""pickle.png""]","[""ritz.png""]",,,,6,,,false,,1,,,,,,,316308,316307.36,315806.36,315826,315823.02,316324.02,,,,
choice,canvas.Screen,2_4_3_6_1_0_1_0_0_1_2,2021-05-24T16:06:08.878Z,,,blank.png,blank.png,blank.png,blank.png,blank.png,blank.png,blank.png,"[""ritz.png""]",blank.png,blank.png,blank.png,blank.png,blank.png,,,,,,,,,,,,,,,,,,,,,,,,,,,,,"[""ritz.png""]","[""pickle.png""]",PB18.png,,,,,,,,,,,0,6,"[""pickle.png""]","[""pickle.png""]","[""pickle.png""]","[""pickle.png""]","[""pickle.png""]","[""pickle.png""]",blank.png,PB18.png,PB12.png,"[""pickle.png""]","[""pickle.png""]","[""pickle.png""]","[""pickle.png""]","[""pickle.png""]","[""pickle.png""]","[""pickle.png""]","[""pickle.png""]",blank.png,blank.png,blank.png,blank.png,1,"[""ritz.png""]",blank.png,blank.png,blank.png,2,"[""pickle.png""]","[""pickle.png""]",blank.png,blank.png,blank.png,blank.png,PB12.png,,,,,,,,,,,1,,,,,,,,,,,,,899.9799999999814,,response,,,,,,,,,,,,,4,,,,,,,,,,,,,,,,,,,,,,,,,,,,,,,,,,,,,,,,,,,,,,,,,,,,,,,,,"[""pickle.png""]","[""ritz.png""]",,,,6,left,keydown(ArrowLeft),false,,1,,,,,,,317243,317224,316307.36,316329,316324.02,317276.26,,9,,
square,canvas.Screen,2_4_3_6_1_0_1_0_0_1_3,2021-05-24T16:06:09.897Z,,,blank.png,blank.png,blank.png,blank.png,blank.png,blank.png,blank.png,"[""ritz.png""]",blank.png,blank.png,blank.png,blank.png,blank.png,,,,,,,,,,,,,,,,,,,,,,,,,,,,,"[""ritz.png""]","[""pickle.png""]",PB18.png,,,,,,,,,,,0,6,"[""pickle.png""]","[""pickle.png""]","[""pickle.png""]","[""pickle.png""]","[""pickle.png""]","[""pickle.png""]",blank.png,PB18.png,PB12.png,"[""pickle.png""]","[""pickle.png""]","[""pickle.png""]","[""pickle.png""]","[""pickle.png""]","[""pickle.png""]","[""pickle.png""]","[""pickle.png""]",blank.png,blank.png,blank.png,blank.png,1,"[""ritz.png""]",blank.png,blank.png,blank.png,2,"[""pickle.png""]","[""pickle.png""]",blank.png,blank.png,blank.png,blank.png,PB12.png,,,,,,,,,,,1,,,#33ff3f,#808080,,,,,,,,,1001.7199999999721,,timeout,,,,,,,,,,,,,4,,,,,,,,,,,,,,,,,,,,,,,,,,,,,,,,,,,,,,,,,,,,,,,,,,,,,,,,,"[""pickle.png""]","[""ritz.png""]",,,,6,,,false,,1,,,,,black,white,318262,318261.3,317261.64,317261,317276.26,318277.98,,,,
ITI_late,canvas.Screen,2_4_3_6_1_0_1_0_0_1_4,2021-05-24T16:06:10.900Z,,,blank.png,blank.png,blank.png,blank.png,blank.png,blank.png,blank.png,"[""ritz.png""]",blank.png,blank.png,blank.png,blank.png,blank.png,,,,,,,,,,,,,,,,,,,,,,,,,,,,,"[""ritz.png""]","[""pickle.png""]",PB18.png,,,,,,,,,,,0,6,"[""pickle.png""]","[""pickle.png""]","[""pickle.png""]","[""pickle.png""]","[""pickle.png""]","[""pickle.png""]",blank.png,PB18.png,PB12.png,"[""pickle.png""]","[""pickle.png""]","[""pickle.png""]","[""pickle.png""]","[""pickle.png""]","[""pickle.png""]","[""pickle.png""]","[""pickle.png""]",blank.png,blank.png,blank.png,blank.png,1,"[""ritz.png""]",blank.png,blank.png,blank.png,2,"[""pickle.png""]","[""pickle.png""]",blank.png,blank.png,blank.png,blank.png,PB12.png,,,,,,,,,,,1,,,,,,,,,,,,,1001.9800000000396,,timeout,,,,,,,,,,,,white,4,,,,,,,,,,,,,,,,,,,,,,,,,,,,,,,,,,,,,,,,,,,,,,,,,,,,,,,,,"[""pickle.png""]","[""ritz.png""]",,,,6,,,false,,1,,,,,,,319264,319263.3,318261.3,318266,318277.98,319279.96,,,,
choice_sequence,flow.Sequence,2_4_3_6_1_0_1_0_0_1,2021-05-24T16:06:10.900Z,,,blank.png,blank.png,blank.png,blank.png,blank.png,blank.png,blank.png,"[""ritz.png""]",blank.png,blank.png,blank.png,blank.png,blank.png,,,,,,,,,,,,,,,,,,,,,,,,,,,,,"[""ritz.png""]","[""pickle.png""]",PB18.png,,,,,,,,,,,0,6,"[""pickle.png""]","[""pickle.png""]","[""pickle.png""]","[""pickle.png""]","[""pickle.png""]","[""pickle.png""]",blank.png,PB18.png,PB12.png,"[""pickle.png""]","[""pickle.png""]","[""pickle.png""]","[""pickle.png""]","[""pickle.png""]","[""pickle.png""]","[""pickle.png""]","[""pickle.png""]",blank.png,blank.png,blank.png,blank.png,1,"[""ritz.png""]",blank.png,blank.png,blank.png,2,"[""pickle.png""]","[""pickle.png""]",blank.png,blank.png,blank.png,blank.png,PB12.png,,,,,,,,,,,1,,,,,,,,,,,,,4191.760000000009,,completion,,,,,,,,,,,,,4,,,,,,,,,,,,,,,,,,,,,,,,,,,,,,,,,,,,,,,,,,,,,,,,,,,,,,,,,"[""pickle.png""]","[""ritz.png""]",,,,6,,,false,,1,,,,,,,319266,319263.3,315054.86,315066,315071.54,319279.96,,,,
fixCross,canvas.Screen,2_4_3_6_1_0_1_0_0_2_0,2021-05-24T16:06:11.150Z,,,blank.png,"[""ritz.png""]",blank.png,blank.png,blank.png,blank.png,blank.png,blank.png,blank.png,blank.png,blank.png,blank.png,blank.png,,,,,,,,,,,,,,,,,,,,,,,,,,,,,"[""ritz.png""]","[""pickle.png""]",PB16.png,,,,,,,,,,,0,6,"[""pickle.png""]","[""pickle.png""]","[""pickle.png""]","[""pickle.png""]","[""pickle.png""]","[""pickle.png""]",blank.png,PB18.png,PB18.png,"[""pickle.png""]","[""pickle.png""]","[""pickle.png""]","[""pickle.png""]","[""pickle.png""]",blank.png,"[""pickle.png""]","[""pickle.png""]","[""pickle.png""]","[""pickle.png""]","[""pickle.png""]","[""pickle.png""]",1,"[""ritz.png""]",blank.png,blank.png,blank.png,5,"[""pickle.png""]","[""pickle.png""]","[""pickle.png""]","[""pickle.png""]","[""pickle.png""]",blank.png,PB16.png,,,,,,,,,,,1,,,,,,,,,,,,,250,,timeout,,,,,,,,,,,,,3,,,,,,,,,,,,,,,,,,,,,,,,,,,,,,,,,,,,,,,,,,,,,,,,,,,,,,,,,"[""pickle.png""]","[""ritz.png""]",,,,6,,,false,,1,,,,,,,319515,319513.3,319263.3,319276,319279.96,319529.96,10,,,
timeout,canvas.Screen,2_4_3_6_1_0_1_0_0_2_1,2021-05-24T16:06:11.651Z,,,blank.png,"[""ritz.png""]",blank.png,blank.png,blank.png,blank.png,blank.png,blank.png,blank.png,blank.png,blank.png,blank.png,blank.png,,,,,,,,,,,,,,,,,,,,,,,,,,,,,"[""ritz.png""]","[""pickle.png""]",PB16.png,,,,,,,,,,,0,6,"[""pickle.png""]","[""pickle.png""]","[""pickle.png""]","[""pickle.png""]","[""pickle.png""]","[""pickle.png""]",blank.png,PB18.png,PB18.png,"[""pickle.png""]","[""pickle.png""]","[""pickle.png""]","[""pickle.png""]","[""pickle.png""]",blank.png,"[""pickle.png""]","[""pickle.png""]","[""pickle.png""]","[""pickle.png""]","[""pickle.png""]","[""pickle.png""]",1,"[""ritz.png""]",blank.png,blank.png,blank.png,5,"[""pickle.png""]","[""pickle.png""]","[""pickle.png""]","[""pickle.png""]","[""pickle.png""]",blank.png,PB16.png,,,,,,,,,,,1,,,,,,,,,,,,,501.3999999999651,,timeout,,,,,,,,,,,,,3,,,,,,,,,,,,,,,,,,,,,,,,,,,,,,,,,,,,,,,,,,,,,,,,,,,,,,,,,"[""pickle.png""]","[""ritz.png""]",,,,6,,,false,,1,,,,,,,320016,320014.7,319513.3,319534,319529.96,320031.36,,,,
choice,canvas.Screen,2_4_3_6_1_0_1_0_0_2_2,2021-05-24T16:06:16.270Z,,,blank.png,"[""ritz.png""]",blank.png,blank.png,blank.png,blank.png,blank.png,blank.png,blank.png,blank.png,blank.png,blank.png,blank.png,,,,,,,,,,,,,,,,,,,,,,,,,,,,,"[""ritz.png""]","[""pickle.png""]",PB16.png,,,,,,,,,,,0,6,"[""pickle.png""]","[""pickle.png""]","[""pickle.png""]","[""pickle.png""]","[""pickle.png""]","[""pickle.png""]",blank.png,PB18.png,PB18.png,"[""pickle.png""]","[""pickle.png""]","[""pickle.png""]","[""pickle.png""]","[""pickle.png""]",blank.png,"[""pickle.png""]","[""pickle.png""]","[""pickle.png""]","[""pickle.png""]","[""pickle.png""]","[""pickle.png""]",1,"[""ritz.png""]",blank.png,blank.png,blank.png,5,"[""pickle.png""]","[""pickle.png""]","[""pickle.png""]","[""pickle.png""]","[""pickle.png""]",blank.png,PB16.png,,,,,,,,,,,1,,,,,,,,,,,,,4598.640000000014,,response,,,,,,,,,,,,,3,,,,,,,,,,,,,,,,,,,,,,,,,,,,,,,,,,,,,,,,,,,,,,,,,,,,,,,,,"[""pickle.png""]","[""ritz.png""]",,,,6,right,keydown(ArrowRight),false,,1,,,,,,,324635,324630,320014.7,320036,320031.36,324657.54,,10,,
square,canvas.Screen,2_4_3_6_1_0_1_0_0_2_3,2021-05-24T16:06:17.278Z,,,blank.png,"[""ritz.png""]",blank.png,blank.png,blank.png,blank.png,blank.png,blank.png,blank.png,blank.png,blank.png,blank.png,blank.png,,,,,,,,,,,,,,,,,,,,,,,,,,,,,"[""ritz.png""]","[""pickle.png""]",PB16.png,,,,,,,,,,,0,6,"[""pickle.png""]","[""pickle.png""]","[""pickle.png""]","[""pickle.png""]","[""pickle.png""]","[""pickle.png""]",blank.png,PB18.png,PB18.png,"[""pickle.png""]","[""pickle.png""]","[""pickle.png""]","[""pickle.png""]","[""pickle.png""]",blank.png,"[""pickle.png""]","[""pickle.png""]","[""pickle.png""]","[""pickle.png""]","[""pickle.png""]","[""pickle.png""]",1,"[""ritz.png""]",blank.png,blank.png,blank.png,5,"[""pickle.png""]","[""pickle.png""]","[""pickle.png""]","[""pickle.png""]","[""pickle.png""]",blank.png,PB16.png,,,,,,,,,,,1,,,#808080,#33ff3f,,,,,,,,,1001.7200000000303,,timeout,,,,,,,,,,,,,3,,,,,,,,,,,,,,,,,,,,,,,,,,,,,,,,,,,,,,,,,,,,,,,,,,,,,,,,,"[""pickle.png""]","[""ritz.png""]",,,,6,,,false,,1,,,,,white,black,325644,325642.6,324653.42,324653,324657.54,325659.26,,,,
ITI_late,canvas.Screen,2_4_3_6_1_0_1_0_0_2_4,2021-05-24T16:06:17.528Z,,,blank.png,"[""ritz.png""]",blank.png,blank.png,blank.png,blank.png,blank.png,blank.png,blank.png,blank.png,blank.png,blank.png,blank.png,,,,,,,,,,,,,,,,,,,,,,,,,,,,,"[""ritz.png""]","[""pickle.png""]",PB16.png,,,,,,,,,,,0,6,"[""pickle.png""]","[""pickle.png""]","[""pickle.png""]","[""pickle.png""]","[""pickle.png""]","[""pickle.png""]",blank.png,PB18.png,PB18.png,"[""pickle.png""]","[""pickle.png""]","[""pickle.png""]","[""pickle.png""]","[""pickle.png""]",blank.png,"[""pickle.png""]","[""pickle.png""]","[""pickle.png""]","[""pickle.png""]","[""pickle.png""]","[""pickle.png""]",1,"[""ritz.png""]",blank.png,blank.png,blank.png,5,"[""pickle.png""]","[""pickle.png""]","[""pickle.png""]","[""pickle.png""]","[""pickle.png""]",blank.png,PB16.png,,,,,,,,,,,1,,,,,,,,,,,,,250,,timeout,,,,,,,,,,,,white,3,,,,,,,,,,,,,,,,,,,,,,,,,,,,,,,,,,,,,,,,,,,,,,,,,,,,,,,,,"[""pickle.png""]","[""ritz.png""]",,,,6,,,false,,1,,,,,,,325895,325892.6,325642.6,325646,325659.26,325909.26,,,,
choice_sequence,flow.Sequence,2_4_3_6_1_0_1_0_0_2,2021-05-24T16:06:17.529Z,,,blank.png,"[""ritz.png""]",blank.png,blank.png,blank.png,blank.png,blank.png,blank.png,blank.png,blank.png,blank.png,blank.png,blank.png,,,,,,,,,,,,,,,,,,,,,,,,,,,,,"[""ritz.png""]","[""pickle.png""]",PB16.png,,,,,,,,,,,0,6,"[""pickle.png""]","[""pickle.png""]","[""pickle.png""]","[""pickle.png""]","[""pickle.png""]","[""pickle.png""]",blank.png,PB18.png,PB18.png,"[""pickle.png""]","[""pickle.png""]","[""pickle.png""]","[""pickle.png""]","[""pickle.png""]",blank.png,"[""pickle.png""]","[""pickle.png""]","[""pickle.png""]","[""pickle.png""]","[""pickle.png""]","[""pickle.png""]",1,"[""ritz.png""]",blank.png,blank.png,blank.png,5,"[""pickle.png""]","[""pickle.png""]","[""pickle.png""]","[""pickle.png""]","[""pickle.png""]",blank.png,PB16.png,,,,,,,,,,,1,,,,,,,,,,,,,6612.639999999956,,completion,,,,,,,,,,,,,3,,,,,,,,,,,,,,,,,,,,,,,,,,,,,,,,,,,,,,,,,,,,,,,,,,,,,,,,,"[""pickle.png""]","[""ritz.png""]",,,,6,,,false,,1,,,,,,,325895,325892.6,319263.3,319274,319279.96,325909.26,,,,
fixCross,canvas.Screen,2_4_3_6_1_0_1_0_0_3_0,2021-05-24T16:06:17.880Z,,,blank.png,blank.png,blank.png,blank.png,blank.png,blank.png,blank.png,"[""ritz.png""]",blank.png,blank.png,blank.png,blank.png,blank.png,,,,,,,,,,,,,,,,,,,,,,,,,,,,,"[""ritz.png""]","[""pickle.png""]",PB18.png,,,,,,,,,,,0,6,"[""pickle.png""]","[""pickle.png""]","[""pickle.png""]","[""pickle.png""]","[""pickle.png""]","[""pickle.png""]",blank.png,PB18.png,PB01.png,"[""pickle.png""]","[""pickle.png""]","[""pickle.png""]","[""pickle.png""]","[""pickle.png""]","[""pickle.png""]",blank.png,blank.png,blank.png,blank.png,blank.png,blank.png,1,"[""ritz.png""]",blank.png,blank.png,blank.png,0,blank.png,blank.png,blank.png,blank.png,blank.png,blank.png,PB01.png,,,,,,,,,,,1,,,,,,,,,,,,,350,,timeout,,,,,,,,,,,,,4,,,,,,,,,,,,,,,,,,,,,,,,,,,,,,,,,,,,,,,,,,,,,,,,,,,,,,,,,"[""pickle.png""]","[""ritz.png""]",,,,6,,,false,,1,,,,,,,326244,326242.6,325892.6,325900,325909.26,326259.26,11,,,
timeout,canvas.Screen,2_4_3_6_1_0_1_0_0_3_1,2021-05-24T16:06:18.381Z,,,blank.png,blank.png,blank.png,blank.png,blank.png,blank.png,blank.png,"[""ritz.png""]",blank.png,blank.png,blank.png,blank.png,blank.png,,,,,,,,,,,,,,,,,,,,,,,,,,,,,"[""ritz.png""]","[""pickle.png""]",PB18.png,,,,,,,,,,,0,6,"[""pickle.png""]","[""pickle.png""]","[""pickle.png""]","[""pickle.png""]","[""pickle.png""]","[""pickle.png""]",blank.png,PB18.png,PB01.png,"[""pickle.png""]","[""pickle.png""]","[""pickle.png""]","[""pickle.png""]","[""pickle.png""]","[""pickle.png""]",blank.png,blank.png,blank.png,blank.png,blank.png,blank.png,1,"[""ritz.png""]",blank.png,blank.png,blank.png,0,blank.png,blank.png,blank.png,blank.png,blank.png,blank.png,PB01.png,,,,,,,,,,,1,,,,,,,,,,,,,502.2399999999907,,timeout,,,,,,,,,,,,,4,,,,,,,,,,,,,,,,,,,,,,,,,,,,,,,,,,,,,,,,,,,,,,,,,,,,,,,,,"[""pickle.png""]","[""ritz.png""]",,,,6,,,false,,1,,,,,,,326746,326744.84,326242.6,326265,326259.26,326761.5,,,,
choice,canvas.Screen,2_4_3_6_1_0_1_0_0_3_2,2021-05-24T16:06:19.190Z,,,blank.png,blank.png,blank.png,blank.png,blank.png,blank.png,blank.png,"[""ritz.png""]",blank.png,blank.png,blank.png,blank.png,blank.png,,,,,,,,,,,,,,,,,,,,,,,,,,,,,"[""ritz.png""]","[""pickle.png""]",PB18.png,,,,,,,,,,,0,6,"[""pickle.png""]","[""pickle.png""]","[""pickle.png""]","[""pickle.png""]","[""pickle.png""]","[""pickle.png""]",blank.png,PB18.png,PB01.png,"[""pickle.png""]","[""pickle.png""]","[""pickle.png""]","[""pickle.png""]","[""pickle.png""]","[""pickle.png""]",blank.png,blank.png,blank.png,blank.png,blank.png,blank.png,1,"[""ritz.png""]",blank.png,blank.png,blank.png,0,blank.png,blank.png,blank.png,blank.png,blank.png,blank.png,PB01.png,,,,,,,,,,,1,,,,,,,,,,,,,774.5,,response,,,,,,,,,,,,,4,,,,,,,,,,,,,,,,,,,,,,,,,,,,,,,,,,,,,,,,,,,,,,,,,,,,,,,,,"[""pickle.png""]","[""ritz.png""]",,,,6,left,keydown(ArrowLeft),false,,1,,,,,,,327555,327536,326744.84,326766,326761.5,327580.02,,11,,
square,canvas.Screen,2_4_3_6_1_0_1_0_0_3_3,2021-05-24T16:06:20.201Z,,,blank.png,blank.png,blank.png,blank.png,blank.png,blank.png,blank.png,"[""ritz.png""]",blank.png,blank.png,blank.png,blank.png,blank.png,,,,,,,,,,,,,,,,,,,,,,,,,,,,,"[""ritz.png""]","[""pickle.png""]",PB18.png,,,,,,,,,,,0,6,"[""pickle.png""]","[""pickle.png""]","[""pickle.png""]","[""pickle.png""]","[""pickle.png""]","[""pickle.png""]",blank.png,PB18.png,PB01.png,"[""pickle.png""]","[""pickle.png""]","[""pickle.png""]","[""pickle.png""]","[""pickle.png""]","[""pickle.png""]",blank.png,blank.png,blank.png,blank.png,blank.png,blank.png,1,"[""ritz.png""]",blank.png,blank.png,blank.png,0,blank.png,blank.png,blank.png,blank.png,blank.png,blank.png,PB01.png,,,,,,,,,,,1,,,#33ff3f,#808080,,,,,,,,,1001.8399999999674,,timeout,,,,,,,,,,,,,4,,,,,,,,,,,,,,,,,,,,,,,,,,,,,,,,,,,,,,,,,,,,,,,,,,,,,,,,,"[""pickle.png""]","[""ritz.png""]",,,,6,,,false,,1,,,,,black,white,328567,328565.18,327574,327574,327580.02,328581.86,,,,
