sender,sender_type,sender_id,timestamp,meta,,Blank,DownLeft1,DownLeft2,DownLeft3,DownLeft4,DownLeft5,DownLeft6,DownRight1,DownRight2,DownRight3,DownRight4,DownRight5,DownRight6,FoodHabits_Fru_item1,FoodHabits_Fru_item2,FoodHabits_Fru_item3,FoodHabits_Fru_item4,FoodHabits_Fru_item5,FoodHabits_Fru_item6,FoodHabits_Fru_item7,FoodHabits_Meat_item1,FoodHabits_Meat_item2,FoodHabits_Meat_item3,FoodHabits_Meat_item4,FoodHabits_Meat_item5,FoodHabits_Meat_item6,FoodHabits_Meat_item7,FoodHabits_Swe_item1,FoodHabits_Swe_item2,FoodHabits_Swe_item3,FoodHabits_Swe_item4,FoodHabits_Swe_item5,FoodHabits_Swe_item6,FoodHabits_Swe_item7,FoodHabits_Veg_item1,FoodHabits_Veg_item2,FoodHabits_Veg_item3,FoodHabits_Veg_item4,FoodHabits_Veg_item5,FoodHabits_Veg_item6,FoodHabits_Veg_item7,ImgA,ImgB,LeftBar,PSS_item01,PSS_item02,PSS_item03,PSS_item04,PSS_item05,PSS_item06,PSS_item07,PSS_item08,PSS_item09,PSS_item10,RefA,RefB,RefB1,RefB2,RefB3,RefB4,RefB5,RefB6,RefB7,Ref_PB,RightBar,UpLeft1,UpLeft2,UpLeft3,UpLeft4,UpLeft5,UpLeft6,UpRight1,UpRight2,UpRight3,UpRight4,UpRight5,UpRight6,VarA,VarA1,VarA2,VarA3,VarA4,VarB,VarB1,VarB2,VarB3,VarB4,VarB5,VarB6,Var_PB,attCheck_fileA,attCheck_fileB,attCheck_fileC,attCheck_fileD,attCheck_options,attCheck_valueA,attCheck_valueB,attCheck_valueC,attCheck_valueD,attention_check,block,break1,browser_name,choseL,choseR,consent_form1,consent_form2,consentconfirmation_form1,consentconfirmation_form2,correct,correctResponse,diet,disorder,duration,edu,ended_on,enjoy,full_version,gender,group,hunger,img,imgTask,input_age,input_meal,input_occ,input_remark,lateRespFeed,list,major_version,message,mixQ_item1,mixQ_item2,mixQ_item3,mixQ_item4,mixQ_item5,name,navigator_appName,navigator_userAgent,os,pracQ1_IDa,pracQ1_IDb,pracQ1_IDc,pracQ1_IDd,pracQ1_optionA,pracQ1_optionB,pracQ1_optionC,pracQ1_optionD,pracQ1_valueA,pracQ1_valueB,pracQ1_valueC,pracQ1_valueD,pracQ2_IDa,pracQ2_IDb,pracQ2_IDc,pracQ2_optionA,pracQ2_optionB,pracQ2_optionC,pracQ2_valueA,pracQ2_valueB,pracQ2_valueC,pracQ4_IDa,pracQ4_IDb,pracQ4_IDc,pracQ4_IDd,pracQ4_optionA,pracQ4_optionB,pracQ4_optionC,pracQ4_optionD,pracQ4_valueA,pracQ4_valueB,pracQ4_valueC,pracQ4_valueD,pracQ5_IDa,pracQ5_IDb,pracQ5_IDc,pracQ5_IDd,pracQ5_optionA,pracQ5_optionB,pracQ5_optionC,pracQ5_optionD,pracQ5_valueA,pracQ5_valueB,pracQ5_valueC,pracQ5_valueD,prefHealty,prefUnhealthy,prolific_ID,psessionID,pstudyID,rep,response,response_action,skip,snack,sublock,subtitle,task_difficulty,task_engagement,task_focus,textL,textR,time_commit,time_end,time_render,time_run,time_show,time_switch,trial_count,trial_countO,url,valence
Title,html.Page,0,2021-05-24T16:37:01.886Z,"{""labjs_version"":""20.2.2"",""labjs_build"":{""flavor"":""production"",""commit"":""a25486e0c714a0ae2ce03ff94b7bb6896854dcfa""},""location"":""https://run.pavlovia.org/E3lab/rebund/html/?PROLIFIC_PID=5ea2e2054687bd0517c23492&STUDY_ID=60008f34cd719d13b0d706dd&SESSION_ID=60abd5f60a3bcf84797a3931"",""userAgent"":""Mozilla/5.0 (Windows NT 10.0; Win64; x64) AppleWebKit/537.36 (KHTML, like Gecko) Chrome/90.0.4430.212 Safari/537.36"",""platform"":""Win32"",""language"":""pt-BR"",""locale"":""pt-PT"",""timeZone"":""Europe/Lisbon"",""timezoneOffset"":-60,""screen_width"":1536,""screen_height"":864,""scroll_width"":1536,""scroll_height"":706,""window_innerWidth"":1536,""window_innerHeight"":754,""devicePixelRatio"":1.25}",,,,,,,,,,,,,,,,,,,,,,,,,,,,,,,,,,,,,,,,,,,,,,,,,,,,,,,,,,,,,,,,,,,,,,,,,,,,,,,,,,,,,,,,,,,,,,,,,,,,,,,,,,,,,,,,,,,48534.09700000307,,form submission,,,,,,,,,,,,,,,,,,,,,,,,,,,,,,,,,,,,,,,,,,,,,,,,,,,,,,,,,,,,,,,,,,,,,,,,,,,,,,,,,,,,,,,50713.64499995252,50713.30000000307,2162.627,1559.5399999874644,2179.203,50712.679,,,"{""PROLIFIC_PID"":""5ea2e2054687bd0517c23492"",""STUDY_ID"":""60008f34cd719d13b0d706dd"",""SESSION_ID"":""60abd5f60a3bcf84797a3931""}",
get_systemInfo,canvas.Screen,1,2021-05-24T16:37:01.898Z,,,,,,,,,,,,,,,,,,,,,,,,,,,,,,,,,,,,,,,,,,,,,,,,,,,,,,,,,,,,,,,,,,,,,,,,,,,,,,,,,,,,,,,,,,,,,,,,,,,,,,,,,Chrome,,,,,,,,,,,188618.88199999998,,timeout,,90.0.4430.212,,,,,,,,,,,,90,,,,,,,,Netscape,"Mozilla/5.0 (Windows NT 10.0; Win64; x64) AppleWebKit/537.36 (KHTML, like Gecko) Chrome/90.0.4430.212 Safari/537.36",Windows,,,,,,,,,,,,,,,,,,,,,,,,,,,,,,,,,,,,,,,,,,,,,,,,5ea2e2054687bd0517c23492,,60008f34cd719d13b0d706dd,,,,,,,,,,,,,50725.86999996565,50725.65499995835,50696.154,50714.48500000406,50712.679,239331.561,,,,
ConsentForm,html.Form,2_0,2021-05-24T16:40:34.714Z,,,,,,,,,,,,,,,,,,,,,,,,,,,,,,,,,,,,,,,,,,,,,,,,,,,,,,,,,,,,,,,,,,,,,,,,,,,,,,,,,,,,,,,,,,,,,,,,,,,,,,,,,,,,true,true,,,,,,,24211.433999967063,,form submission,,,,,,,,,,,,,,,,,,,,,,,,,,,,,,,,,,,,,,,,,,,,,,,,,,,,,,,,,,,,,,,,,,,,,,,,,,,,,,,,,,,,,,,263543.1699999608,263542.99499996705,50725.65499995835,239338.20999995805,239331.561,263556.682,,,,
PepTalk,html.Page,2_1,2021-05-24T16:40:53.945Z,,,,,,,,,,,,,,,,,,,,,,,,,,,,,,,,,,,,,,,,,,,,,,,,,,,,,,,,,,,,,,,,,,,,,,,,,,,,,,,,,,,,,,,,,,,,,,,,,,,,,,,,,,,,,,,,,,,,19217.157999979856,,form submission,,,,,,,,,,,,,,,,,,,,,,,,,,,,,,,,,,,,,,,,,,,,,,,,,,,,,,,,,,,,,,,,,,,,,,,,,,,,,,,,,,,,,,,282774.09500000067,282773.8399999798,263540.051,263543.25499996776,263556.682,282783.368,,,,
Demographics,html.Form,2_2,2021-05-24T16:41:20.736Z,,,,,,,,,,,,,,,,,,,,,,,,,,,,,,,,,,,,,,,,,,,,,,,,,,,,,,,,,,,,,,,,,,,,,,,,,,,,,,,,,,,,,,,,,,,,,,,,,,,,,,,,,,,,,,,,,,,,26780.30200000317,2,form submission,,,2,,,,,20,,student,,,,,,,,,,,,,,,,,,,,,,,,,,,,,,,,,,,,,,,,,,,,,,,,,,,,,,,,,,,,,,,,,,,,,,,,,,,,,309563.8199999812,309563.6700000032,282766.857,282774.225000001,282783.368,309574.236,,,,
InclusionCrit,html.Form,2_3,2021-05-24T16:41:30.278Z,,,,,,,,,,,,,,,,,,,,,,,,,,,,,,,,,,,,,,,,,,,,,,,,,,,,,,,,,,,,,,,,,,,,,,,,,,,,,,,,,,,,,,,,,,,,,,,,,,,,,,,,,,,,,,,,,,1,1,9532.063999984937,,form submission,1,,,,,,,,,,,,,,,,,,,,,,,,,,,,,,,,,,,,,,,,,,,,,,,,,,,,,,,,,,,,,,,,,,,,,,,,,,,,,,,,,,,,,,319106.46499996074,319106.2999999849,309557.673,309563.909999968,309574.236,319121.056,,,,
Selection,html.Page,2_4_0,2021-05-24T16:41:47.194Z,,,,,,,,,,,,,,,,,,,,,,,,,,,,,,,,,,,,,,,,,,,,,,,,,,,,,,,,,,,,,,,,,,,,,,,,,,,,,,,,,,,,,,,,,,,,,,,,,,,,,,,,,,,,,,,,,,,,16901.383999971556,,form submission,,,,,,,,,,,,,,,,,,,,,,,,,,,,,,,,,,,,,,,,,,,,,,,,,,,,,,,,,,,,,,,,,,,,,,,,,,,,,,,0,,,,,,,,336022.60999998543,336022.43999997154,319104.336,319106.57000000356,319121.056,336031.888,,,,
Load,html.Page,2_4_1,2021-05-24T16:41:47.205Z,,,,,,,,,,,,,,,,,,,,,,,,,,,,,,,,,,,,,,,,,,,,,,,,,,,,,,,,,,,,,,,,,,,,,,,,,,,,,,,,,,,,,,,,,,,,,,,,,,,,,,,,,,,,,,,,,,,,2682.454000000027,,timeout,,,,,,,,,,,,,,,,,,,,,,,,,,,,,,,,,,,,,,,,,,,,,,,,,,,,,,,,,,,,,,,,,,,,,,,,,,,,,,,,,,,,,,,336033.2150000031,336032.9999999958,336015.538,336022.7049999521,336031.888,338714.342,,,,
ratings_instructions,html.Screen,2_4_2_0,2021-05-24T16:42:31.939Z,,,,,,,,,,,,,,,,,,,,,,,,,,,,,,,,,,,,,,,,,,,,,,,,,,,,,,,,,,,,,,,,,,,,,,,,,,,,,,,,,,,,,,,,,,,,,,,,,,,,,,,,,,,,,,,,,,,,42051.14799996157,,response,,,,,,,,,,,,,,,,,,,,,,,,,,,,,,,,,,,,,,,,,,,,,,,,,,,,,,,,,,,,,,,,,,,,,,,,,,,,continue,keypress(Space),false,,,,,,,,,380767.32499996433,380765.4899999616,336032.9999999958,338724.1299999878,338714.342,380787.243,0,0,,
fixCross,canvas.Screen,2_4_2_1_0_0,2021-05-24T16:42:32.439Z,,,,,,,,,,,,,,,,,,,,,,,,,,,,,,,,,,,,,,,,,,,,,,,,,,,,,,,,,,,,,,,,,,,,,,,,,,,,,,,,,,,,,,,,,,,,,,,,,,,,,,,,,,,,,,,,,,,,495.85999999998603,,timeout,,,,healthy,,cherry.png,,,,,,,,,,,,,,,cherry,,,,,,,,,,,,,,,,,,,,,,,,,,,,,,,,,,,,,,,,,,,,,,,,,,,,,,,,,false,,,,,,,,,381266.94999996107,381266.45,380750.06,380767.4549999647,380787.243,381283.103,,,,
Rating,html.Form,2_4_2_1_0_1,2021-05-24T16:42:39.541Z,,,,,,,,,,,,,,,,,,,,,,,,,,,,,,,,,,,,,,,,,,,,,,,,,,,,,,,,,,,,,,,,,,,,,,,,,,,,,,,,,,,,,,,,,,,,,,,,,,,,,,,,,,,,,,,,,,,,7086.0669999617385,,form submission,,,,healthy,,cherry.png,,,,,,,,,,,,,,,cherry,,,,,,,,,,,,,,,,,,,,,,,,,,,,,,,,,,,,,,,,,,,,,,,,,,,,,,,,,false,,,,,,,,,388369.3149999599,388369.16999996174,381266.45,381267.01499999035,381283.103,388380.939,,,,27
rating_sequence,flow.Sequence,2_4_2_1_0,2021-05-24T16:42:39.541Z,,,,,,,,,,,,,,,,,,,,,,,,,,,,,,,,,,,,,,,,,,,,,,,,,,,,,,,,,,,,,,,,,,,,,,,,,,,,,,,,,,,,,,,,,,,,,,,,,,,,,,,,,,,,,,,,,,,,7581.9269999617245,,completion,,,,healthy,,cherry.png,,,,,,,,,,,,,,,cherry,,,,,,,,,,,,,,,,,,,,,,,,,,,,,,,,,,,,,,,,,,,,,,,,,,,,,,,,,false,,,,,,,,,388369.4549999782,388369.16999996174,380750.06,380767.42999994894,380787.243,388380.939,,,,
fixCross,canvas.Screen,2_4_2_1_1_0,2021-05-24T16:42:40.036Z,,,,,,,,,,,,,,,,,,,,,,,,,,,,,,,,,,,,,,,,,,,,,,,,,,,,,,,,,,,,,,,,,,,,,,,,,,,,,,,,,,,,,,,,,,,,,,,,,,,,,,,,,,,,,,,,,,,,499.54899999999907,,timeout,,,,healthy,,coconut.png,,,,,,,,,,,,,,,coconut,,,,,,,,,,,,,,,,,,,,,,,,,,,,,,,,,,,,,,,,,,,,,,,,,,,,,,,,,false,,,,,,,,,388864.2899999977,388863.83,388364.097,388369.51999994926,388380.939,388880.488,,,,
Rating,html.Form,2_4_2_1_1_1,2021-05-24T16:42:45.270Z,,,,,,,,,,,,,,,,,,,,,,,,,,,,,,,,,,,,,,,,,,,,,,,,,,,,,,,,,,,,,,,,,,,,,,,,,,,,,,,,,,,,,,,,,,,,,,,,,,,,,,,,,,,,,,,,,,,,5217.281999993022,,form submission,,,,healthy,,coconut.png,,,,,,,,,,,,,,,coconut,,,,,,,,,,,,,,,,,,,,,,,,,,,,,,,,,,,,,,,,,,,,,,,,,,,,,,,,,false,,,,,,,,,394097.8949999553,394097.76999999303,388863.83,388864.34499995084,388880.488,394112.102,,,,61
rating_sequence,flow.Sequence,2_4_2_1_1,2021-05-24T16:42:45.270Z,,,,,,,,,,,,,,,,,,,,,,,,,,,,,,,,,,,,,,,,,,,,,,,,,,,,,,,,,,,,,,,,,,,,,,,,,,,,,,,,,,,,,,,,,,,,,,,,,,,,,,,,,,,,,,,,,,,,5716.830999993021,,completion,,,,healthy,,coconut.png,,,,,,,,,,,,,,,coconut,,,,,,,,,,,,,,,,,,,,,,,,,,,,,,,,,,,,,,,,,,,,,,,,,,,,,,,,,false,,,,,,,,,394097.97999996226,394097.76999999303,388364.097,388369.4999999716,388380.939,394112.102,,,,
fixCross,canvas.Screen,2_4_2_1_2_0,2021-05-24T16:42:45.767Z,,,,,,,,,,,,,,,,,,,,,,,,,,,,,,,,,,,,,,,,,,,,,,,,,,,,,,,,,,,,,,,,,,,,,,,,,,,,,,,,,,,,,,,,,,,,,,,,,,,,,,,,,,,,,,,,,,,,499.7760000000126,,timeout,,,,unhealthy,,chocolate_truffle.png,,,,,,,,,,,,,,,chocolate truffle,,,,,,,,,,,,,,,,,,,,,,,,,,,,,,,,,,,,,,,,,,,,,,,,,,,,,,,,,false,,,,,,,,,394595.62999999616,394595.209,394095.51,394098.0349999736,394112.102,394611.878,,,,
Rating,html.Form,2_4_2_1_2_1,2021-05-24T16:42:51.574Z,,,,,,,,,,,,,,,,,,,,,,,,,,,,,,,,,,,,,,,,,,,,,,,,,,,,,,,,,,,,,,,,,,,,,,,,,,,,,,,,,,,,,,,,,,,,,,,,,,,,,,,,,,,,,,,,,,,,5789.916999954265,,form submission,,,,unhealthy,,chocolate_truffle.png,,,,,,,,,,,,,,,chocolate truffle,,,,,,,,,,,,,,,,,,,,,,,,,,,,,,,,,,,,,,,,,,,,,,,,,,,,,,,,,false,,,,,,,,,400401.98500000406,400401.7949999543,394595.209,394595.6899999874,394611.878,400410.171,,,,74
rating_sequence,flow.Sequence,2_4_2_1_2,2021-05-24T16:42:51.574Z,,,,,,,,,,,,,,,,,,,,,,,,,,,,,,,,,,,,,,,,,,,,,,,,,,,,,,,,,,,,,,,,,,,,,,,,,,,,,,,,,,,,,,,,,,,,,,,,,,,,,,,,,,,,,,,,,,,,6289.692999954277,,completion,,,,unhealthy,,chocolate_truffle.png,,,,,,,,,,,,,,,chocolate truffle,,,,,,,,,,,,,,,,,,,,,,,,,,,,,,,,,,,,,,,,,,,,,,,,,,,,,,,,,false,,,,,,,,,400402.145,400401.7949999543,394095.51,394098.01499999594,394112.102,400410.171,,,,
fixCross,canvas.Screen,2_4_2_1_3_0,2021-05-24T16:42:52.066Z,,,,,,,,,,,,,,,,,,,,,,,,,,,,,,,,,,,,,,,,,,,,,,,,,,,,,,,,,,,,,,,,,,,,,,,,,,,,,,,,,,,,,,,,,,,,,,,,,,,,,,,,,,,,,,,,,,,,499.5480000000098,,timeout,,,,healthy,,raspberry.png,,,,,,,,,,,,,,,raspberry,,,,,,,,,,,,,,,,,,,,,,,,,,,,,,,,,,,,,,,,,,,,,,,,,,,,,,,,,false,,,,,,,,,400893.90500000445,400893.108,400393.306,400402.2549999645,400410.171,400909.719,,,,
Rating,html.Form,2_4_2_1_3_1,2021-05-24T16:42:56.202Z,,,,,,,,,,,,,,,,,,,,,,,,,,,,,,,,,,,,,,,,,,,,,,,,,,,,,,,,,,,,,,,,,,,,,,,,,,,,,,,,,,,,,,,,,,,,,,,,,,,,,,,,,,,,,,,,,,,,4120.710999984352,,form submission,,,,healthy,,raspberry.png,,,,,,,,,,,,,,,raspberry,,,,,,,,,,,,,,,,,,,,,,,,,,,,,,,,,,,,,,,,,,,,,,,,,,,,,,,,,false,,,,,,,,,405030.63999995356,405030.42999998434,400893.108,400894.0699999803,400909.719,405041.727,,,,16
rating_sequence,flow.Sequence,2_4_2_1_3,2021-05-24T16:42:56.203Z,,,,,,,,,,,,,,,,,,,,,,,,,,,,,,,,,,,,,,,,,,,,,,,,,,,,,,,,,,,,,,,,,,,,,,,,,,,,,,,,,,,,,,,,,,,,,,,,,,,,,,,,,,,,,,,,,,,,4620.258999984362,,completion,,,,healthy,,raspberry.png,,,,,,,,,,,,,,,raspberry,,,,,,,,,,,,,,,,,,,,,,,,,,,,,,,,,,,,,,,,,,,,,,,,,,,,,,,,,false,,,,,,,,,405030.8149999473,405030.42999998434,400393.306,400402.219999989,400410.171,405041.727,,,,
fixCross,canvas.Screen,2_4_2_1_4_0,2021-05-24T16:42:56.697Z,,,,,,,,,,,,,,,,,,,,,,,,,,,,,,,,,,,,,,,,,,,,,,,,,,,,,,,,,,,,,,,,,,,,,,,,,,,,,,,,,,,,,,,,,,,,,,,,,,,,,,,,,,,,,,,,,,,,499.74499999999534,,timeout,,,,healthy,,blueberry.png,,,,,,,,,,,,,,,blueberry,,,,,,,,,,,,,,,,,,,,,,,,,,,,,,,,,,,,,,,,,,,,,,,,,,,,,,,,,false,,,,,,,,,405525.36999998847,405524.818,405025.096,405030.93499998795,405041.727,405541.472,,,,
Rating,html.Form,2_4_2_1_4_1,2021-05-24T16:42:59.438Z,,,,,,,,,,,,,,,,,,,,,,,,,,,,,,,,,,,,,,,,,,,,,,,,,,,,,,,,,,,,,,,,,,,,,,,,,,,,,,,,,,,,,,,,,,,,,,,,,,,,,,,,,,,,,,,,,,,,2724.2279999890015,,form submission,,,,healthy,,blueberry.png,,,,,,,,,,,,,,,blueberry,,,,,,,,,,,,,,,,,,,,,,,,,,,,,,,,,,,,,,,,,,,,,,,,,,,,,,,,,false,,,,,,,,,408265.8199999714,408265.699999989,405524.818,405525.4299999797,405541.472,408273.923,,,,27
rating_sequence,flow.Sequence,2_4_2_1_4,2021-05-24T16:42:59.438Z,,,,,,,,,,,,,,,,,,,,,,,,,,,,,,,,,,,,,,,,,,,,,,,,,,,,,,,,,,,,,,,,,,,,,,,,,,,,,,,,,,,,,,,,,,,,,,,,,,,,,,,,,,,,,,,,,,,,3223.972999988997,,completion,,,,healthy,,blueberry.png,,,,,,,,,,,,,,,blueberry,,,,,,,,,,,,,,,,,,,,,,,,,,,,,,,,,,,,,,,,,,,,,,,,,,,,,,,,,false,,,,,,,,,408265.90999995824,408265.699999989,405025.096,405030.8949999744,405041.727,408273.923,,,,
fixCross,canvas.Screen,2_4_2_1_5_0,2021-05-24T16:42:59.929Z,,,,,,,,,,,,,,,,,,,,,,,,,,,,,,,,,,,,,,,,,,,,,,,,,,,,,,,,,,,,,,,,,,,,,,,,,,,,,,,,,,,,,,,,,,,,,,,,,,,,,,,,,,,,,,,,,,,,499.7639999999665,,timeout,,,,unhealthy,,gummybear.png,,,,,,,,,,,,,,,gummybear,,,,,,,,,,,,,,,,,,,,,,,,,,,,,,,,,,,,,,,,,,,,,,,,,,,,,,,,,false,,,,,,,,,408757.5300000026,408757.043,408257.276,408265.9649999696,408273.923,408773.687,,,,
Rating,html.Form,2_4_2_1_5_1,2021-05-24T16:43:04.100Z,,,,,,,,,,,,,,,,,,,,,,,,,,,,,,,,,,,,,,,,,,,,,,,,,,,,,,,,,,,,,,,,,,,,,,,,,,,,,,,,,,,,,,,,,,,,,,,,,,,,,,,,,,,,,,,,,,,,4153.987999984471,,form submission,,,,unhealthy,,gummybear.png,,,,,,,,,,,,,,,gummybear,,,,,,,,,,,,,,,,,,,,,,,,,,,,,,,,,,,,,,,,,,,,,,,,,,,,,,,,,false,,,,,,,,,412927.8949999716,412927.67499998445,408757.043,408757.6149999513,408773.687,412938.966,,,,44
rating_sequence,flow.Sequence,2_4_2_1_5,2021-05-24T16:43:04.100Z,,,,,,,,,,,,,,,,,,,,,,,,,,,,,,,,,,,,,,,,,,,,,,,,,,,,,,,,,,,,,,,,,,,,,,,,,,,,,,,,,,,,,,,,,,,,,,,,,,,,,,,,,,,,,,,,,,,,4653.751999984437,,completion,,,,unhealthy,,gummybear.png,,,,,,,,,,,,,,,gummybear,,,,,,,,,,,,,,,,,,,,,,,,,,,,,,,,,,,,,,,,,,,,,,,,,,,,,,,,,false,,,,,,,,,412928.10499999905,412927.67499998445,408257.276,408265.9449999919,408273.923,412938.966,,,,
fixCross,canvas.Screen,2_4_2_1_6_0,2021-05-24T16:43:04.594Z,,,,,,,,,,,,,,,,,,,,,,,,,,,,,,,,,,,,,,,,,,,,,,,,,,,,,,,,,,,,,,,,,,,,,,,,,,,,,,,,,,,,,,,,,,,,,,,,,,,,,,,,,,,,,,,,,,,,499.81299999996554,,timeout,,,,healthy,,orange.png,,,,,,,,,,,,,,,orange,,,,,,,,,,,,,,,,,,,,,,,,,,,,,,,,,,,,,,,,,,,,,,,,,,,,,,,,,false,,,,,,,,,413422.72999999113,413422.271,412922.298,412928.25499997707,412938.966,413438.779,,,,
Rating,html.Form,2_4_2_1_6_1,2021-05-24T16:43:07.304Z,,,,,,,,,,,,,,,,,,,,,,,,,,,,,,,,,,,,,,,,,,,,,,,,,,,,,,,,,,,,,,,,,,,,,,,,,,,,,,,,,,,,,,,,,,,,,,,,,,,,,,,,,,,,,,,,,,,,2693.7609999623382,,form submission,,,,healthy,,orange.png,,,,,,,,,,,,,,,orange,,,,,,,,,,,,,,,,,,,,,,,,,,,,,,,,,,,,,,,,,,,,,,,,,,,,,,,,,false,,,,,,,,,416132.66000000294,416132.5399999623,413422.271,413422.7949999622,413438.779,416154.557,,,,0
rating_sequence,flow.Sequence,2_4_2_1_6,2021-05-24T16:43:07.304Z,,,,,,,,,,,,,,,,,,,,,,,,,,,,,,,,,,,,,,,,,,,,,,,,,,,,,,,,,,,,,,,,,,,,,,,,,,,,,,,,,,,,,,,,,,,,,,,,,,,,,,,,,,,,,,,,,,,,3193.573999962304,,completion,,,,healthy,,orange.png,,,,,,,,,,,,,,,orange,,,,,,,,,,,,,,,,,,,,,,,,,,,,,,,,,,,,,,,,,,,,,,,,,,,,,,,,,false,,,,,,,,,416132.74999998976,416132.5399999623,412922.298,412928.2050000038,412938.966,416154.557,,,,
fixCross,canvas.Screen,2_4_2_1_7_0,2021-05-24T16:43:07.810Z,,,,,,,,,,,,,,,,,,,,,,,,,,,,,,,,,,,,,,,,,,,,,,,,,,,,,,,,,,,,,,,,,,,,,,,,,,,,,,,,,,,,,,,,,,,,,,,,,,,,,,,,,,,,,,,,,,,,499.7980000000098,,timeout,,,,unhealthy,,candy.png,,,,,,,,,,,,,,,candy,,,,,,,,,,,,,,,,,,,,,,,,,,,,,,,,,,,,,,,,,,,,,,,,,,,,,,,,,false,,,,,,,,,416638.1499999552,416637.721,416137.873,416132.8199999989,416154.557,416654.355,,,,
Rating,html.Form,2_4_2_1_7_1,2021-05-24T16:43:12.460Z,,,,,,,,,,,,,,,,,,,,,,,,,,,,,,,,,,,,,,,,,,,,,,,,,,,,,,,,,,,,,,,,,,,,,,,,,,,,,,,,,,,,,,,,,,,,,,,,,,,,,,,,,,,,,,,,,,,,4634.0299999634735,,form submission,,,,unhealthy,,candy.png,,,,,,,,,,,,,,,candy,,,,,,,,,,,,,,,,,,,,,,,,,,,,,,,,,,,,,,,,,,,,,,,,,,,,,,,,,false,,,,,,,,,421288.5050000041,421288.38499996345,416637.721,416638.2299999823,416654.355,421302.83,,,,24
rating_sequence,flow.Sequence,2_4_2_1_7,2021-05-24T16:43:12.460Z,,,,,,,,,,,,,,,,,,,,,,,,,,,,,,,,,,,,,,,,,,,,,,,,,,,,,,,,,,,,,,,,,,,,,,,,,,,,,,,,,,,,,,,,,,,,,,,,,,,,,,,,,,,,,,,,,,,,5133.827999963483,,completion,,,,unhealthy,,candy.png,,,,,,,,,,,,,,,candy,,,,,,,,,,,,,,,,,,,,,,,,,,,,,,,,,,,,,,,,,,,,,,,,,,,,,,,,,false,,,,,,,,,421288.6049999506,421288.38499996345,416137.873,416132.799999963,416154.557,421302.83,,,,
fixCross,canvas.Screen,2_4_2_1_8_0,2021-05-24T16:43:12.958Z,,,,,,,,,,,,,,,,,,,,,,,,,,,,,,,,,,,,,,,,,,,,,,,,,,,,,,,,,,,,,,,,,,,,,,,,,,,,,,,,,,,,,,,,,,,,,,,,,,,,,,,,,,,,,,,,,,,,499.75500000000466,,timeout,,,,unhealthy,,chocolate.png,,,,,,,,,,,,,,,chocolate,,,,,,,,,,,,,,,,,,,,,,,,,,,,,,,,,,,,,,,,,,,,,,,,,,,,,,,,,false,,,,,,,,,421786.49499994935,421785.918,421286.176,421288.6699999799,421302.83,421802.585,,,,
Rating,html.Form,2_4_2_1_8_1,2021-05-24T16:43:17.423Z,,,,,,,,,,,,,,,,,,,,,,,,,,,,,,,,,,,,,,,,,,,,,,,,,,,,,,,,,,,,,,,,,,,,,,,,,,,,,,,,,,,,,,,,,,,,,,,,,,,,,,,,,,,,,,,,,,,,4449.01499995956,,form submission,,,,unhealthy,,chocolate.png,,,,,,,,,,,,,,,chocolate,,,,,,,,,,,,,,,,,,,,,,,,,,,,,,,,,,,,,,,,,,,,,,,,,,,,,,,,,false,,,,,,,,,426251.7200000002,426251.5999999596,421785.918,421786.5999999922,421802.585,426267.734,,,,69
rating_sequence,flow.Sequence,2_4_2_1_8,2021-05-24T16:43:17.423Z,,,,,,,,,,,,,,,,,,,,,,,,,,,,,,,,,,,,,,,,,,,,,,,,,,,,,,,,,,,,,,,,,,,,,,,,,,,,,,,,,,,,,,,,,,,,,,,,,,,,,,,,,,,,,,,,,,,,4948.769999959564,,completion,,,,unhealthy,,chocolate.png,,,,,,,,,,,,,,,chocolate,,,,,,,,,,,,,,,,,,,,,,,,,,,,,,,,,,,,,,,,,,,,,,,,,,,,,,,,,false,,,,,,,,,426251.8149999669,426251.5999999596,421286.176,421288.65000000224,421302.83,426267.734,,,,
fixCross,canvas.Screen,2_4_2_1_9_0,2021-05-24T16:43:17.923Z,,,,,,,,,,,,,,,,,,,,,,,,,,,,,,,,,,,,,,,,,,,,,,,,,,,,,,,,,,,,,,,,,,,,,,,,,,,,,,,,,,,,,,,,,,,,,,,,,,,,,,,,,,,,,,,,,,,,499.83600000001024,,timeout,,,,unhealthy,,marshmallow.png,,,,,,,,,,,,,,,marshmallow,,,,,,,,,,,,,,,,,,,,,,,,,,,,,,,,,,,,,,,,,,,,,,,,,,,,,,,,,false,,,,,,,,,426751.734999998,426750.955,426251.093,426251.8749999581,426267.734,426767.57,,,,
Rating,html.Form,2_4_2_1_9_1,2021-05-24T16:43:20.446Z,,,,,,,,,,,,,,,,,,,,,,,,,,,,,,,,,,,,,,,,,,,,,,,,,,,,,,,,,,,,,,,,,,,,,,,,,,,,,,,,,,,,,,,,,,,,,,,,,,,,,,,,,,,,,,,,,,,,2506.5149999827263,,form submission,,,,unhealthy,,marshmallow.png,,,,,,,,,,,,,,,marshmallow,,,,,,,,,,,,,,,,,,,,,,,,,,,,,,,,,,,,,,,,,,,,,,,,,,,,,,,,,false,,,,,,,,,429274.29999999003,429274.08499998273,426750.955,426751.9349999493,426767.57,429283.444,,,,69
rating_sequence,flow.Sequence,2_4_2_1_9,2021-05-24T16:43:20.446Z,,,,,,,,,,,,,,,,,,,,,,,,,,,,,,,,,,,,,,,,,,,,,,,,,,,,,,,,,,,,,,,,,,,,,,,,,,,,,,,,,,,,,,,,,,,,,,,,,,,,,,,,,,,,,,,,,,,,3006.3509999827365,,completion,,,,unhealthy,,marshmallow.png,,,,,,,,,,,,,,,marshmallow,,,,,,,,,,,,,,,,,,,,,,,,,,,,,,,,,,,,,,,,,,,,,,,,,,,,,,,,,false,,,,,,,,,429274.49999999953,429274.08499998273,426251.093,426251.8599999603,426267.734,429283.444,,,,
fixCross,canvas.Screen,2_4_2_1_10_0,2021-05-24T16:43:20.938Z,,,,,,,,,,,,,,,,,,,,,,,,,,,,,,,,,,,,,,,,,,,,,,,,,,,,,,,,,,,,,,,,,,,,,,,,,,,,,,,,,,,,,,,,,,,,,,,,,,,,,,,,,,,,,,,,,,,,499.72299999999814,,timeout,,,,healthy,,pear.png,,,,,,,,,,,,,,,pear,,,,,,,,,,,,,,,,,,,,,,,,,,,,,,,,,,,,,,,,,,,,,,,,,,,,,,,,,false,,,,,,,,,429766.95499999914,429766.512,429266.823,429274.6299999999,429283.444,429783.167,,,,
Rating,html.Form,2_4_2_1_10_1,2021-05-24T16:43:52.499Z,,,,,,,,,,,,,,,,,,,,,,,,,,,,,,,,,,,,,,,,,,,,,,,,,,,,,,,,,,,,,,,,,,,,,,,,,,,,,,,,,,,,,,,,,,,,,,,,,,,,,,,,,,,,,,,,,,,,31544.41299998283,,form submission,,,,healthy,,pear.png,,,,,,,,,,,,,,,pear,,,,,,,,,,,,,,,,,,,,,,,,,,,,,,,,,,,,,,,,,,,,,,,,,,,,,,,,,false,,,,,,,,,461327.7099999832,461327.57999998285,429766.512,429767.0199999702,429783.167,461339.102,,,,34
rating_sequence,flow.Sequence,2_4_2_1_10,2021-05-24T16:43:52.499Z,,,,,,,,,,,,,,,,,,,,,,,,,,,,,,,,,,,,,,,,,,,,,,,,,,,,,,,,,,,,,,,,,,,,,,,,,,,,,,,,,,,,,,,,,,,,,,,,,,,,,,,,,,,,,,,,,,,,32044.135999982827,,completion,,,,healthy,,pear.png,,,,,,,,,,,,,,,pear,,,,,,,,,,,,,,,,,,,,,,,,,,,,,,,,,,,,,,,,,,,,,,,,,,,,,,,,,false,,,,,,,,,461327.82499998575,461327.57999998285,429266.823,429274.58999998635,429283.444,461339.102,,,,
fixCross,canvas.Screen,2_4_2_1_11_0,2021-05-24T16:43:52.994Z,,,,,,,,,,,,,,,,,,,,,,,,,,,,,,,,,,,,,,,,,,,,,,,,,,,,,,,,,,,,,,,,,,,,,,,,,,,,,,,,,,,,,,,,,,,,,,,,,,,,,,,,,,,,,,,,,,,,499.7870000000112,,timeout,,,,healthy,,strawberry.png,,,,,,,,,,,,,,,strawberry,,,,,,,,,,,,,,,,,,,,,,,,,,,,,,,,,,,,,,,,,,,,,,,,,,,,,,,,,false,,,,,,,,,461822.6999999606,461822.274,461322.453,461327.9049999546,461339.102,461838.889,,,,
Rating,html.Form,2_4_2_1_11_1,2021-05-24T16:43:56.627Z,,,,,,,,,,,,,,,,,,,,,,,,,,,,,,,,,,,,,,,,,,,,,,,,,,,,,,,,,,,,,,,,,,,,,,,,,,,,,,,,,,,,,,,,,,,,,,,,,,,,,,,,,,,,,,,,,,,,3616.940999991668,,form submission,,,,healthy,,strawberry.png,,,,,,,,,,,,,,,strawberry,,,,,,,,,,,,,,,,,,,,,,,,,,,,,,,,,,,,,,,,,,,,,,,,,,,,,,,,,false,,,,,,,,,465455.94499999424,465455.8299999917,461822.274,461822.7649999899,461838.889,465471.031,,,,32
rating_sequence,flow.Sequence,2_4_2_1_11,2021-05-24T16:43:56.627Z,,,,,,,,,,,,,,,,,,,,,,,,,,,,,,,,,,,,,,,,,,,,,,,,,,,,,,,,,,,,,,,,,,,,,,,,,,,,,,,,,,,,,,,,,,,,,,,,,,,,,,,,,,,,,,,,,,,,4116.727999991679,,completion,,,,healthy,,strawberry.png,,,,,,,,,,,,,,,strawberry,,,,,,,,,,,,,,,,,,,,,,,,,,,,,,,,,,,,,,,,,,,,,,,,,,,,,,,,,false,,,,,,,,,465456.044999999,465455.8299999917,461322.453,461327.88499997696,461339.102,465471.031,,,,
fixCross,canvas.Screen,2_4_2_1_12_0,2021-05-24T16:43:57.126Z,,,,,,,,,,,,,,,,,,,,,,,,,,,,,,,,,,,,,,,,,,,,,,,,,,,,,,,,,,,,,,,,,,,,,,,,,,,,,,,,,,,,,,,,,,,,,,,,,,,,,,,,,,,,,,,,,,,,499.81099999998696,,timeout,,,,healthy,,grape.png,,,,,,,,,,,,,,,grape,,,,,,,,,,,,,,,,,,,,,,,,,,,,,,,,,,,,,,,,,,,,,,,,,,,,,,,,,false,,,,,,,,,465954.63999995263,465954.2,465454.382,465456.10999997007,465471.031,465970.842,,,,
Rating,html.Form,2_4_2_1_12_1,2021-05-24T16:44:00.032Z,,,,,,,,,,,,,,,,,,,,,,,,,,,,,,,,,,,,,,,,,,,,,,,,,,,,,,,,,,,,,,,,,,,,,,,,,,,,,,,,,,,,,,,,,,,,,,,,,,,,,,,,,,,,,,,,,,,,2889.6179999962333,,form submission,,,,healthy,,grape.png,,,,,,,,,,,,,,,grape,,,,,,,,,,,,,,,,,,,,,,,,,,,,,,,,,,,,,,,,,,,,,,,,,,,,,,,,,false,,,,,,,,,468860.69999996107,468860.45999999624,465954.2,465954.7249999596,465970.842,468869.873,,,,64
rating_sequence,flow.Sequence,2_4_2_1_12,2021-05-24T16:44:00.032Z,,,,,,,,,,,,,,,,,,,,,,,,,,,,,,,,,,,,,,,,,,,,,,,,,,,,,,,,,,,,,,,,,,,,,,,,,,,,,,,,,,,,,,,,,,,,,,,,,,,,,,,,,,,,,,,,,,,,3389.42899999622,,completion,,,,healthy,,grape.png,,,,,,,,,,,,,,,grape,,,,,,,,,,,,,,,,,,,,,,,,,,,,,,,,,,,,,,,,,,,,,,,,,,,,,,,,,false,,,,,,,,,468860.79499998596,468860.45999999624,465454.382,465456.0899999924,465471.031,468869.873,,,,
fixCross,canvas.Screen,2_4_2_1_13_0,2021-05-24T16:44:00.525Z,,,,,,,,,,,,,,,,,,,,,,,,,,,,,,,,,,,,,,,,,,,,,,,,,,,,,,,,,,,,,,,,,,,,,,,,,,,,,,,,,,,,,,,,,,,,,,,,,,,,,,,,,,,,,,,,,,,,499.7839999999851,,timeout,,,,unhealthy,,maltesers.png,,,,,,,,,,,,,,,malteser,,,,,,,,,,,,,,,,,,,,,,,,,,,,,,,,,,,,,,,,,,,,,,,,,,,,,,,,,false,,,,,,,,,469353.69999997783,469353.05,468853.181,468860.859999957,468869.873,469369.657,,,,
Rating,html.Form,2_4_2_1_13_1,2021-05-24T16:44:04.546Z,,,,,,,,,,,,,,,,,,,,,,,,,,,,,,,,,,,,,,,,,,,,,,,,,,,,,,,,,,,,,,,,,,,,,,,,,,,,,,,,,,,,,,,,,,,,,,,,,,,,,,,,,,,,,,,,,,,,4005.3429999999935,,form submission,,,,unhealthy,,maltesers.png,,,,,,,,,,,,,,,malteser,,,,,,,,,,,,,,,,,,,,,,,,,,,,,,,,,,,,,,,,,,,,,,,,,,,,,,,,,false,,,,,,,,,473375.17499999376,473375,469353.05,469353.81999996025,469369.657,473385.022,,,,82
rating_sequence,flow.Sequence,2_4_2_1_13,2021-05-24T16:44:04.547Z,,,,,,,,,,,,,,,,,,,,,,,,,,,,,,,,,,,,,,,,,,,,,,,,,,,,,,,,,,,,,,,,,,,,,,,,,,,,,,,,,,,,,,,,,,,,,,,,,,,,,,,,,,,,,,,,,,,,4505.126999999979,,completion,,,,unhealthy,,maltesers.png,,,,,,,,,,,,,,,malteser,,,,,,,,,,,,,,,,,,,,,,,,,,,,,,,,,,,,,,,,,,,,,,,,,,,,,,,,,false,,,,,,,,,473375.2649999806,473375,468853.181,468860.83999997936,468869.873,473385.022,,,,
fixCross,canvas.Screen,2_4_2_1_14_0,2021-05-24T16:44:05.040Z,,,,,,,,,,,,,,,,,,,,,,,,,,,,,,,,,,,,,,,,,,,,,,,,,,,,,,,,,,,,,,,,,,,,,,,,,,,,,,,,,,,,,,,,,,,,,,,,,,,,,,,,,,,,,,,,,,,,499.7390000000014,,timeout,,,,unhealthy,,m&m.png,,,,,,,,,,,,,,,m&m,,,,,,,,,,,,,,,,,,,,,,,,,,,,,,,,,,,,,,,,,,,,,,,,,,,,,,,,,false,,,,,,,,,473868.594999949,473868.172,473368.386,473375.3249999718,473385.022,473884.761,,,,
Rating,html.Form,2_4_2_1_14_1,2021-05-24T16:44:07.439Z,,,,,,,,,,,,,,,,,,,,,,,,,,,,,,,,,,,,,,,,,,,,,,,,,,,,,,,,,,,,,,,,,,,,,,,,,,,,,,,,,,,,,,,,,,,,,,,,,,,,,,,,,,,,,,,,,,,,2382.7289999983623,,form submission,,,,unhealthy,,m&m.png,,,,,,,,,,,,,,,m&m,,,,,,,,,,,,,,,,,,,,,,,,,,,,,,,,,,,,,,,,,,,,,,,,,,,,,,,,,false,,,,,,,,,476267.62999995844,476267.48999999836,473868.172,473868.67999995593,473884.761,476284.033,,,,72
rating_sequence,flow.Sequence,2_4_2_1_14,2021-05-24T16:44:07.439Z,,,,,,,,,,,,,,,,,,,,,,,,,,,,,,,,,,,,,,,,,,,,,,,,,,,,,,,,,,,,,,,,,,,,,,,,,,,,,,,,,,,,,,,,,,,,,,,,,,,,,,,,,,,,,,,,,,,,2882.4679999983637,,completion,,,,unhealthy,,m&m.png,,,,,,,,,,,,,,,m&m,,,,,,,,,,,,,,,,,,,,,,,,,,,,,,,,,,,,,,,,,,,,,,,,,,,,,,,,,false,,,,,,,,,476267.73500000127,476267.48999999836,473368.386,473375.309999974,473385.022,476284.033,,,,
fixCross,canvas.Screen,2_4_2_1_15_0,2021-05-24T16:44:07.939Z,,,,,,,,,,,,,,,,,,,,,,,,,,,,,,,,,,,,,,,,,,,,,,,,,,,,,,,,,,,,,,,,,,,,,,,,,,,,,,,,,,,,,,,,,,,,,,,,,,,,,,,,,,,,,,,,,,,,499.97100000001956,,timeout,,,,healthy,,apple.png,,,,,,,,,,,,,,,apple,,,,,,,,,,,,,,,,,,,,,,,,,,,,,,,,,,,,,,,,,,,,,,,,,,,,,,,,,false,,,,,,,,,476767.509999976,476767.168,476250.682,476267.8049999522,476284.033,476784.004,,,,
Rating,html.Form,2_4_2_1_15_1,2021-05-24T16:44:10.133Z,,,,,,,,,,,,,,,,,,,,,,,,,,,,,,,,,,,,,,,,,,,,,,,,,,,,,,,,,,,,,,,,,,,,,,,,,,,,,,,,,,,,,,,,,,,,,,,,,,,,,,,,,,,,,,,,,,,,2177.2809999684687,,form submission,,,,healthy,,apple.png,,,,,,,,,,,,,,,apple,,,,,,,,,,,,,,,,,,,,,,,,,,,,,,,,,,,,,,,,,,,,,,,,,,,,,,,,,false,,,,,,,,,478961.4049999509,478961.2849999685,476767.168,476767.5749999471,476784.004,478983.075,,,,74
rating_sequence,flow.Sequence,2_4_2_1_15,2021-05-24T16:44:10.133Z,,,,,,,,,,,,,,,,,,,,,,,,,,,,,,,,,,,,,,,,,,,,,,,,,,,,,,,,,,,,,,,,,,,,,,,,,,,,,,,,,,,,,,,,,,,,,,,,,,,,,,,,,,,,,,,,,,,,2677.2519999684882,,completion,,,,healthy,,apple.png,,,,,,,,,,,,,,,apple,,,,,,,,,,,,,,,,,,,,,,,,,,,,,,,,,,,,,,,,,,,,,,,,,,,,,,,,,false,,,,,,,,,478961.4949999959,478961.2849999685,476250.682,476267.7799999947,476284.033,478983.075,,,,
fixCross,canvas.Screen,2_4_2_1_16_0,2021-05-24T16:44:10.638Z,,,,,,,,,,,,,,,,,,,,,,,,,,,,,,,,,,,,,,,,,,,,,,,,,,,,,,,,,,,,,,,,,,,,,,,,,,,,,,,,,,,,,,,,,,,,,,,,,,,,,,,,,,,,,,,,,,,,499.8159999999916,,timeout,,,,unhealthy,,praline.png,,,,,,,,,,,,,,,praline,,,,,,,,,,,,,,,,,,,,,,,,,,,,,,,,,,,,,,,,,,,,,,,,,,,,,,,,,false,,,,,,,,,479466.8549999478,479466.22,478966.42,478961.55499998713,478983.075,479482.891,,,,
Rating,html.Form,2_4_2_1_16_1,2021-05-24T16:44:14.724Z,,,,,,,,,,,,,,,,,,,,,,,,,,,,,,,,,,,,,,,,,,,,,,,,,,,,,,,,,,,,,,,,,,,,,,,,,,,,,,,,,,,,,,,,,,,,,,,,,,,,,,,,,,,,,,,,,,,,4069.293999978632,,form submission,,,,unhealthy,,praline.png,,,,,,,,,,,,,,,praline,,,,,,,,,,,,,,,,,,,,,,,,,,,,,,,,,,,,,,,,,,,,,,,,,,,,,,,,,false,,,,,,,,,483552.3099999991,483552.18499997864,479466.22,479466.9349999749,479482.891,483564.867,,,,86
rating_sequence,flow.Sequence,2_4_2_1_16,2021-05-24T16:44:14.724Z,,,,,,,,,,,,,,,,,,,,,,,,,,,,,,,,,,,,,,,,,,,,,,,,,,,,,,,,,,,,,,,,,,,,,,,,,,,,,,,,,,,,,,,,,,,,,,,,,,,,,,,,,,,,,,,,,,,,4569.109999978624,,completion,,,,unhealthy,,praline.png,,,,,,,,,,,,,,,praline,,,,,,,,,,,,,,,,,,,,,,,,,,,,,,,,,,,,,,,,,,,,,,,,,,,,,,,,,false,,,,,,,,,483552.4049999658,483552.18499997864,478966.42,478961.5399999893,478983.075,483564.867,,,,
fixCross,canvas.Screen,2_4_2_1_17_0,2021-05-24T16:44:15.220Z,,,,,,,,,,,,,,,,,,,,,,,,,,,,,,,,,,,,,,,,,,,,,,,,,,,,,,,,,,,,,,,,,,,,,,,,,,,,,,,,,,,,,,,,,,,,,,,,,,,,,,,,,,,,,,,,,,,,499.7939999999944,,timeout,,,,unhealthy,,liqorice.png,,,,,,,,,,,,,,,liquorice,,,,,,,,,,,,,,,,,,,,,,,,,,,,,,,,,,,,,,,,,,,,,,,,,,,,,,,,,false,,,,,,,,,484048.36999997497,484047.974,483548.239,483552.47499997495,483564.867,484064.661,,,,
Rating,html.Form,2_4_2_1_17_1,2021-05-24T16:44:18.714Z,,,,,,,,,,,,,,,,,,,,,,,,,,,,,,,,,,,,,,,,,,,,,,,,,,,,,,,,,,,,,,,,,,,,,,,,,,,,,,,,,,,,,,,,,,,,,,,,,,,,,,,,,,,,,,,,,,,,3477.8239999835496,,form submission,,,,unhealthy,,liqorice.png,,,,,,,,,,,,,,,liquorice,,,,,,,,,,,,,,,,,,,,,,,,,,,,,,,,,,,,,,,,,,,,,,,,,,,,,,,,,false,,,,,,,,,487542.6649999572,487542.4849999836,484047.974,484048.43500000425,484064.661,487546.823,,,,0
rating_sequence,flow.Sequence,2_4_2_1_17,2021-05-24T16:44:18.715Z,,,,,,,,,,,,,,,,,,,,,,,,,,,,,,,,,,,,,,,,,,,,,,,,,,,,,,,,,,,,,,,,,,,,,,,,,,,,,,,,,,,,,,,,,,,,,,,,,,,,,,,,,,,,,,,,,,,,3977.617999983544,,completion,,,,unhealthy,,liqorice.png,,,,,,,,,,,,,,,liquorice,,,,,,,,,,,,,,,,,,,,,,,,,,,,,,,,,,,,,,,,,,,,,,,,,,,,,,,,,false,,,,,,,,,487542.844999989,487542.4849999836,483548.239,483552.4549999973,483564.867,487546.823,,,,
rating_loop,flow.Loop,2_4_2_1,2021-05-24T16:44:18.715Z,,,,,,,,,,,,,,,,,,,,,,,,,,,,,,,,,,,,,,,,,,,,,,,,,,,,,,,,,,,,,,,,,,,,,,,,,,,,,,,,,,,,,,,,,,,,,,,,,,,,,,,,,,,,,,,,,,,,106755.24199998355,,completion,,,,,,,,,,,,,,,,,,,,,,,,,,,,,,,,,,,,,,,,,,,,,,,,,,,,,,,,,,,,,,,,,,,,,,,,,,,,,,false,,,,,,,,,487543.0150000029,487542.4849999836,380750.06,380767.4049999914,380787.243,487546.823,,,,
data_transmission,html.Screen,2_4_2_2,2021-05-24T16:44:18.720Z,,,,,,,,,,,,,,,,,,,,,,,,,,,,,,,,,,,,,,,,,,,,,,,,,,,,,,,,,,,,,,,,,,,,,,,,,,,,,,,,,,,,,,,,,,,,,,,,,,,,,,,,,,,,,,,,,,,,NaN,,no compatible backend,,,,,,,,,,,,,,,Transferring data,,,,,,,,,,,,,,,,,,,,,,,,,,,,,,,,,,,,,,,,,,,,,,,,,,,,,,,,,,,,,,,false,,,Please wait a second…,,,,,,487548.20499999914,487548.0749999988,,487543.1099999696,,487546.823,,,,
instructions,html.Screen,2_4_2_3,2021-05-24T16:46:22.086Z,,,,,,,,,,,,,,,,,,,,,,,,,,,,,,,,,,,,,,,,,,,,,,,,,,,,,,,,,,,,,,,,,,,,,,,,,,,,,,,,,,,,,,,,,,,,,,,,,,,,,,,,,,,,,,,,,,,,123367.66699999559,,done,,,,,,,,,,,,,,,,,,,,,,,,,,,,,,,,,,,,,,,,,,,,,,,,,,,,,,,,,,,,,,,,,,,,,,,,,,,,,,false,,,,,,,,,610914.6499999915,610914.4899999956,487530.183,487548.2899999479,487546.823,610921.34,,,,
Q1,html.Screen,2_4_2_4_0,2021-05-24T16:46:29.320Z,,,,,,,,,,,,,,,,,,,,,,,,,,,,,,,,,,,,,,,,,,,,,,,,,,,,,,,,,,,,,,,,,,,,,,,,,,,,,,,,,,,,,,,,,,,,,,,,,,,,,,,,,,,,,,,,false,input_Q1==3,,,7224.499999953783,,response,,,,,,,,,,,,,,,,,,,,,,,,,Q1_i2,Q1_i1,Q1_i4,Q1_i3,2,1,4,3,false,false,false,correct,,,,,,,,,,,,,,,,,,,,,,,,,,,,,,,,,,,,,,,,,click #Q1_i3,false,,,,,,,,,618147.8149999748,618145.8399999538,610905.685,610914.7549999761,610921.34,618152.177,,,,
Q1_correct,html.Screen,2_4_2_4_1,2021-05-24T16:46:30.609Z,,,,,,,,,,,,,,,,,,,,,,,,,,,,,,,,,,,,,,,,,,,,,,,,,,,,,,,,,,,,,,,,,,,,,,,,,,,,,,,,,,,,,,,,,,,,,,,,,,,,,,,,,,,,,,,,,,,,1285.0179999476532,,response,,,,,,,,,,,,,,,,,,,,,,,,,,,,,,,,,,,,,,,,,,,,,,,,,,,,,,,,,,,,,,,,,,,,,,,,,,,,,keypress,false,,,,,,,,,619437.5349999755,619437.1949999477,618135.615,618147.9199999594,618152.177,619451.786,,,,
Q2,html.Screen,2_4_2_4_2,2021-05-24T16:46:35.301Z,,,,,,,,,,,,,,,,,,,,,,,,,,,,,,,,,,,,,,,,,,,,,,,,,,,,,,,,,,,,,,,,,,,,,,,,,,,,,,,,,,,,,,,,,,,,,,,,,,,,,,,,,,,,,,,,,,,,4676.639000002644,,response,,,,,,,,,,,,,,,,,,,,,,,,,,,,,,,,,,,,,Q2_i3,Q2_i2,Q2_i1,Same amount,Option 2,Option 1,same,opt2,correct,,,,,,,,,,,,,,,,,,,,,,,,,,,,,,,,click #Q2_i1,false,,,,,,,,,624128.9799999795,624128.4250000026,619435.623,619437.6049999846,619451.786,624133.524,,,,
Q2_correct,html.Screen,2_4_2_4_3,2021-05-24T16:46:36.492Z,,,,,,,,,,,,,,,,,,,,,,,,,,,,,,,,,,,,,,,,,,,,,,,,,,,,,,,,,,,,,,,,,,,,,,,,,,,,,,,,,,,,,,,,,,,,,,,,,,,,,,,,,,,,,,,,,,,,1186.255999961635,,response,,,,,,,,,,,,,,,,,,,,,,,,,,,,,,,,,,,,,,,,,,,,,,,,,,,,,,,,,,,,,,,,,,,,,,,,,,,,,keypress,false,,,,,,,,,625320.3050000011,625319.7799999616,624116.878,624129.0849999641,624133.524,625333.072,,,,
Q4,html.Screen,2_4_2_4_4,2021-05-24T16:46:48.326Z,,,,,,,,,,,,,,,,,,,,,,,,,,,,,,,,,,,,,,,,,,,,,,,,,,,,,,,,,,,,,,,,,,,,,,,,,,,,,,,,,,,,,,,,,,,,,,,,,,,,,,,,,,,,,,,,,,,,11820.552999977139,,response,,,,,,,,,,,,,,,,,,,,,,,,,,,,,,,,,,,,,,,,,,,,,,Q4_i3,Q4_i1,Q4_i4,Q4_i2,Press the arrow key that corresponds with the snack option with more food items,Press the arrow key that corresponds with the snack option I prefer,Press the space key,Indicate the number of food items in each snack option,morefood,correct,pressspace,indicate,,,,,,,,,,,,,,,,,,,,click #Q4_i1,false,,,,,,,,,637154.2949999566,637153.6249999772,625316.513,625320.4200000037,625333.072,637162.404,,,,
Q4_correct,html.Screen,2_4_2_4_5,2021-05-24T16:46:49.746Z,,,,,,,,,,,,,,,,,,,,,,,,,,,,,,,,,,,,,,,,,,,,,,,,,,,,,,,,,,,,,,,,,,,,,,,,,,,,,,,,,,,,,,,,,,,,,,,,,,,,,,,,,,,,,,,,,,,,1411.655999955372,,response,,,,,,,,,,,,,,,,,,,,,,,,,,,,,,,,,,,,,,,,,,,,,,,,,,,,,,,,,,,,,,,,,,,,,,,,,,,,,keypress,false,,,,,,,,,638574.48999997,638574.0599999554,637145.73,637154.4749999885,637162.404,638578.58,,,,
Q5,html.Screen,2_4_2_4_6,2021-05-24T16:46:53.905Z,,,,,,,,,,,,,,,,,,,,,,,,,,,,,,,,,,,,,,,,,,,,,,,,,,,,,,,,,,,,,,,,,,,,,,,,,,,,,,,,,,,,,,,,,,,,,,,,,,,,,,,,,,,,,,,,,,,,4154.379999993951,,response,,,,,,,,,,,,,,,,,,,,,,,,,,,,,,,,,,,,,,,,,,,,,,,,,,,,,,,,,,Q5_i1,Q5_i4,Q5_i3,Q5_i2,Snack Option 2 has been chosen,Snack Option 1 has been chosen,There are more slices of kiwi in snack Option 1,There are more pieces of chocolate in snack Option 2,correct,chose1,morekiwi1,morechoc2,,,,,,,,click #Q5_i1,false,,,,,,,,,642733.5800000001,642732.9599999939,638562.041,638574.5599999791,638578.58,642743.87,,,,
Q5_correct,html.Screen,2_4_2_4_7,2021-05-24T16:46:55.035Z,,,,,,,,,,,,,,,,,,,,,,,,,,,,,,,,,,,,,,,,,,,,,,,,,,,,,,,,,,,,,,,,,,,,,,,,,,,,,,,,,,,,,,,,,,,,,,,,,,,,,,,,,,,,,,,,,,,,1119.0949999784352,,response,,,,,,,,,,,,,,,,,,,,,,,,,,,,,,,,,,,,,,,,,,,,,,,,,,,,,,,,,,,,,,,,,,,,,,,,,,,,,keypress,false,,,,,,,,,643863.3549999795,643862.9649999784,642727.261,642733.6749999668,642743.87,643876.778,,,,
practice_sequence,flow.Sequence,2_4_2_4,2021-05-24T16:46:55.035Z,,,,,,,,,,,,,,,,,,,,,,,,,,,,,,,,,,,,,,,,,,,,,,,,,,,,,,,,,,,,,,,,,,,,,,,,,,,,,,,,,,,,,,,,,,,,,,,,,,,,,,,,,,,,,,,,,,,,32941.62499997846,,completion,,,,,,,,,,,,,,,,,,,,,,,,,,,,,,,,,,,,,,,,,,,,,,,,,,,,,,,,,,,,,,,,,,,,,,,,,,,,,,false,,,,,,,,,643863.469999982,643862.9649999784,610905.685,610914.7299999604,610921.34,643876.778,,,,
final_instru,html.Screen,2_4_2_5,2021-05-24T16:47:08.730Z,,,,,,,,,,,,,,,,,,,,,,,,,,,,,,,,,,,,,,,,,,,,,,,,,,,,,,,,,,,,,,,,,,,,,,,,,,,,,,,,,,,,,,,,,,,,,,,,,,,,,,,,,,,,,,,,,,,,13681.226999998908,,done,,,,,,,,,,,,,,,,,,,,,,,,,,,,,,,,,,,,,,,,,,,,,,,,,,,,,,,,,,,,,,,,,,,,,,,,,,,,,,false,,,,,,,,,657558.1849999726,657558.004999999,643860.193,643863.5149999755,643876.778,657572.12,,,,
blank_screen,canvas.Screen,2_4_2_6_0,2021-05-24T16:47:10.727Z,,,,,,,,,,,,,,,,,,,,,,,,,,,,,,,,,,,,,,,,,,,,,,,,,,,,,,,,,,,,,,,,,,,,,,,,,,,,,,,,,,,,,,,,,,,,,,,,,,,,,,,,,,,,,,,,,,,,1999.2539999999572,,timeout,,,,,,,,,,,,,,,,,,,,,,,,,,,,,,,,,,,,,,,,,,,,,,,,,,,,,,,,,,,,,,,,,,,,,,,,,,,,,,false,,,,,,,,,659555.6599999545,659554.9,657557.674,657558.3449999685,657572.12,659571.374,,,,
fixCross,canvas.Screen,2_4_2_6_1_0_0_0_0_0_0,2021-05-24T16:47:11.028Z,,,blank.png,"[""praline.png""]",blank.png,blank.png,blank.png,blank.png,blank.png,blank.png,blank.png,blank.png,blank.png,blank.png,blank.png,,,,,,,,,,,,,,,,,,,,,,,,,,,,,"[""praline.png""]","[""apple.png""]",PB07.png,,,,,,,,,,,0,6,"[""apple.png""]","[""apple.png""]","[""apple.png""]","[""apple.png""]","[""apple.png""]","[""apple.png""]",blank.png,PB18.png,PB18.png,"[""apple.png""]",blank.png,blank.png,blank.png,blank.png,blank.png,"[""apple.png""]","[""apple.png""]","[""apple.png""]","[""apple.png""]","[""apple.png""]","[""apple.png""]",1,"[""praline.png""]",blank.png,blank.png,blank.png,1,"[""apple.png""]",blank.png,blank.png,blank.png,blank.png,blank.png,PB07.png,,,,,,,,,,,1,,,,,,,,,,,,,499.9000000000233,,timeout,,,,,,,,,,,,,3,,,,,,,,,,,,,,,,,,,,,,,,,,,,,,,,,,,,,,,,,,,,,,,,,,,,,,,,,"[""apple.png""]","[""praline.png""]",,,,1,,,false,,1,,,,,,,659856.4299999853,659854.675,659554.9,659581.3999999664,659571.374,660071.274,1,,,
timeout,canvas.Screen,2_4_2_6_1_0_0_0_0_0_1,2021-05-24T16:47:11.727Z,,,blank.png,"[""praline.png""]",blank.png,blank.png,blank.png,blank.png,blank.png,blank.png,blank.png,blank.png,blank.png,blank.png,blank.png,,,,,,,,,,,,,,,,,,,,,,,,,,,,,"[""praline.png""]","[""apple.png""]",PB07.png,,,,,,,,,,,0,6,"[""apple.png""]","[""apple.png""]","[""apple.png""]","[""apple.png""]","[""apple.png""]","[""apple.png""]",blank.png,PB18.png,PB18.png,"[""apple.png""]",blank.png,blank.png,blank.png,blank.png,blank.png,"[""apple.png""]","[""apple.png""]","[""apple.png""]","[""apple.png""]","[""apple.png""]","[""apple.png""]",1,"[""praline.png""]",blank.png,blank.png,blank.png,1,"[""apple.png""]",blank.png,blank.png,blank.png,blank.png,blank.png,PB07.png,,,,,,,,,,,1,,,,,,,,,,,,,783.0679999999702,,timeout,,,,,,,,,,,,,3,,,,,,,,,,,,,,,,,,,,,,,,,,,,,,,,,,,,,,,,,,,,,,,,,,,,,,,,,"[""apple.png""]","[""praline.png""]",,,,1,,,false,,1,,,,,,,660555.7149999659,660554.444,659854.675,660149.1299999761,660071.274,660854.342,,,,
choice,canvas.Screen,2_4_2_6_1_0_0_0_0_0_2,2021-05-24T16:47:12.846Z,,,blank.png,"[""praline.png""]",blank.png,blank.png,blank.png,blank.png,blank.png,blank.png,blank.png,blank.png,blank.png,blank.png,blank.png,,,,,,,,,,,,,,,,,,,,,,,,,,,,,"[""praline.png""]","[""apple.png""]",PB07.png,,,,,,,,,,,0,6,"[""apple.png""]","[""apple.png""]","[""apple.png""]","[""apple.png""]","[""apple.png""]","[""apple.png""]",blank.png,PB18.png,PB18.png,"[""apple.png""]",blank.png,blank.png,blank.png,blank.png,blank.png,"[""apple.png""]","[""apple.png""]","[""apple.png""]","[""apple.png""]","[""apple.png""]","[""apple.png""]",1,"[""praline.png""]",blank.png,blank.png,blank.png,1,"[""apple.png""]",blank.png,blank.png,blank.png,blank.png,blank.png,PB07.png,,,,,,,,,,,1,,,,,,,,,,,,,819.5329999786336,,response,,,,,,,,,,,,,3,,,,,,,,,,,,,,,,,,,,,,,,,,,,,,,,,,,,,,,,,,,,,,,,,,,,,,,,,"[""apple.png""]","[""praline.png""]",,,,1,right,keydown(ArrowRight),false,,1,,,,,,,661674.4349999935,661673.8749999786,660554.444,660857.9099999624,660854.342,661953.943,,1,,
square,canvas.Screen,2_4_2_6_1_0_0_0_0_0_3,2021-05-24T16:47:14.109Z,,,blank.png,"[""praline.png""]",blank.png,blank.png,blank.png,blank.png,blank.png,blank.png,blank.png,blank.png,blank.png,blank.png,blank.png,,,,,,,,,,,,,,,,,,,,,,,,,,,,,"[""praline.png""]","[""apple.png""]",PB07.png,,,,,,,,,,,0,6,"[""apple.png""]","[""apple.png""]","[""apple.png""]","[""apple.png""]","[""apple.png""]","[""apple.png""]",blank.png,PB18.png,PB18.png,"[""apple.png""]",blank.png,blank.png,blank.png,blank.png,blank.png,"[""apple.png""]","[""apple.png""]","[""apple.png""]","[""apple.png""]","[""apple.png""]","[""apple.png""]",1,"[""praline.png""]",blank.png,blank.png,blank.png,1,"[""apple.png""]",blank.png,blank.png,blank.png,blank.png,blank.png,PB07.png,,,,,,,,,,,1,,,#808080,#33ff3f,,,,,,,,,999.6560000000754,,timeout,,,,,,,,,,,,,3,,,,,,,,,,,,,,,,,,,,,,,,,,,,,,,,,,,,,,,,,,,,,,,,,,,,,,,,,"[""apple.png""]","[""praline.png""]",,,,1,,,false,,1,,,,,white,black,662937.4299999909,662936.928,661937.652,661940.409999981,661953.943,662953.599,,,,
ITI_late,canvas.Screen,2_4_2_6_1_0_0_0_0_0_4,2021-05-24T16:47:15.109Z,,,blank.png,"[""praline.png""]",blank.png,blank.png,blank.png,blank.png,blank.png,blank.png,blank.png,blank.png,blank.png,blank.png,blank.png,,,,,,,,,,,,,,,,,,,,,,,,,,,,,"[""praline.png""]","[""apple.png""]",PB07.png,,,,,,,,,,,0,6,"[""apple.png""]","[""apple.png""]","[""apple.png""]","[""apple.png""]","[""apple.png""]","[""apple.png""]",blank.png,PB18.png,PB18.png,"[""apple.png""]",blank.png,blank.png,blank.png,blank.png,blank.png,"[""apple.png""]","[""apple.png""]","[""apple.png""]","[""apple.png""]","[""apple.png""]","[""apple.png""]",1,"[""praline.png""]",blank.png,blank.png,blank.png,1,"[""apple.png""]",blank.png,blank.png,blank.png,blank.png,blank.png,PB07.png,,,,,,,,,,,1,,,,,,,,,,,,,999.6849999999395,,timeout,,,,,,,,,,,,white,3,,,,,,,,,,,,,,,,,,,,,,,,,,,,,,,,,,,,,,,,,,,,,,,,,,,,,,,,,"[""apple.png""]","[""praline.png""]",,,,1,,,false,,1,,,,,,,663937.1799999499,663936.601,662936.928,662938.4250000003,662953.599,663953.284,,,,
choice_sequence,flow.Sequence,2_4_2_6_1_0_0_0_0_0,2021-05-24T16:47:15.109Z,,,blank.png,"[""praline.png""]",blank.png,blank.png,blank.png,blank.png,blank.png,blank.png,blank.png,blank.png,blank.png,blank.png,blank.png,,,,,,,,,,,,,,,,,,,,,,,,,,,,,"[""praline.png""]","[""apple.png""]",PB07.png,,,,,,,,,,,0,6,"[""apple.png""]","[""apple.png""]","[""apple.png""]","[""apple.png""]","[""apple.png""]","[""apple.png""]",blank.png,PB18.png,PB18.png,"[""apple.png""]",blank.png,blank.png,blank.png,blank.png,blank.png,"[""apple.png""]","[""apple.png""]","[""apple.png""]","[""apple.png""]","[""apple.png""]","[""apple.png""]",1,"[""praline.png""]",blank.png,blank.png,blank.png,1,"[""apple.png""]",blank.png,blank.png,blank.png,blank.png,blank.png,PB07.png,,,,,,,,,,,1,,,,,,,,,,,,,4365.227000000072,,completion,,,,,,,,,,,,,3,,,,,,,,,,,,,,,,,,,,,,,,,,,,,,,,,,,,,,,,,,,,,,,,,,,,,,,,,"[""apple.png""]","[""praline.png""]",,,,1,,,false,,1,,,,,,,663937.6749999938,663936.601,659554.9,659580.6499999599,659571.374,663953.284,,,,
fixCross,canvas.Screen,2_4_2_6_1_0_0_0_0_1_0,2021-05-24T16:47:15.559Z,,,blank.png,blank.png,blank.png,blank.png,blank.png,blank.png,blank.png,"[""praline.png""]",blank.png,blank.png,blank.png,blank.png,blank.png,,,,,,,,,,,,,,,,,,,,,,,,,,,,,"[""praline.png""]","[""apple.png""]",PB18.png,,,,,,,,,,,0,6,"[""apple.png""]","[""apple.png""]","[""apple.png""]","[""apple.png""]","[""apple.png""]","[""apple.png""]",blank.png,PB18.png,PB16.png,"[""apple.png""]","[""apple.png""]","[""apple.png""]","[""apple.png""]","[""apple.png""]","[""apple.png""]","[""apple.png""]","[""apple.png""]","[""apple.png""]","[""apple.png""]","[""apple.png""]",blank.png,1,"[""praline.png""]",blank.png,blank.png,blank.png,5,"[""apple.png""]","[""apple.png""]","[""apple.png""]","[""apple.png""]","[""apple.png""]",blank.png,PB16.png,,,,,,,,,,,1,,,,,,,,,,,,,766.359999999986,,timeout,,,,,,,,,,,,,4,,,,,,,,,,,,,,,,,,,,,,,,,,,,,,,,,,,,,,,,,,,,,,,,,,,,,,,,,"[""apple.png""]","[""praline.png""]",,,,1,,,false,,1,,,,,,,664387.315,664386.449,663936.601,663940.7649999484,663953.284,664719.644,2,,,
timeout,canvas.Screen,2_4_2_6_1_0_0_0_0_1_1,2021-05-24T16:47:16.376Z,,,blank.png,blank.png,blank.png,blank.png,blank.png,blank.png,blank.png,"[""praline.png""]",blank.png,blank.png,blank.png,blank.png,blank.png,,,,,,,,,,,,,,,,,,,,,,,,,,,,,"[""praline.png""]","[""apple.png""]",PB18.png,,,,,,,,,,,0,6,"[""apple.png""]","[""apple.png""]","[""apple.png""]","[""apple.png""]","[""apple.png""]","[""apple.png""]",blank.png,PB18.png,PB16.png,"[""apple.png""]","[""apple.png""]","[""apple.png""]","[""apple.png""]","[""apple.png""]","[""apple.png""]","[""apple.png""]","[""apple.png""]","[""apple.png""]","[""apple.png""]","[""apple.png""]",blank.png,1,"[""praline.png""]",blank.png,blank.png,blank.png,5,"[""apple.png""]","[""apple.png""]","[""apple.png""]","[""apple.png""]","[""apple.png""]",blank.png,PB16.png,,,,,,,,,,,1,,,,,,,,,,,,,833.0690000000177,,timeout,,,,,,,,,,,,,4,,,,,,,,,,,,,,,,,,,,,,,,,,,,,,,,,,,,,,,,,,,,,,,,,,,,,,,,,"[""apple.png""]","[""praline.png""]",,,,1,,,false,,1,,,,,,,665203.8199999952,665203.055,664386.449,664722.6099999971,664719.644,665552.713,,,,
choice,canvas.Screen,2_4_2_6_1_0_0_0_0_1_2,2021-05-24T16:47:17.013Z,,,blank.png,blank.png,blank.png,blank.png,blank.png,blank.png,blank.png,"[""praline.png""]",blank.png,blank.png,blank.png,blank.png,blank.png,,,,,,,,,,,,,,,,,,,,,,,,,,,,,"[""praline.png""]","[""apple.png""]",PB18.png,,,,,,,,,,,0,6,"[""apple.png""]","[""apple.png""]","[""apple.png""]","[""apple.png""]","[""apple.png""]","[""apple.png""]",blank.png,PB18.png,PB16.png,"[""apple.png""]","[""apple.png""]","[""apple.png""]","[""apple.png""]","[""apple.png""]","[""apple.png""]","[""apple.png""]","[""apple.png""]","[""apple.png""]","[""apple.png""]","[""apple.png""]",blank.png,1,"[""praline.png""]",blank.png,blank.png,blank.png,5,"[""apple.png""]","[""apple.png""]","[""apple.png""]","[""apple.png""]","[""apple.png""]",blank.png,PB16.png,,,,,,,,,,,1,,,,,,,,,,,,,287.8219999666326,,response,,,,,,,,,,,,,4,,,,,,,,,,,,,,,,,,,,,,,,,,,,,,,,,,,,,,,,,,,,,,,,,,,,,,,,,"[""apple.png""]","[""praline.png""]",,,,1,right,keydown(ArrowRight),false,,1,,,,,,,665841.4099999936,665840.5349999666,665203.055,665537.089999998,665552.713,666169.17,,2,,
square,canvas.Screen,2_4_2_6_1_0_0_0_0_1_3,2021-05-24T16:47:18.325Z,,,blank.png,blank.png,blank.png,blank.png,blank.png,blank.png,blank.png,"[""praline.png""]",blank.png,blank.png,blank.png,blank.png,blank.png,,,,,,,,,,,,,,,,,,,,,,,,,,,,,"[""praline.png""]","[""apple.png""]",PB18.png,,,,,,,,,,,0,6,"[""apple.png""]","[""apple.png""]","[""apple.png""]","[""apple.png""]","[""apple.png""]","[""apple.png""]",blank.png,PB18.png,PB16.png,"[""apple.png""]","[""apple.png""]","[""apple.png""]","[""apple.png""]","[""apple.png""]","[""apple.png""]","[""apple.png""]","[""apple.png""]","[""apple.png""]","[""apple.png""]","[""apple.png""]",blank.png,1,"[""praline.png""]",blank.png,blank.png,blank.png,5,"[""apple.png""]","[""apple.png""]","[""apple.png""]","[""apple.png""]","[""apple.png""]",blank.png,PB16.png,,,,,,,,,,,1,,,#808080,#33ff3f,,,,,,,,,999.6329999999143,,timeout,,,,,,,,,,,,,4,,,,,,,,,,,,,,,,,,,,,,,,,,,,,,,,,,,,,,,,,,,,,,,,,,,,,,,,,"[""apple.png""]","[""praline.png""]",,,,1,,,false,,1,,,,,white,black,667153.0949999578,667152.2,666152.703,666165.2549999999,666169.17,667168.803,,,,
ITI_late,canvas.Screen,2_4_2_6_1_0_0_0_0_1_4,2021-05-24T16:47:19.325Z,,,blank.png,blank.png,blank.png,blank.png,blank.png,blank.png,blank.png,"[""praline.png""]",blank.png,blank.png,blank.png,blank.png,blank.png,,,,,,,,,,,,,,,,,,,,,,,,,,,,,"[""praline.png""]","[""apple.png""]",PB18.png,,,,,,,,,,,0,6,"[""apple.png""]","[""apple.png""]","[""apple.png""]","[""apple.png""]","[""apple.png""]","[""apple.png""]",blank.png,PB18.png,PB16.png,"[""apple.png""]","[""apple.png""]","[""apple.png""]","[""apple.png""]","[""apple.png""]","[""apple.png""]","[""apple.png""]","[""apple.png""]","[""apple.png""]","[""apple.png""]","[""apple.png""]",blank.png,1,"[""praline.png""]",blank.png,blank.png,blank.png,5,"[""apple.png""]","[""apple.png""]","[""apple.png""]","[""apple.png""]","[""apple.png""]",blank.png,PB16.png,,,,,,,,,,,1,,,,,,,,,,,,,999.6410000000615,,timeout,,,,,,,,,,,,white,4,,,,,,,,,,,,,,,,,,,,,,,,,,,,,,,,,,,,,,,,,,,,,,,,,,,,,,,,,"[""apple.png""]","[""praline.png""]",,,,1,,,false,,1,,,,,,,668152.7549999882,668151.854,667152.2,667154.589999991,667168.803,668168.444,,,,
choice_sequence,flow.Sequence,2_4_2_6_1_0_0_0_0_1,2021-05-24T16:47:19.325Z,,,blank.png,blank.png,blank.png,blank.png,blank.png,blank.png,blank.png,"[""praline.png""]",blank.png,blank.png,blank.png,blank.png,blank.png,,,,,,,,,,,,,,,,,,,,,,,,,,,,,"[""praline.png""]","[""apple.png""]",PB18.png,,,,,,,,,,,0,6,"[""apple.png""]","[""apple.png""]","[""apple.png""]","[""apple.png""]","[""apple.png""]","[""apple.png""]",blank.png,PB18.png,PB16.png,"[""apple.png""]","[""apple.png""]","[""apple.png""]","[""apple.png""]","[""apple.png""]","[""apple.png""]","[""apple.png""]","[""apple.png""]","[""apple.png""]","[""apple.png""]","[""apple.png""]",blank.png,1,"[""praline.png""]",blank.png,blank.png,blank.png,5,"[""apple.png""]","[""apple.png""]","[""apple.png""]","[""apple.png""]","[""apple.png""]",blank.png,PB16.png,,,,,,,,,,,1,,,,,,,,,,,,,4198.570000000065,,completion,,,,,,,,,,,,,4,,,,,,,,,,,,,,,,,,,,,,,,,,,,,,,,,,,,,,,,,,,,,,,,,,,,,,,,,"[""apple.png""]","[""praline.png""]",,,,1,,,false,,1,,,,,,,668153.5099999746,668151.854,663936.601,663940.2949999785,663953.284,668168.444,,,,
fixCross,canvas.Screen,2_4_2_6_1_0_0_0_0_2_0,2021-05-24T16:47:19.574Z,,,blank.png,"[""praline.png""]",blank.png,blank.png,blank.png,blank.png,blank.png,blank.png,blank.png,blank.png,blank.png,blank.png,blank.png,,,,,,,,,,,,,,,,,,,,,,,,,,,,,"[""praline.png""]","[""apple.png""]",PB15.png,,,,,,,,,,,0,6,"[""apple.png""]","[""apple.png""]","[""apple.png""]","[""apple.png""]","[""apple.png""]","[""apple.png""]",blank.png,PB18.png,PB18.png,"[""apple.png""]","[""apple.png""]","[""apple.png""]","[""apple.png""]",blank.png,blank.png,"[""apple.png""]","[""apple.png""]","[""apple.png""]","[""apple.png""]","[""apple.png""]","[""apple.png""]",1,"[""praline.png""]",blank.png,blank.png,blank.png,4,"[""apple.png""]","[""apple.png""]","[""apple.png""]","[""apple.png""]",blank.png,blank.png,PB15.png,,,,,,,,,,,1,,,,,,,,,,,,,549.8219999999274,,timeout,,,,,,,,,,,,,3,,,,,,,,,,,,,,,,,,,,,,,,,,,,,,,,,,,,,,,,,,,,,,,,,,,,,,,,,"[""apple.png""]","[""praline.png""]",,,,1,,,false,,1,,,,,,,668402.4649999919,668401.759,668151.854,668156.4449999714,668168.444,668718.266,3,,,
timeout,canvas.Screen,2_4_2_6_1_0_0_0_0_2_1,2021-05-24T16:47:20.376Z,,,blank.png,"[""praline.png""]",blank.png,blank.png,blank.png,blank.png,blank.png,blank.png,blank.png,blank.png,blank.png,blank.png,blank.png,,,,,,,,,,,,,,,,,,,,,,,,,,,,,"[""praline.png""]","[""apple.png""]",PB15.png,,,,,,,,,,,0,6,"[""apple.png""]","[""apple.png""]","[""apple.png""]","[""apple.png""]","[""apple.png""]","[""apple.png""]",blank.png,PB18.png,PB18.png,"[""apple.png""]","[""apple.png""]","[""apple.png""]","[""apple.png""]",blank.png,blank.png,"[""apple.png""]","[""apple.png""]","[""apple.png""]","[""apple.png""]","[""apple.png""]","[""apple.png""]",1,"[""praline.png""]",blank.png,blank.png,blank.png,4,"[""apple.png""]","[""apple.png""]","[""apple.png""]","[""apple.png""]",blank.png,blank.png,PB15.png,,,,,,,,,,,1,,,,,,,,,,,,,816.4320000000298,,timeout,,,,,,,,,,,,,3,,,,,,,,,,,,,,,,,,,,,,,,,,,,,,,,,,,,,,,,,,,,,,,,,,,,,,,,,"[""apple.png""]","[""praline.png""]",,,,1,,,false,,1,,,,,,,669203.6349999835,669201.447,668401.759,668721.2199999485,668718.266,669534.698,,,,
choice,canvas.Screen,2_4_2_6_1_0_0_0_0_2_2,2021-05-24T16:47:21.045Z,,,blank.png,"[""praline.png""]",blank.png,blank.png,blank.png,blank.png,blank.png,blank.png,blank.png,blank.png,blank.png,blank.png,blank.png,,,,,,,,,,,,,,,,,,,,,,,,,,,,,"[""praline.png""]","[""apple.png""]",PB15.png,,,,,,,,,,,0,6,"[""apple.png""]","[""apple.png""]","[""apple.png""]","[""apple.png""]","[""apple.png""]","[""apple.png""]",blank.png,PB18.png,PB18.png,"[""apple.png""]","[""apple.png""]","[""apple.png""]","[""apple.png""]",blank.png,blank.png,"[""apple.png""]","[""apple.png""]","[""apple.png""]","[""apple.png""]","[""apple.png""]","[""apple.png""]",1,"[""praline.png""]",blank.png,blank.png,blank.png,4,"[""apple.png""]","[""apple.png""]","[""apple.png""]","[""apple.png""]",blank.png,blank.png,PB15.png,,,,,,,,,,,1,,,,,,,,,,,,,337.8419999530306,,response,,,,,,,,,,,,,3,,,,,,,,,,,,,,,,,,,,,,,,,,,,,,,,,,,,,,,,,,,,,,,,,,,,,,,,,"[""apple.png""]","[""praline.png""]",,,,1,left,keydown(ArrowLeft),false,,1,,,,,,,669873.3299999731,669872.539999953,669201.447,669514.6949999616,669534.698,670184.446,,3,,
square,canvas.Screen,2_4_2_6_1_0_0_0_0_2_3,2021-05-24T16:47:22.340Z,,,blank.png,"[""praline.png""]",blank.png,blank.png,blank.png,blank.png,blank.png,blank.png,blank.png,blank.png,blank.png,blank.png,blank.png,,,,,,,,,,,,,,,,,,,,,,,,,,,,,"[""praline.png""]","[""apple.png""]",PB15.png,,,,,,,,,,,0,6,"[""apple.png""]","[""apple.png""]","[""apple.png""]","[""apple.png""]","[""apple.png""]","[""apple.png""]",blank.png,PB18.png,PB18.png,"[""apple.png""]","[""apple.png""]","[""apple.png""]","[""apple.png""]",blank.png,blank.png,"[""apple.png""]","[""apple.png""]","[""apple.png""]","[""apple.png""]","[""apple.png""]","[""apple.png""]",1,"[""praline.png""]",blank.png,blank.png,blank.png,4,"[""apple.png""]","[""apple.png""]","[""apple.png""]","[""apple.png""]",blank.png,blank.png,PB15.png,,,,,,,,,,,1,,,#33ff3f,#808080,,,,,,,,,999.6350000000093,,timeout,,,,,,,,,,,,,3,,,,,,,,,,,,,,,,,,,,,,,,,,,,,,,,,,,,,,,,,,,,,,,,,,,,,,,,,"[""apple.png""]","[""praline.png""]",,,,1,,,false,,1,,,,,black,white,671167.8850000026,671167.439,670168.018,670180.5749999476,670184.446,671184.081,,,,
ITI_late,canvas.Screen,2_4_2_6_1_0_0_0_0_2_4,2021-05-24T16:47:22.840Z,,,blank.png,"[""praline.png""]",blank.png,blank.png,blank.png,blank.png,blank.png,blank.png,blank.png,blank.png,blank.png,blank.png,blank.png,,,,,,,,,,,,,,,,,,,,,,,,,,,,,"[""praline.png""]","[""apple.png""]",PB15.png,,,,,,,,,,,0,6,"[""apple.png""]","[""apple.png""]","[""apple.png""]","[""apple.png""]","[""apple.png""]","[""apple.png""]",blank.png,PB18.png,PB18.png,"[""apple.png""]","[""apple.png""]","[""apple.png""]","[""apple.png""]",blank.png,blank.png,"[""apple.png""]","[""apple.png""]","[""apple.png""]","[""apple.png""]","[""apple.png""]","[""apple.png""]",1,"[""praline.png""]",blank.png,blank.png,blank.png,4,"[""apple.png""]","[""apple.png""]","[""apple.png""]","[""apple.png""]",blank.png,blank.png,PB15.png,,,,,,,,,,,1,,,,,,,,,,,,,499.7950000000419,,timeout,,,,,,,,,,,,white,3,,,,,,,,,,,,,,,,,,,,,,,,,,,,,,,,,,,,,,,,,,,,,,,,,,,,,,,,,"[""apple.png""]","[""praline.png""]",,,,1,,,false,,1,,,,,,,671667.844999989,671667.293,671167.439,671169.0649999655,671184.081,671683.876,,,,
choice_sequence,flow.Sequence,2_4_2_6_1_0_0_0_0_2,2021-05-24T16:47:22.840Z,,,blank.png,"[""praline.png""]",blank.png,blank.png,blank.png,blank.png,blank.png,blank.png,blank.png,blank.png,blank.png,blank.png,blank.png,,,,,,,,,,,,,,,,,,,,,,,,,,,,,"[""praline.png""]","[""apple.png""]",PB15.png,,,,,,,,,,,0,6,"[""apple.png""]","[""apple.png""]","[""apple.png""]","[""apple.png""]","[""apple.png""]","[""apple.png""]",blank.png,PB18.png,PB18.png,"[""apple.png""]","[""apple.png""]","[""apple.png""]","[""apple.png""]",blank.png,blank.png,"[""apple.png""]","[""apple.png""]","[""apple.png""]","[""apple.png""]","[""apple.png""]","[""apple.png""]",1,"[""praline.png""]",blank.png,blank.png,blank.png,4,"[""apple.png""]","[""apple.png""]","[""apple.png""]","[""apple.png""]",blank.png,blank.png,PB15.png,,,,,,,,,,,1,,,,,,,,,,,,,3498.848999999929,,completion,,,,,,,,,,,,,3,,,,,,,,,,,,,,,,,,,,,,,,,,,,,,,,,,,,,,,,,,,,,,,,,,,,,,,,,"[""apple.png""]","[""praline.png""]",,,,1,,,false,,1,,,,,,,671668.3699999703,671667.293,668151.854,668155.9649999836,668168.444,671683.876,,,,
fixCross,canvas.Screen,2_4_2_6_1_0_0_0_0_3_0,2021-05-24T16:47:23.289Z,,,blank.png,"[""praline.png""]",blank.png,blank.png,blank.png,blank.png,blank.png,blank.png,blank.png,blank.png,blank.png,blank.png,blank.png,,,,,,,,,,,,,,,,,,,,,,,,,,,,,"[""praline.png""]","[""apple.png""]",PB01.png,,,,,,,,,,,0,6,"[""apple.png""]","[""apple.png""]","[""apple.png""]","[""apple.png""]","[""apple.png""]","[""apple.png""]",blank.png,PB18.png,PB18.png,blank.png,blank.png,blank.png,blank.png,blank.png,blank.png,"[""apple.png""]","[""apple.png""]","[""apple.png""]","[""apple.png""]","[""apple.png""]","[""apple.png""]",1,"[""praline.png""]",blank.png,blank.png,blank.png,0,blank.png,blank.png,blank.png,blank.png,blank.png,blank.png,PB01.png,,,,,,,,,,,1,,,,,,,,,,,,,700.0879999999888,,timeout,,,,,,,,,,,,,3,,,,,,,,,,,,,,,,,,,,,,,,,,,,,,,,,,,,,,,,,,,,,,,,,,,,,,,,,"[""apple.png""]","[""praline.png""]",,,,1,,,false,,1,,,,,,,672117.5999999978,672117.124,671667.293,671672.2049999516,671683.876,672383.964,4,,,
timeout,canvas.Screen,2_4_2_6_1_0_0_0_0_3_1,2021-05-24T16:47:24.039Z,,,blank.png,"[""praline.png""]",blank.png,blank.png,blank.png,blank.png,blank.png,blank.png,blank.png,blank.png,blank.png,blank.png,blank.png,,,,,,,,,,,,,,,,,,,,,,,,,,,,,"[""praline.png""]","[""apple.png""]",PB01.png,,,,,,,,,,,0,6,"[""apple.png""]","[""apple.png""]","[""apple.png""]","[""apple.png""]","[""apple.png""]","[""apple.png""]",blank.png,PB18.png,PB18.png,blank.png,blank.png,blank.png,blank.png,blank.png,blank.png,"[""apple.png""]","[""apple.png""]","[""apple.png""]","[""apple.png""]","[""apple.png""]","[""apple.png""]",1,"[""praline.png""]",blank.png,blank.png,blank.png,0,blank.png,blank.png,blank.png,blank.png,blank.png,blank.png,PB01.png,,,,,,,,,,,1,,,,,,,,,,,,,766.1019999999553,,timeout,,,,,,,,,,,,,3,,,,,,,,,,,,,,,,,,,,,,,,,,,,,,,,,,,,,,,,,,,,,,,,,,,,,,,,,"[""apple.png""]","[""praline.png""]",,,,1,,,false,,1,,,,,,,672867.3249999993,672866.873,672117.124,672386.7399999872,672383.964,673150.066,,,,
choice,canvas.Screen,2_4_2_6_1_0_0_0_0_3_2,2021-05-24T16:47:24.889Z,,,blank.png,"[""praline.png""]",blank.png,blank.png,blank.png,blank.png,blank.png,blank.png,blank.png,blank.png,blank.png,blank.png,blank.png,,,,,,,,,,,,,,,,,,,,,,,,,,,,,"[""praline.png""]","[""apple.png""]",PB01.png,,,,,,,,,,,0,6,"[""apple.png""]","[""apple.png""]","[""apple.png""]","[""apple.png""]","[""apple.png""]","[""apple.png""]",blank.png,PB18.png,PB18.png,blank.png,blank.png,blank.png,blank.png,blank.png,blank.png,"[""apple.png""]","[""apple.png""]","[""apple.png""]","[""apple.png""]","[""apple.png""]","[""apple.png""]",1,"[""praline.png""]",blank.png,blank.png,blank.png,0,blank.png,blank.png,blank.png,blank.png,blank.png,blank.png,PB01.png,,,,,,,,,,,1,,,,,,,,,,,,,566.0489999592537,,response,,,,,,,,,,,,,3,,,,,,,,,,,,,,,,,,,,,,,,,,,,,,,,,,,,,,,,,,,,,,,,,,,,,,,,,"[""apple.png""]","[""praline.png""]",,,,1,right,keydown(ArrowRight),false,,1,,,,,,,673716.8649999658,673716.1149999592,672866.873,673127.1049999632,673150.066,673983.106,,4,,
square,canvas.Screen,2_4_2_6_1_0_0_0_0_3_3,2021-05-24T16:47:26.139Z,,,blank.png,"[""praline.png""]",blank.png,blank.png,blank.png,blank.png,blank.png,blank.png,blank.png,blank.png,blank.png,blank.png,blank.png,,,,,,,,,,,,,,,,,,,,,,,,,,,,,"[""praline.png""]","[""apple.png""]",PB01.png,,,,,,,,,,,0,6,"[""apple.png""]","[""apple.png""]","[""apple.png""]","[""apple.png""]","[""apple.png""]","[""apple.png""]",blank.png,PB18.png,PB18.png,blank.png,blank.png,blank.png,blank.png,blank.png,blank.png,"[""apple.png""]","[""apple.png""]","[""apple.png""]","[""apple.png""]","[""apple.png""]","[""apple.png""]",1,"[""praline.png""]",blank.png,blank.png,blank.png,0,blank.png,blank.png,blank.png,blank.png,blank.png,blank.png,PB01.png,,,,,,,,,,,1,,,#808080,#33ff3f,,,,,,,,,999.7770000000019,,timeout,,,,,,,,,,,,,3,,,,,,,,,,,,,,,,,,,,,,,,,,,,,,,,,,,,,,,,,,,,,,,,,,,,,,,,,"[""apple.png""]","[""praline.png""]",,,,1,,,false,,1,,,,,white,black,674966.6599999764,674966.137,673966.72,673967.8100000019,673983.106,674982.883,,,,
ITI_late,canvas.Screen,2_4_2_6_1_0_0_0_0_3_4,2021-05-24T16:47:27.388Z,,,blank.png,"[""praline.png""]",blank.png,blank.png,blank.png,blank.png,blank.png,blank.png,blank.png,blank.png,blank.png,blank.png,blank.png,,,,,,,,,,,,,,,,,,,,,,,,,,,,,"[""praline.png""]","[""apple.png""]",PB01.png,,,,,,,,,,,0,6,"[""apple.png""]","[""apple.png""]","[""apple.png""]","[""apple.png""]","[""apple.png""]","[""apple.png""]",blank.png,PB18.png,PB18.png,blank.png,blank.png,blank.png,blank.png,blank.png,blank.png,"[""apple.png""]","[""apple.png""]","[""apple.png""]","[""apple.png""]","[""apple.png""]","[""apple.png""]",1,"[""praline.png""]",blank.png,blank.png,blank.png,0,blank.png,blank.png,blank.png,blank.png,blank.png,blank.png,PB01.png,,,,,,,,,,,1,,,,,,,,,,,,,1249.5289999999804,,timeout,,,,,,,,,,,,white,3,,,,,,,,,,,,,,,,,,,,,,,,,,,,,,,,,,,,,,,,,,,,,,,,,,,,,,,,,"[""apple.png""]","[""praline.png""]",,,,1,,,false,,1,,,,,,,676216.2749999552,676215.724,674966.137,674968.1249999558,674982.883,676232.412,,,,
choice_sequence,flow.Sequence,2_4_2_6_1_0_0_0_0_3,2021-05-24T16:47:27.389Z,,,blank.png,"[""praline.png""]",blank.png,blank.png,blank.png,blank.png,blank.png,blank.png,blank.png,blank.png,blank.png,blank.png,blank.png,,,,,,,,,,,,,,,,,,,,,,,,,,,,,"[""praline.png""]","[""apple.png""]",PB01.png,,,,,,,,,,,0,6,"[""apple.png""]","[""apple.png""]","[""apple.png""]","[""apple.png""]","[""apple.png""]","[""apple.png""]",blank.png,PB18.png,PB18.png,blank.png,blank.png,blank.png,blank.png,blank.png,blank.png,"[""apple.png""]","[""apple.png""]","[""apple.png""]","[""apple.png""]","[""apple.png""]","[""apple.png""]",1,"[""praline.png""]",blank.png,blank.png,blank.png,0,blank.png,blank.png,blank.png,blank.png,blank.png,blank.png,PB01.png,,,,,,,,,,,1,,,,,,,,,,,,,4531.847999999998,,completion,,,,,,,,,,,,,3,,,,,,,,,,,,,,,,,,,,,,,,,,,,,,,,,,,,,,,,,,,,,,,,,,,,,,,,,"[""apple.png""]","[""praline.png""]",,,,1,,,false,,1,,,,,,,676216.8299999903,676215.724,671667.293,671671.7399999616,671683.876,676232.412,,,,
fixCross,canvas.Screen,2_4_2_6_1_0_0_0_0_4_0,2021-05-24T16:47:27.788Z,,,blank.png,blank.png,blank.png,blank.png,blank.png,blank.png,blank.png,"[""praline.png""]",blank.png,blank.png,blank.png,blank.png,blank.png,,,,,,,,,,,,,,,,,,,,,,,,,,,,,"[""praline.png""]","[""apple.png""]",PB18.png,,,,,,,,,,,0,6,"[""apple.png""]","[""apple.png""]","[""apple.png""]","[""apple.png""]","[""apple.png""]","[""apple.png""]",blank.png,PB18.png,PB12.png,"[""apple.png""]","[""apple.png""]","[""apple.png""]","[""apple.png""]","[""apple.png""]","[""apple.png""]","[""apple.png""]","[""apple.png""]",blank.png,blank.png,blank.png,blank.png,1,"[""praline.png""]",blank.png,blank.png,blank.png,2,"[""apple.png""]","[""apple.png""]",blank.png,blank.png,blank.png,blank.png,PB12.png,,,,,,,,,,,1,,,,,,,,,,,,,666.3769999999786,,timeout,,,,,,,,,,,,,4,,,,,,,,,,,,,,,,,,,,,,,,,,,,,,,,,,,,,,,,,,,,,,,,,,,,,,,,,"[""apple.png""]","[""praline.png""]",,,,1,,,false,,1,,,,,,,676616.1699999939,676615.617,676215.724,676219.4949999684,676232.412,676898.789,5,,,
timeout,canvas.Screen,2_4_2_6_1_0_0_0_0_4_1,2021-05-24T16:47:28.555Z,,,blank.png,blank.png,blank.png,blank.png,blank.png,blank.png,blank.png,"[""praline.png""]",blank.png,blank.png,blank.png,blank.png,blank.png,,,,,,,,,,,,,,,,,,,,,,,,,,,,,"[""praline.png""]","[""apple.png""]",PB18.png,,,,,,,,,,,0,6,"[""apple.png""]","[""apple.png""]","[""apple.png""]","[""apple.png""]","[""apple.png""]","[""apple.png""]",blank.png,PB18.png,PB12.png,"[""apple.png""]","[""apple.png""]","[""apple.png""]","[""apple.png""]","[""apple.png""]","[""apple.png""]","[""apple.png""]","[""apple.png""]",blank.png,blank.png,blank.png,blank.png,1,"[""praline.png""]",blank.png,blank.png,blank.png,2,"[""apple.png""]","[""apple.png""]",blank.png,blank.png,blank.png,blank.png,PB12.png,,,,,,,,,,,1,,,,,,,,,,,,,766.484999999986,,timeout,,,,,,,,,,,,,4,,,,,,,,,,,,,,,,,,,,,,,,,,,,,,,,,,,,,,,,,,,,,,,,,,,,,,,,,"[""apple.png""]","[""praline.png""]",,,,1,,,false,,1,,,,,,,677383.274999971,677382.267,676615.617,676901.4650000026,676898.789,677665.274,,,,
choice,canvas.Screen,2_4_2_6_1_0_0_0_0_4_2,2021-05-24T16:47:29.448Z,,,blank.png,blank.png,blank.png,blank.png,blank.png,blank.png,blank.png,"[""praline.png""]",blank.png,blank.png,blank.png,blank.png,blank.png,,,,,,,,,,,,,,,,,,,,,,,,,,,,,"[""praline.png""]","[""apple.png""]",PB18.png,,,,,,,,,,,0,6,"[""apple.png""]","[""apple.png""]","[""apple.png""]","[""apple.png""]","[""apple.png""]","[""apple.png""]",blank.png,PB18.png,PB12.png,"[""apple.png""]","[""apple.png""]","[""apple.png""]","[""apple.png""]","[""apple.png""]","[""apple.png""]","[""apple.png""]","[""apple.png""]",blank.png,blank.png,blank.png,blank.png,1,"[""praline.png""]",blank.png,blank.png,blank.png,2,"[""apple.png""]","[""apple.png""]",blank.png,blank.png,blank.png,blank.png,PB12.png,,,,,,,,,,,1,,,,,,,,,,,,,610.2810000001919,,response,,,,,,,,,,,,,4,,,,,,,,,,,,,,,,,,,,,,,,,,,,,,,,,,,,,,,,,,,,,,,,,,,,,,,,,"[""apple.png""]","[""praline.png""]",,,,1,left,keydown(ArrowLeft),false,,1,,,,,,,678276.1649999884,678275.5550000002,677382.267,677669.8749999632,677665.274,678564.924,,5,,
square,canvas.Screen,2_4_2_6_1_0_0_0_0_4_3,2021-05-24T16:47:30.720Z,,,blank.png,blank.png,blank.png,blank.png,blank.png,blank.png,blank.png,"[""praline.png""]",blank.png,blank.png,blank.png,blank.png,blank.png,,,,,,,,,,,,,,,,,,,,,,,,,,,,,"[""praline.png""]","[""apple.png""]",PB18.png,,,,,,,,,,,0,6,"[""apple.png""]","[""apple.png""]","[""apple.png""]","[""apple.png""]","[""apple.png""]","[""apple.png""]",blank.png,PB18.png,PB12.png,"[""apple.png""]","[""apple.png""]","[""apple.png""]","[""apple.png""]","[""apple.png""]","[""apple.png""]","[""apple.png""]","[""apple.png""]",blank.png,blank.png,blank.png,blank.png,1,"[""praline.png""]",blank.png,blank.png,blank.png,2,"[""apple.png""]","[""apple.png""]",blank.png,blank.png,blank.png,blank.png,PB12.png,,,,,,,,,,,1,,,#33ff3f,#808080,,,,,,,,,999.6790000000037,,timeout,,,,,,,,,,,,,4,,,,,,,,,,,,,,,,,,,,,,,,,,,,,,,,,,,,,,,,,,,,,,,,,,,,,,,,,"[""apple.png""]","[""praline.png""]",,,,1,,,false,,1,,,,,black,white,679548.5099999933,679547.883,678548.606,678559.4500000007,678564.924,679564.603,,,,
ITI_late,canvas.Screen,2_4_2_6_1_0_0_0_0_4_4,2021-05-24T16:47:30.970Z,,,blank.png,blank.png,blank.png,blank.png,blank.png,blank.png,blank.png,"[""praline.png""]",blank.png,blank.png,blank.png,blank.png,blank.png,,,,,,,,,,,,,,,,,,,,,,,,,,,,,"[""praline.png""]","[""apple.png""]",PB18.png,,,,,,,,,,,0,6,"[""apple.png""]","[""apple.png""]","[""apple.png""]","[""apple.png""]","[""apple.png""]","[""apple.png""]",blank.png,PB18.png,PB12.png,"[""apple.png""]","[""apple.png""]","[""apple.png""]","[""apple.png""]","[""apple.png""]","[""apple.png""]","[""apple.png""]","[""apple.png""]",blank.png,blank.png,blank.png,blank.png,1,"[""praline.png""]",blank.png,blank.png,blank.png,2,"[""apple.png""]","[""apple.png""]",blank.png,blank.png,blank.png,blank.png,PB12.png,,,,,,,,,,,1,,,,,,,,,,,,,249.91799999994691,,timeout,,,,,,,,,,,,white,4,,,,,,,,,,,,,,,,,,,,,,,,,,,,,,,,,,,,,,,,,,,,,,,,,,,,,,,,,"[""apple.png""]","[""praline.png""]",,,,1,,,false,,1,,,,,,,679798.4899999574,679797.822,679547.883,679549.9799999525,679564.603,679814.521,,,,
choice_sequence,flow.Sequence,2_4_2_6_1_0_0_0_0_4,2021-05-24T16:47:30.971Z,,,blank.png,blank.png,blank.png,blank.png,blank.png,blank.png,blank.png,"[""praline.png""]",blank.png,blank.png,blank.png,blank.png,blank.png,,,,,,,,,,,,,,,,,,,,,,,,,,,,,"[""praline.png""]","[""apple.png""]",PB18.png,,,,,,,,,,,0,6,"[""apple.png""]","[""apple.png""]","[""apple.png""]","[""apple.png""]","[""apple.png""]","[""apple.png""]",blank.png,PB18.png,PB12.png,"[""apple.png""]","[""apple.png""]","[""apple.png""]","[""apple.png""]","[""apple.png""]","[""apple.png""]","[""apple.png""]","[""apple.png""]",blank.png,blank.png,blank.png,blank.png,1,"[""praline.png""]",blank.png,blank.png,blank.png,2,"[""apple.png""]","[""apple.png""]",blank.png,blank.png,blank.png,blank.png,PB12.png,,,,,,,,,,,1,,,,,,,,,,,,,3565.4100000000326,,completion,,,,,,,,,,,,,4,,,,,,,,,,,,,,,,,,,,,,,,,,,,,,,,,,,,,,,,,,,,,,,,,,,,,,,,,"[""apple.png""]","[""praline.png""]",,,,1,,,false,,1,,,,,,,679798.7499999581,679797.822,676215.724,676219.059999974,676232.412,679814.521,,,,
fixCross,canvas.Screen,2_4_2_6_1_0_0_0_0_5_0,2021-05-24T16:47:31.520Z,,,blank.png,blank.png,blank.png,blank.png,blank.png,blank.png,blank.png,"[""praline.png""]",blank.png,blank.png,blank.png,blank.png,blank.png,,,,,,,,,,,,,,,,,,,,,,,,,,,,,"[""praline.png""]","[""apple.png""]",PB18.png,,,,,,,,,,,0,6,"[""apple.png""]","[""apple.png""]","[""apple.png""]","[""apple.png""]","[""apple.png""]","[""apple.png""]",blank.png,PB18.png,PB14.png,"[""apple.png""]","[""apple.png""]","[""apple.png""]","[""apple.png""]","[""apple.png""]","[""apple.png""]","[""apple.png""]","[""apple.png""]","[""apple.png""]",blank.png,blank.png,blank.png,1,"[""praline.png""]",blank.png,blank.png,blank.png,3,"[""apple.png""]","[""apple.png""]","[""apple.png""]",blank.png,blank.png,blank.png,PB14.png,,,,,,,,,,,1,,,,,,,,,,,,,833.015000000014,,timeout,,,,,,,,,,,,,4,,,,,,,,,,,,,,,,,,,,,,,,,,,,,,,,,,,,,,,,,,,,,,,,,,,,,,,,,"[""apple.png""]","[""praline.png""]",,,,1,,,false,,1,,,,,,,680348.4599999501,680347.684,679797.822,679801.8750000047,679814.521,680647.536,6,,,
timeout,canvas.Screen,2_4_2_6_1_0_0_0_0_5_1,2021-05-24T16:47:32.303Z,,,blank.png,blank.png,blank.png,blank.png,blank.png,blank.png,blank.png,"[""praline.png""]",blank.png,blank.png,blank.png,blank.png,blank.png,,,,,,,,,,,,,,,,,,,,,,,,,,,,,"[""praline.png""]","[""apple.png""]",PB18.png,,,,,,,,,,,0,6,"[""apple.png""]","[""apple.png""]","[""apple.png""]","[""apple.png""]","[""apple.png""]","[""apple.png""]",blank.png,PB18.png,PB14.png,"[""apple.png""]","[""apple.png""]","[""apple.png""]","[""apple.png""]","[""apple.png""]","[""apple.png""]","[""apple.png""]","[""apple.png""]","[""apple.png""]",blank.png,blank.png,blank.png,1,"[""praline.png""]",blank.png,blank.png,blank.png,3,"[""apple.png""]","[""apple.png""]","[""apple.png""]",blank.png,blank.png,blank.png,PB14.png,,,,,,,,,,,1,,,,,,,,,,,,,783.0960000000196,,timeout,,,,,,,,,,,,,4,,,,,,,,,,,,,,,,,,,,,,,,,,,,,,,,,,,,,,,,,,,,,,,,,,,,,,,,,"[""apple.png""]","[""praline.png""]",,,,1,,,false,,1,,,,,,,681131.5249999752,681130.762,680347.684,680651.0799999814,680647.536,681430.632,,,,
choice,canvas.Screen,2_4_2_6_1_0_0_0_0_5_2,2021-05-24T16:47:33.547Z,,,blank.png,blank.png,blank.png,blank.png,blank.png,blank.png,blank.png,"[""praline.png""]",blank.png,blank.png,blank.png,blank.png,blank.png,,,,,,,,,,,,,,,,,,,,,,,,,,,,,"[""praline.png""]","[""apple.png""]",PB18.png,,,,,,,,,,,0,6,"[""apple.png""]","[""apple.png""]","[""apple.png""]","[""apple.png""]","[""apple.png""]","[""apple.png""]",blank.png,PB18.png,PB14.png,"[""apple.png""]","[""apple.png""]","[""apple.png""]","[""apple.png""]","[""apple.png""]","[""apple.png""]","[""apple.png""]","[""apple.png""]","[""apple.png""]",blank.png,blank.png,blank.png,1,"[""praline.png""]",blank.png,blank.png,blank.png,3,"[""apple.png""]","[""apple.png""]","[""apple.png""]",blank.png,blank.png,blank.png,PB14.png,,,,,,,,,,,1,,,,,,,,,,,,,943.1379999474157,,response,,,,,,,,,,,,,4,,,,,,,,,,,,,,,,,,,,,,,,,,,,,,,,,,,,,,,,,,,,,,,,,,,,,,,,,"[""apple.png""]","[""praline.png""]",,,,1,right,keydown(ArrowRight),false,,1,,,,,,,682374.6899999678,682373.7699999474,681130.762,681433.629999985,681430.632,682680.185,,6,,
square,canvas.Screen,2_4_2_6_1_0_0_0_0_5_3,2021-05-24T16:47:34.836Z,,,blank.png,blank.png,blank.png,blank.png,blank.png,blank.png,blank.png,"[""praline.png""]",blank.png,blank.png,blank.png,blank.png,blank.png,,,,,,,,,,,,,,,,,,,,,,,,,,,,,"[""praline.png""]","[""apple.png""]",PB18.png,,,,,,,,,,,0,6,"[""apple.png""]","[""apple.png""]","[""apple.png""]","[""apple.png""]","[""apple.png""]","[""apple.png""]",blank.png,PB18.png,PB14.png,"[""apple.png""]","[""apple.png""]","[""apple.png""]","[""apple.png""]","[""apple.png""]","[""apple.png""]","[""apple.png""]","[""apple.png""]","[""apple.png""]",blank.png,blank.png,blank.png,1,"[""praline.png""]",blank.png,blank.png,blank.png,3,"[""apple.png""]","[""apple.png""]","[""apple.png""]",blank.png,blank.png,blank.png,PB14.png,,,,,,,,,,,1,,,#808080,#33ff3f,,,,,,,,,999.6569999998901,,timeout,,,,,,,,,,,,,4,,,,,,,,,,,,,,,,,,,,,,,,,,,,,,,,,,,,,,,,,,,,,,,,,,,,,,,,,"[""apple.png""]","[""praline.png""]",,,,1,,,false,,1,,,,,white,black,683663.8099999982,683663.165,682663.912,682668.7499999534,682680.185,683679.842,,,,
ITI_late,canvas.Screen,2_4_2_6_1_0_0_0_0_5_4,2021-05-24T16:47:35.336Z,,,blank.png,blank.png,blank.png,blank.png,blank.png,blank.png,blank.png,"[""praline.png""]",blank.png,blank.png,blank.png,blank.png,blank.png,,,,,,,,,,,,,,,,,,,,,,,,,,,,,"[""praline.png""]","[""apple.png""]",PB18.png,,,,,,,,,,,0,6,"[""apple.png""]","[""apple.png""]","[""apple.png""]","[""apple.png""]","[""apple.png""]","[""apple.png""]",blank.png,PB18.png,PB14.png,"[""apple.png""]","[""apple.png""]","[""apple.png""]","[""apple.png""]","[""apple.png""]","[""apple.png""]","[""apple.png""]","[""apple.png""]","[""apple.png""]",blank.png,blank.png,blank.png,1,"[""praline.png""]",blank.png,blank.png,blank.png,3,"[""apple.png""]","[""apple.png""]","[""apple.png""]",blank.png,blank.png,blank.png,PB14.png,,,,,,,,,,,1,,,,,,,,,,,,,499.85700000007637,,timeout,,,,,,,,,,,,white,4,,,,,,,,,,,,,,,,,,,,,,,,,,,,,,,,,,,,,,,,,,,,,,,,,,,,,,,,,"[""apple.png""]","[""praline.png""]",,,,1,,,false,,1,,,,,,,684164.5849999622,684163.352,683663.165,683665.6849999563,683679.842,684179.699,,,,
choice_sequence,flow.Sequence,2_4_2_6_1_0_0_0_0_5,2021-05-24T16:47:35.337Z,,,blank.png,blank.png,blank.png,blank.png,blank.png,blank.png,blank.png,"[""praline.png""]",blank.png,blank.png,blank.png,blank.png,blank.png,,,,,,,,,,,,,,,,,,,,,,,,,,,,,"[""praline.png""]","[""apple.png""]",PB18.png,,,,,,,,,,,0,6,"[""apple.png""]","[""apple.png""]","[""apple.png""]","[""apple.png""]","[""apple.png""]","[""apple.png""]",blank.png,PB18.png,PB14.png,"[""apple.png""]","[""apple.png""]","[""apple.png""]","[""apple.png""]","[""apple.png""]","[""apple.png""]","[""apple.png""]","[""apple.png""]","[""apple.png""]",blank.png,blank.png,blank.png,1,"[""praline.png""]",blank.png,blank.png,blank.png,3,"[""apple.png""]","[""apple.png""]","[""apple.png""]",blank.png,blank.png,blank.png,PB14.png,,,,,,,,,,,1,,,,,,,,,,,,,4348.831000000006,,completion,,,,,,,,,,,,,4,,,,,,,,,,,,,,,,,,,,,,,,,,,,,,,,,,,,,,,,,,,,,,,,,,,,,,,,,"[""apple.png""]","[""praline.png""]",,,,1,,,false,,1,,,,,,,684164.9499999476,684163.352,679797.822,679801.4499999699,679814.521,684179.699,,,,
fixCross,canvas.Screen,2_4_2_6_1_0_0_0_0_6_0,2021-05-24T16:47:36.036Z,,,blank.png,blank.png,blank.png,blank.png,blank.png,blank.png,blank.png,"[""praline.png""]",blank.png,blank.png,blank.png,blank.png,blank.png,,,,,,,,,,,,,,,,,,,,,,,,,,,,,"[""praline.png""]","[""apple.png""]",PB18.png,,,,,,,,,,,0,6,"[""apple.png""]","[""apple.png""]","[""apple.png""]","[""apple.png""]","[""apple.png""]","[""apple.png""]",blank.png,PB18.png,PB17.png,"[""apple.png""]","[""apple.png""]","[""apple.png""]","[""apple.png""]","[""apple.png""]","[""apple.png""]","[""apple.png""]","[""apple.png""]","[""apple.png""]","[""apple.png""]","[""apple.png""]","[""apple.png""]",1,"[""praline.png""]",blank.png,blank.png,blank.png,6,"[""apple.png""]","[""apple.png""]","[""apple.png""]","[""apple.png""]","[""apple.png""]","[""apple.png""]",PB17.png,,,,,,,,,,,1,,,,,,,,,,,,,1016.2639999999665,,timeout,,,,,,,,,,,,,4,,,,,,,,,,,,,,,,,,,,,,,,,,,,,,,,,,,,,,,,,,,,,,,,,,,,,,,,,"[""apple.png""]","[""praline.png""]",,,,1,,,false,,1,,,,,,,684863.6649999535,684862.842,684163.352,684167.4800000037,684179.699,685195.963,7,,,
timeout,canvas.Screen,2_4_2_6_1_0_0_0_0_6_1,2021-05-24T16:47:36.852Z,,,blank.png,blank.png,blank.png,blank.png,blank.png,blank.png,blank.png,"[""praline.png""]",blank.png,blank.png,blank.png,blank.png,blank.png,,,,,,,,,,,,,,,,,,,,,,,,,,,,,"[""praline.png""]","[""apple.png""]",PB18.png,,,,,,,,,,,0,6,"[""apple.png""]","[""apple.png""]","[""apple.png""]","[""apple.png""]","[""apple.png""]","[""apple.png""]",blank.png,PB18.png,PB17.png,"[""apple.png""]","[""apple.png""]","[""apple.png""]","[""apple.png""]","[""apple.png""]","[""apple.png""]","[""apple.png""]","[""apple.png""]","[""apple.png""]","[""apple.png""]","[""apple.png""]","[""apple.png""]",1,"[""praline.png""]",blank.png,blank.png,blank.png,6,"[""apple.png""]","[""apple.png""]","[""apple.png""]","[""apple.png""]","[""apple.png""]","[""apple.png""]",PB17.png,,,,,,,,,,,1,,,,,,,,,,,,,833.109999999986,,timeout,,,,,,,,,,,,,4,,,,,,,,,,,,,,,,,,,,,,,,,,,,,,,,,,,,,,,,,,,,,,,,,,,,,,,,,"[""apple.png""]","[""praline.png""]",,,,1,,,false,,1,,,,,,,685679.9299999839,685679.159,684862.842,685197.8949999902,685195.963,686029.073,,,,
choice,canvas.Screen,2_4_2_6_1_0_0_0_0_6_2,2021-05-24T16:47:37.884Z,,,blank.png,blank.png,blank.png,blank.png,blank.png,blank.png,blank.png,"[""praline.png""]",blank.png,blank.png,blank.png,blank.png,blank.png,,,,,,,,,,,,,,,,,,,,,,,,,,,,,"[""praline.png""]","[""apple.png""]",PB18.png,,,,,,,,,,,0,6,"[""apple.png""]","[""apple.png""]","[""apple.png""]","[""apple.png""]","[""apple.png""]","[""apple.png""]",blank.png,PB18.png,PB17.png,"[""apple.png""]","[""apple.png""]","[""apple.png""]","[""apple.png""]","[""apple.png""]","[""apple.png""]","[""apple.png""]","[""apple.png""]","[""apple.png""]","[""apple.png""]","[""apple.png""]","[""apple.png""]",1,"[""praline.png""]",blank.png,blank.png,blank.png,6,"[""apple.png""]","[""apple.png""]","[""apple.png""]","[""apple.png""]","[""apple.png""]","[""apple.png""]",PB17.png,,,,,,,,,,,1,,,,,,,,,,,,,681.926999952062,,response,,,,,,,,,,,,,4,,,,,,,,,,,,,,,,,,,,,,,,,,,,,,,,,,,,,,,,,,,,,,,,,,,,,,,,,"[""apple.png""]","[""praline.png""]",,,,1,right,keydown(ArrowRight),false,,1,,,,,,,686711.7100000032,686710.999999952,685679.159,686024.3599999812,686029.073,687064.883,,7,,
square,canvas.Screen,2_4_2_6_1_0_0_0_0_6_3,2021-05-24T16:47:39.218Z,,,blank.png,blank.png,blank.png,blank.png,blank.png,blank.png,blank.png,"[""praline.png""]",blank.png,blank.png,blank.png,blank.png,blank.png,,,,,,,,,,,,,,,,,,,,,,,,,,,,,"[""praline.png""]","[""apple.png""]",PB18.png,,,,,,,,,,,0,6,"[""apple.png""]","[""apple.png""]","[""apple.png""]","[""apple.png""]","[""apple.png""]","[""apple.png""]",blank.png,PB18.png,PB17.png,"[""apple.png""]","[""apple.png""]","[""apple.png""]","[""apple.png""]","[""apple.png""]","[""apple.png""]","[""apple.png""]","[""apple.png""]","[""apple.png""]","[""apple.png""]","[""apple.png""]","[""apple.png""]",1,"[""praline.png""]",blank.png,blank.png,blank.png,6,"[""apple.png""]","[""apple.png""]","[""apple.png""]","[""apple.png""]","[""apple.png""]","[""apple.png""]",PB17.png,,,,,,,,,,,1,,,#808080,#33ff3f,,,,,,,,,996.9429999999702,,timeout,,,,,,,,,,,,,4,,,,,,,,,,,,,,,,,,,,,,,,,,,,,,,,,,,,,,,,,,,,,,,,,,,,,,,,,"[""apple.png""]","[""praline.png""]",,,,1,,,false,,1,,,,,white,black,688045.8749999525,688045.055,687029.033,687044.6899999515,687064.883,688061.826,,,,
ITI_late,canvas.Screen,2_4_2_6_1_0_0_0_0_6_4,2021-05-24T16:47:40.218Z,,,blank.png,blank.png,blank.png,blank.png,blank.png,blank.png,blank.png,"[""praline.png""]",blank.png,blank.png,blank.png,blank.png,blank.png,,,,,,,,,,,,,,,,,,,,,,,,,,,,,"[""praline.png""]","[""apple.png""]",PB18.png,,,,,,,,,,,0,6,"[""apple.png""]","[""apple.png""]","[""apple.png""]","[""apple.png""]","[""apple.png""]","[""apple.png""]",blank.png,PB18.png,PB17.png,"[""apple.png""]","[""apple.png""]","[""apple.png""]","[""apple.png""]","[""apple.png""]","[""apple.png""]","[""apple.png""]","[""apple.png""]","[""apple.png""]","[""apple.png""]","[""apple.png""]","[""apple.png""]",1,"[""praline.png""]",blank.png,blank.png,blank.png,6,"[""apple.png""]","[""apple.png""]","[""apple.png""]","[""apple.png""]","[""apple.png""]","[""apple.png""]",PB17.png,,,,,,,,,,,1,,,,,,,,,,,,,999.4869999999646,,timeout,,,,,,,,,,,,white,4,,,,,,,,,,,,,,,,,,,,,,,,,,,,,,,,,,,,,,,,,,,,,,,,,,,,,,,,,"[""apple.png""]","[""praline.png""]",,,,1,,,false,,1,,,,,,,689045.8449999569,689044.972,688045.055,688047.3749999655,688061.826,689061.313,,,,
choice_sequence,flow.Sequence,2_4_2_6_1_0_0_0_0_6,2021-05-24T16:47:40.218Z,,,blank.png,blank.png,blank.png,blank.png,blank.png,blank.png,blank.png,"[""praline.png""]",blank.png,blank.png,blank.png,blank.png,blank.png,,,,,,,,,,,,,,,,,,,,,,,,,,,,,"[""praline.png""]","[""apple.png""]",PB18.png,,,,,,,,,,,0,6,"[""apple.png""]","[""apple.png""]","[""apple.png""]","[""apple.png""]","[""apple.png""]","[""apple.png""]",blank.png,PB18.png,PB17.png,"[""apple.png""]","[""apple.png""]","[""apple.png""]","[""apple.png""]","[""apple.png""]","[""apple.png""]","[""apple.png""]","[""apple.png""]","[""apple.png""]","[""apple.png""]","[""apple.png""]","[""apple.png""]",1,"[""praline.png""]",blank.png,blank.png,blank.png,6,"[""apple.png""]","[""apple.png""]","[""apple.png""]","[""apple.png""]","[""apple.png""]","[""apple.png""]",PB17.png,,,,,,,,,,,1,,,,,,,,,,,,,4865.272999999928,,completion,,,,,,,,,,,,,4,,,,,,,,,,,,,,,,,,,,,,,,,,,,,,,,,,,,,,,,,,,,,,,,,,,,,,,,,"[""apple.png""]","[""praline.png""]",,,,1,,,false,,1,,,,,,,689046.2049999624,689044.972,684163.352,684167.0199999935,684179.699,689061.313,,,,
choice_loop,flow.Loop,2_4_2_6_1_0_0_0_0,2021-05-24T16:47:40.218Z,,,,,,,,,,,,,,,,,,,,,,,,,,,,,,,,,,,,,,,,,,,,"[""praline.png""]","[""apple.png""]",,,,,,,,,,,,,,,,,,,,,,,,,,,,,,,,,,,,,,,,,,,,,,,,,,,,,,,,,,,,,,,,,,,,,,,29473.597999999998,,completion,,,,,,,,,,,,,,,,,,,,,,,,,,,,,,,,,,,,,,,,,,,,,,,,,,,,,,,,,,,,,,,,,,,,,,"[""apple.png""]","[""praline.png""]",,,,1,,,false,,,,,,,,,689046.3849999942,689044.972,659554.9,659578.3099999535,659571.374,689061.313,,,,
choice_frame,html.Frame,2_4_2_6_1_0_0_0,2021-05-24T16:47:40.218Z,,,,,,,,,,,,,,,,,,,,,,,,,,,,,,,,,,,,,,,,,,,,,,,,,,,,,,,,,,,,,,,,,,,,,,,,,,,,,,,,,,,,,,,,,,,,,,,,,,,,,,,,,,,,,,,,,,,,29475.085999983246,,,,,,,,,,,,,,,,,,,,,,,,,,,,,,,,,,,,,,,,,,,,,,,,,,,,,,,,,,,,,,,,,,,,,,,,,,,,,1,,,false,,,,,,,,,689046.5349999722,689046.4599999832,659554.9,659556.0100000002,659571.374,689077.996,,,,
sublock_1,flow.Sequence,2_4_2_6_1_0_0,2021-05-24T16:47:40.218Z,,,,,,,,,,,,,,,,,,,,,,,,,,,,,,,,,,,,,,,,,,,,,,,,,,,,,,,,,,,,,,,,,,,,,,,,,,,,,,,,,,,,,,,,,,,,,,,,,,,,,,,,,,,,,,,,,,,,29475.085999983246,,completion,,,,,,,,,,,,,,,,,,,,,,,,,,,,,,,,,,,,,,,,,,,,,,,,,,,,,,,,,,,,,,,,,,,,,,,,,,,1,,,false,,,,,,,,,689046.6049999814,689046.4599999832,659554.9,659555.9549999889,659571.374,689077.996,,,,
fixCross,canvas.Screen,2_4_2_6_1_0_1_0_0_0_0,2021-05-24T16:47:40.884Z,,,blank.png,"[""praline.png""]",blank.png,blank.png,blank.png,blank.png,blank.png,blank.png,blank.png,blank.png,blank.png,blank.png,blank.png,,,,,,,,,,,,,,,,,,,,,,,,,,,,,"[""praline.png""]","[""apple.png""]",PB17.png,,,,,,,,,,,0,6,"[""apple.png""]","[""apple.png""]","[""apple.png""]","[""apple.png""]","[""apple.png""]","[""apple.png""]",blank.png,PB18.png,PB18.png,"[""apple.png""]","[""apple.png""]","[""apple.png""]","[""apple.png""]","[""apple.png""]","[""apple.png""]","[""apple.png""]","[""apple.png""]","[""apple.png""]","[""apple.png""]","[""apple.png""]","[""apple.png""]",1,"[""praline.png""]",blank.png,blank.png,blank.png,6,"[""apple.png""]","[""apple.png""]","[""apple.png""]","[""apple.png""]","[""apple.png""]","[""apple.png""]",PB17.png,,,,,,,,,,,1,,,,,,,,,,,,,983.015000000014,,timeout,,,,,,,,,,,,,3,,,,,,,,,,,,,,,,,,,,,,,,,,,,,,,,,,,,,,,,,,,,,,,,,,,,,,,,,"[""apple.png""]","[""praline.png""]",,,,2,,,false,,1,,,,,,,689712.1649999754,689711.172,689061.313,689062.7849999582,689077.996,690061.011,8,,,
timeout,canvas.Screen,2_4_2_6_1_0_1_0_0_0_1,2021-05-24T16:47:41.717Z,,,blank.png,"[""praline.png""]",blank.png,blank.png,blank.png,blank.png,blank.png,blank.png,blank.png,blank.png,blank.png,blank.png,blank.png,,,,,,,,,,,,,,,,,,,,,,,,,,,,,"[""praline.png""]","[""apple.png""]",PB17.png,,,,,,,,,,,0,6,"[""apple.png""]","[""apple.png""]","[""apple.png""]","[""apple.png""]","[""apple.png""]","[""apple.png""]",blank.png,PB18.png,PB18.png,"[""apple.png""]","[""apple.png""]","[""apple.png""]","[""apple.png""]","[""apple.png""]","[""apple.png""]","[""apple.png""]","[""apple.png""]","[""apple.png""]","[""apple.png""]","[""apple.png""]","[""apple.png""]",1,"[""praline.png""]",blank.png,blank.png,blank.png,6,"[""apple.png""]","[""apple.png""]","[""apple.png""]","[""apple.png""]","[""apple.png""]","[""apple.png""]",PB17.png,,,,,,,,,,,1,,,,,,,,,,,,,833.0659999999916,,timeout,,,,,,,,,,,,,3,,,,,,,,,,,,,,,,,,,,,,,,,,,,,,,,,,,,,,,,,,,,,,,,,,,,,,,,,"[""apple.png""]","[""praline.png""]",,,,2,,,false,,1,,,,,,,690544.8749999632,690544.197,689711.172,690051.1149999802,690061.011,690894.077,,,,
choice,canvas.Screen,2_4_2_6_1_0_1_0_0_0_2,2021-05-24T16:47:42.198Z,,,blank.png,"[""praline.png""]",blank.png,blank.png,blank.png,blank.png,blank.png,blank.png,blank.png,blank.png,blank.png,blank.png,blank.png,,,,,,,,,,,,,,,,,,,,,,,,,,,,,"[""praline.png""]","[""apple.png""]",PB17.png,,,,,,,,,,,0,6,"[""apple.png""]","[""apple.png""]","[""apple.png""]","[""apple.png""]","[""apple.png""]","[""apple.png""]",blank.png,PB18.png,PB18.png,"[""apple.png""]","[""apple.png""]","[""apple.png""]","[""apple.png""]","[""apple.png""]","[""apple.png""]","[""apple.png""]","[""apple.png""]","[""apple.png""]","[""apple.png""]","[""apple.png""]","[""apple.png""]",1,"[""praline.png""]",blank.png,blank.png,blank.png,6,"[""apple.png""]","[""apple.png""]","[""apple.png""]","[""apple.png""]","[""apple.png""]","[""apple.png""]",PB17.png,,,,,,,,,,,1,,,,,,,,,,,,,131.57800000486895,,response,,,,,,,,,,,,,3,,,,,,,,,,,,,,,,,,,,,,,,,,,,,,,,,,,,,,,,,,,,,,,,,,,,,,,,,"[""apple.png""]","[""praline.png""]",,,,2,left,keydown(ArrowLeft),false,,1,,,,,,,691026.5699999873,691025.6550000049,690544.197,690886.8649999495,690894.077,691377.195,,8,,
square,canvas.Screen,2_4_2_6_1_0_1_0_0_0_3,2021-05-24T16:47:43.533Z,,,blank.png,"[""praline.png""]",blank.png,blank.png,blank.png,blank.png,blank.png,blank.png,blank.png,blank.png,blank.png,blank.png,blank.png,,,,,,,,,,,,,,,,,,,,,,,,,,,,,"[""praline.png""]","[""apple.png""]",PB17.png,,,,,,,,,,,0,6,"[""apple.png""]","[""apple.png""]","[""apple.png""]","[""apple.png""]","[""apple.png""]","[""apple.png""]",blank.png,PB18.png,PB18.png,"[""apple.png""]","[""apple.png""]","[""apple.png""]","[""apple.png""]","[""apple.png""]","[""apple.png""]","[""apple.png""]","[""apple.png""]","[""apple.png""]","[""apple.png""]","[""apple.png""]","[""apple.png""]",1,"[""praline.png""]",blank.png,blank.png,blank.png,6,"[""apple.png""]","[""apple.png""]","[""apple.png""]","[""apple.png""]","[""apple.png""]","[""apple.png""]",PB17.png,,,,,,,,,,,1,,,#33ff3f,#808080,,,,,,,,,999.6620000000112,,timeout,,,,,,,,,,,,,3,,,,,,,,,,,,,,,,,,,,,,,,,,,,,,,,,,,,,,,,,,,,,,,,,,,,,,,,,"[""apple.png""]","[""praline.png""]",,,,2,,,false,,1,,,,,black,white,692361.6099999635,692360.288,691360.71,691362.9499999806,691377.195,692376.857,,,,
ITI_late,canvas.Screen,2_4_2_6_1_0_1_0_0_0_4,2021-05-24T16:47:44.283Z,,,blank.png,"[""praline.png""]",blank.png,blank.png,blank.png,blank.png,blank.png,blank.png,blank.png,blank.png,blank.png,blank.png,blank.png,,,,,,,,,,,,,,,,,,,,,,,,,,,,,"[""praline.png""]","[""apple.png""]",PB17.png,,,,,,,,,,,0,6,"[""apple.png""]","[""apple.png""]","[""apple.png""]","[""apple.png""]","[""apple.png""]","[""apple.png""]",blank.png,PB18.png,PB18.png,"[""apple.png""]","[""apple.png""]","[""apple.png""]","[""apple.png""]","[""apple.png""]","[""apple.png""]","[""apple.png""]","[""apple.png""]","[""apple.png""]","[""apple.png""]","[""apple.png""]","[""apple.png""]",1,"[""praline.png""]",blank.png,blank.png,blank.png,6,"[""apple.png""]","[""apple.png""]","[""apple.png""]","[""apple.png""]","[""apple.png""]","[""apple.png""]",PB17.png,,,,,,,,,,,1,,,,,,,,,,,,,749.7790000000969,,timeout,,,,,,,,,,,,white,3,,,,,,,,,,,,,,,,,,,,,,,,,,,,,,,,,,,,,,,,,,,,,,,,,,,,,,,,,"[""apple.png""]","[""praline.png""]",,,,2,,,false,,1,,,,,,,693110.7149999589,693109.985,692360.288,692362.930000003,692376.857,693126.636,,,,
choice_sequence,flow.Sequence,2_4_2_6_1_0_1_0_0_0,2021-05-24T16:47:44.283Z,,,blank.png,"[""praline.png""]",blank.png,blank.png,blank.png,blank.png,blank.png,blank.png,blank.png,blank.png,blank.png,blank.png,blank.png,,,,,,,,,,,,,,,,,,,,,,,,,,,,,"[""praline.png""]","[""apple.png""]",PB17.png,,,,,,,,,,,0,6,"[""apple.png""]","[""apple.png""]","[""apple.png""]","[""apple.png""]","[""apple.png""]","[""apple.png""]",blank.png,PB18.png,PB18.png,"[""apple.png""]","[""apple.png""]","[""apple.png""]","[""apple.png""]","[""apple.png""]","[""apple.png""]","[""apple.png""]","[""apple.png""]","[""apple.png""]","[""apple.png""]","[""apple.png""]","[""apple.png""]",1,"[""praline.png""]",blank.png,blank.png,blank.png,6,"[""apple.png""]","[""apple.png""]","[""apple.png""]","[""apple.png""]","[""apple.png""]","[""apple.png""]",PB17.png,,,,,,,,,,,1,,,,,,,,,,,,,4031.988999999943,,completion,,,,,,,,,,,,,3,,,,,,,,,,,,,,,,,,,,,,,,,,,,,,,,,,,,,,,,,,,,,,,,,,,,,,,,,"[""apple.png""]","[""praline.png""]",,,,2,,,false,,1,,,,,,,693111.0099999933,693109.985,689061.313,689062.3199999682,689077.996,693126.636,,,,
fixCross,canvas.Screen,2_4_2_6_1_0_1_0_0_1_0,2021-05-24T16:47:44.533Z,,,blank.png,"[""praline.png""]",blank.png,blank.png,blank.png,blank.png,blank.png,blank.png,blank.png,blank.png,blank.png,blank.png,blank.png,,,,,,,,,,,,,,,,,,,,,,,,,,,,,"[""praline.png""]","[""apple.png""]",PB07.png,,,,,,,,,,,0,6,"[""apple.png""]","[""apple.png""]","[""apple.png""]","[""apple.png""]","[""apple.png""]","[""apple.png""]",blank.png,PB18.png,PB18.png,"[""apple.png""]",blank.png,blank.png,blank.png,blank.png,blank.png,"[""apple.png""]","[""apple.png""]","[""apple.png""]","[""apple.png""]","[""apple.png""]","[""apple.png""]",1,"[""praline.png""]",blank.png,blank.png,blank.png,1,"[""apple.png""]",blank.png,blank.png,blank.png,blank.png,blank.png,PB07.png,,,,,,,,,,,1,,,,,,,,,,,,,499.78699999989476,,timeout,,,,,,,,,,,,,3,,,,,,,,,,,,,,,,,,,,,,,,,,,,,,,,,,,,,,,,,,,,,,,,,,,,,,,,,"[""apple.png""]","[""praline.png""]",,,,2,,,false,,1,,,,,,,693360.6299999519,693360.073,693109.985,693113.3099999861,693126.636,693626.423,9,,,
timeout,canvas.Screen,2_4_2_6_1_0_1_0_0_1_1,2021-05-24T16:47:45.282Z,,,blank.png,"[""praline.png""]",blank.png,blank.png,blank.png,blank.png,blank.png,blank.png,blank.png,blank.png,blank.png,blank.png,blank.png,,,,,,,,,,,,,,,,,,,,,,,,,,,,,"[""praline.png""]","[""apple.png""]",PB07.png,,,,,,,,,,,0,6,"[""apple.png""]","[""apple.png""]","[""apple.png""]","[""apple.png""]","[""apple.png""]","[""apple.png""]",blank.png,PB18.png,PB18.png,"[""apple.png""]",blank.png,blank.png,blank.png,blank.png,blank.png,"[""apple.png""]","[""apple.png""]","[""apple.png""]","[""apple.png""]","[""apple.png""]","[""apple.png""]",1,"[""praline.png""]",blank.png,blank.png,blank.png,1,"[""apple.png""]",blank.png,blank.png,blank.png,blank.png,blank.png,PB07.png,,,,,,,,,,,1,,,,,,,,,,,,,749.7770000000019,,timeout,,,,,,,,,,,,,3,,,,,,,,,,,,,,,,,,,,,,,,,,,,,,,,,,,,,,,,,,,,,,,,,,,,,,,,,"[""apple.png""]","[""praline.png""]",,,,2,,,false,,1,,,,,,,694110.0649999571,694109.598,693360.073,693626.1049999739,693626.423,694376.2,,,,
choice,canvas.Screen,2_4_2_6_1_0_1_0_0_1_2,2021-05-24T16:47:45.585Z,,,blank.png,"[""praline.png""]",blank.png,blank.png,blank.png,blank.png,blank.png,blank.png,blank.png,blank.png,blank.png,blank.png,blank.png,,,,,,,,,,,,,,,,,,,,,,,,,,,,,"[""praline.png""]","[""apple.png""]",PB07.png,,,,,,,,,,,0,6,"[""apple.png""]","[""apple.png""]","[""apple.png""]","[""apple.png""]","[""apple.png""]","[""apple.png""]",blank.png,PB18.png,PB18.png,"[""apple.png""]",blank.png,blank.png,blank.png,blank.png,blank.png,"[""apple.png""]","[""apple.png""]","[""apple.png""]","[""apple.png""]","[""apple.png""]","[""apple.png""]",1,"[""praline.png""]",blank.png,blank.png,blank.png,1,"[""apple.png""]",blank.png,blank.png,blank.png,blank.png,blank.png,PB07.png,,,,,,,,,,,1,,,,,,,,,,,,,35.76499997754581,,response,,,,,,,,,,,,,3,,,,,,,,,,,,,,,,,,,,,,,,,,,,,,,,,,,,,,,,,,,,,,,,,,,,,,,,,"[""apple.png""]","[""praline.png""]",,,,2,right,keydown(ArrowRight),false,,1,,,,,,,694413.0099999602,694411.9649999775,694109.598,694380.3299999563,694376.2,694692.687,,9,,
square,canvas.Screen,2_4_2_6_1_0_1_0_0_1_3,2021-05-24T16:47:46.866Z,,,blank.png,"[""praline.png""]",blank.png,blank.png,blank.png,blank.png,blank.png,blank.png,blank.png,blank.png,blank.png,blank.png,blank.png,,,,,,,,,,,,,,,,,,,,,,,,,,,,,"[""praline.png""]","[""apple.png""]",PB07.png,,,,,,,,,,,0,6,"[""apple.png""]","[""apple.png""]","[""apple.png""]","[""apple.png""]","[""apple.png""]","[""apple.png""]",blank.png,PB18.png,PB18.png,"[""apple.png""]",blank.png,blank.png,blank.png,blank.png,blank.png,"[""apple.png""]","[""apple.png""]","[""apple.png""]","[""apple.png""]","[""apple.png""]","[""apple.png""]",1,"[""praline.png""]",blank.png,blank.png,blank.png,1,"[""apple.png""]",blank.png,blank.png,blank.png,blank.png,blank.png,PB07.png,,,,,,,,,,,1,,,#808080,#33ff3f,,,,,,,,,1016.375,,timeout,,,,,,,,,,,,,3,,,,,,,,,,,,,,,,,,,,,,,,,,,,,,,,,,,,,,,,,,,,,,,,,,,,,,,,,"[""apple.png""]","[""praline.png""]",,,,2,,,false,,1,,,,,white,black,695694.2249999847,695693.392,694676.187,694681.7399999709,694692.687,695709.062,,,,
ITI_late,canvas.Screen,2_4_2_6_1_0_1_0_0_1_4,2021-05-24T16:47:47.615Z,,,blank.png,"[""praline.png""]",blank.png,blank.png,blank.png,blank.png,blank.png,blank.png,blank.png,blank.png,blank.png,blank.png,blank.png,,,,,,,,,,,,,,,,,,,,,,,,,,,,,"[""praline.png""]","[""apple.png""]",PB07.png,,,,,,,,,,,0,6,"[""apple.png""]","[""apple.png""]","[""apple.png""]","[""apple.png""]","[""apple.png""]","[""apple.png""]",blank.png,PB18.png,PB18.png,"[""apple.png""]",blank.png,blank.png,blank.png,blank.png,blank.png,"[""apple.png""]","[""apple.png""]","[""apple.png""]","[""apple.png""]","[""apple.png""]","[""apple.png""]",1,"[""praline.png""]",blank.png,blank.png,blank.png,1,"[""apple.png""]",blank.png,blank.png,blank.png,blank.png,blank.png,PB07.png,,,,,,,,,,,1,,,,,,,,,,,,,749.6799999999348,,timeout,,,,,,,,,,,,white,3,,,,,,,,,,,,,,,,,,,,,,,,,,,,,,,,,,,,,,,,,,,,,,,,,,,,,,,,,"[""apple.png""]","[""praline.png""]",,,,2,,,false,,1,,,,,,,696442.6499999827,696442.11,695693.392,695695.8849999937,695709.062,696458.742,,,,
choice_sequence,flow.Sequence,2_4_2_6_1_0_1_0_0_1,2021-05-24T16:47:47.615Z,,,blank.png,"[""praline.png""]",blank.png,blank.png,blank.png,blank.png,blank.png,blank.png,blank.png,blank.png,blank.png,blank.png,blank.png,,,,,,,,,,,,,,,,,,,,,,,,,,,,,"[""praline.png""]","[""apple.png""]",PB07.png,,,,,,,,,,,0,6,"[""apple.png""]","[""apple.png""]","[""apple.png""]","[""apple.png""]","[""apple.png""]","[""apple.png""]",blank.png,PB18.png,PB18.png,"[""apple.png""]",blank.png,blank.png,blank.png,blank.png,blank.png,"[""apple.png""]","[""apple.png""]","[""apple.png""]","[""apple.png""]","[""apple.png""]","[""apple.png""]",1,"[""praline.png""]",blank.png,blank.png,blank.png,1,"[""apple.png""]",blank.png,blank.png,blank.png,blank.png,blank.png,PB07.png,,,,,,,,,,,1,,,,,,,,,,,,,3315.473999999929,,completion,,,,,,,,,,,,,3,,,,,,,,,,,,,,,,,,,,,,,,,,,,,,,,,,,,,,,,,,,,,,,,,,,,,,,,,"[""apple.png""]","[""praline.png""]",,,,2,,,false,,1,,,,,,,696443.1899999618,696442.11,693109.985,693112.8899999894,693126.636,696458.742,,,,
fixCross,canvas.Screen,2_4_2_6_1_0_1_0_0_2_0,2021-05-24T16:47:48.015Z,,,blank.png,blank.png,blank.png,blank.png,blank.png,blank.png,blank.png,"[""praline.png""]",blank.png,blank.png,blank.png,blank.png,blank.png,,,,,,,,,,,,,,,,,,,,,,,,,,,,,"[""praline.png""]","[""apple.png""]",PB18.png,,,,,,,,,,,0,6,"[""apple.png""]","[""apple.png""]","[""apple.png""]","[""apple.png""]","[""apple.png""]","[""apple.png""]",blank.png,PB18.png,PB15.png,"[""apple.png""]","[""apple.png""]","[""apple.png""]","[""apple.png""]","[""apple.png""]","[""apple.png""]","[""apple.png""]","[""apple.png""]","[""apple.png""]","[""apple.png""]",blank.png,blank.png,1,"[""praline.png""]",blank.png,blank.png,blank.png,4,"[""apple.png""]","[""apple.png""]","[""apple.png""]","[""apple.png""]",blank.png,blank.png,PB15.png,,,,,,,,,,,1,,,,,,,,,,,,,699.8310000000056,,timeout,,,,,,,,,,,,,4,,,,,,,,,,,,,,,,,,,,,,,,,,,,,,,,,,,,,,,,,,,,,,,,,,,,,,,,,"[""apple.png""]","[""praline.png""]",,,,2,,,false,,1,,,,,,,696842.9049999686,696842.052,696442.11,696446.0649999673,696458.742,697158.573,10,,,
timeout,canvas.Screen,2_4_2_6_1_0_1_0_0_2_1,2021-05-24T16:47:48.815Z,,,blank.png,blank.png,blank.png,blank.png,blank.png,blank.png,blank.png,"[""praline.png""]",blank.png,blank.png,blank.png,blank.png,blank.png,,,,,,,,,,,,,,,,,,,,,,,,,,,,,"[""praline.png""]","[""apple.png""]",PB18.png,,,,,,,,,,,0,6,"[""apple.png""]","[""apple.png""]","[""apple.png""]","[""apple.png""]","[""apple.png""]","[""apple.png""]",blank.png,PB18.png,PB15.png,"[""apple.png""]","[""apple.png""]","[""apple.png""]","[""apple.png""]","[""apple.png""]","[""apple.png""]","[""apple.png""]","[""apple.png""]","[""apple.png""]","[""apple.png""]",blank.png,blank.png,1,"[""praline.png""]",blank.png,blank.png,blank.png,4,"[""apple.png""]","[""apple.png""]","[""apple.png""]","[""apple.png""]",blank.png,blank.png,PB15.png,,,,,,,,,,,1,,,,,,,,,,,,,816.359000000055,,timeout,,,,,,,,,,,,,4,,,,,,,,,,,,,,,,,,,,,,,,,,,,,,,,,,,,,,,,,,,,,,,,,,,,,,,,,"[""apple.png""]","[""praline.png""]",,,,2,,,false,,1,,,,,,,697642.8099999903,697641.793,696842.052,697166.104999953,697158.573,697974.932,,,,
choice,canvas.Screen,2_4_2_6_1_0_1_0_0_2_2,2021-05-24T16:47:49.362Z,,,blank.png,blank.png,blank.png,blank.png,blank.png,blank.png,blank.png,"[""praline.png""]",blank.png,blank.png,blank.png,blank.png,blank.png,,,,,,,,,,,,,,,,,,,,,,,,,,,,,"[""praline.png""]","[""apple.png""]",PB18.png,,,,,,,,,,,0,6,"[""apple.png""]","[""apple.png""]","[""apple.png""]","[""apple.png""]","[""apple.png""]","[""apple.png""]",blank.png,PB18.png,PB15.png,"[""apple.png""]","[""apple.png""]","[""apple.png""]","[""apple.png""]","[""apple.png""]","[""apple.png""]","[""apple.png""]","[""apple.png""]","[""apple.png""]","[""apple.png""]",blank.png,blank.png,1,"[""praline.png""]",blank.png,blank.png,blank.png,4,"[""apple.png""]","[""apple.png""]","[""apple.png""]","[""apple.png""]",blank.png,blank.png,PB15.png,,,,,,,,,,,1,,,,,,,,,,,,,214.57799999648705,,response,,,,,,,,,,,,,4,,,,,,,,,,,,,,,,,,,,,,,,,,,,,,,,,,,,,,,,,,,,,,,,,,,,,,,,,"[""apple.png""]","[""praline.png""]",,,,2,right,keydown(ArrowRight),false,,1,,,,,,,698190.3949999833,698189.5099999965,697641.793,697956.4999999711,697974.932,698508.127,,10,,
square,canvas.Screen,2_4_2_6_1_0_1_0_0_2_3,2021-05-24T16:47:50.664Z,,,blank.png,blank.png,blank.png,blank.png,blank.png,blank.png,blank.png,"[""praline.png""]",blank.png,blank.png,blank.png,blank.png,blank.png,,,,,,,,,,,,,,,,,,,,,,,,,,,,,"[""praline.png""]","[""apple.png""]",PB18.png,,,,,,,,,,,0,6,"[""apple.png""]","[""apple.png""]","[""apple.png""]","[""apple.png""]","[""apple.png""]","[""apple.png""]",blank.png,PB18.png,PB15.png,"[""apple.png""]","[""apple.png""]","[""apple.png""]","[""apple.png""]","[""apple.png""]","[""apple.png""]","[""apple.png""]","[""apple.png""]","[""apple.png""]","[""apple.png""]",blank.png,blank.png,1,"[""praline.png""]",blank.png,blank.png,blank.png,4,"[""apple.png""]","[""apple.png""]","[""apple.png""]","[""apple.png""]",blank.png,blank.png,PB15.png,,,,,,,,,,,1,,,#808080,#33ff3f,,,,,,,,,999.640000000014,,timeout,,,,,,,,,,,,,4,,,,,,,,,,,,,,,,,,,,,,,,,,,,,,,,,,,,,,,,,,,,,,,,,,,,,,,,,"[""apple.png""]","[""praline.png""]",,,,2,,,false,,1,,,,,white,black,699492.0949999942,699491.139,698491.772,698494.9249999481,698508.127,699507.767,,,,
ITI_late,canvas.Screen,2_4_2_6_1_0_1_0_0_2_4,2021-05-24T16:47:50.914Z,,,blank.png,blank.png,blank.png,blank.png,blank.png,blank.png,blank.png,"[""praline.png""]",blank.png,blank.png,blank.png,blank.png,blank.png,,,,,,,,,,,,,,,,,,,,,,,,,,,,,"[""praline.png""]","[""apple.png""]",PB18.png,,,,,,,,,,,0,6,"[""apple.png""]","[""apple.png""]","[""apple.png""]","[""apple.png""]","[""apple.png""]","[""apple.png""]",blank.png,PB18.png,PB15.png,"[""apple.png""]","[""apple.png""]","[""apple.png""]","[""apple.png""]","[""apple.png""]","[""apple.png""]","[""apple.png""]","[""apple.png""]","[""apple.png""]","[""apple.png""]",blank.png,blank.png,1,"[""praline.png""]",blank.png,blank.png,blank.png,4,"[""apple.png""]","[""apple.png""]","[""apple.png""]","[""apple.png""]",blank.png,blank.png,PB15.png,,,,,,,,,,,1,,,,,,,,,,,,,249.92900000000373,,timeout,,,,,,,,,,,,white,4,,,,,,,,,,,,,,,,,,,,,,,,,,,,,,,,,,,,,,,,,,,,,,,,,,,,,,,,,"[""apple.png""]","[""praline.png""]",,,,2,,,false,,1,,,,,,,699741.9599999557,699741.06,699491.139,699493.4049999574,699507.767,699757.696,,,,
