sender,sender_type,sender_id,timestamp,meta,,Blank,DownLeft1,DownLeft2,DownLeft3,DownLeft4,DownLeft5,DownLeft6,DownRight1,DownRight2,DownRight3,DownRight4,DownRight5,DownRight6,FoodHabits_Fru_item1,FoodHabits_Fru_item2,FoodHabits_Fru_item3,FoodHabits_Fru_item4,FoodHabits_Fru_item5,FoodHabits_Fru_item6,FoodHabits_Fru_item7,FoodHabits_Meat_item1,FoodHabits_Meat_item2,FoodHabits_Meat_item3,FoodHabits_Meat_item4,FoodHabits_Meat_item5,FoodHabits_Meat_item6,FoodHabits_Meat_item7,FoodHabits_Swe_item1,FoodHabits_Swe_item2,FoodHabits_Swe_item3,FoodHabits_Swe_item4,FoodHabits_Swe_item5,FoodHabits_Swe_item6,FoodHabits_Swe_item7,FoodHabits_Veg_item1,FoodHabits_Veg_item2,FoodHabits_Veg_item3,FoodHabits_Veg_item4,FoodHabits_Veg_item5,FoodHabits_Veg_item6,FoodHabits_Veg_item7,ImgA,ImgB,LeftBar,PSS_item01,PSS_item02,PSS_item03,PSS_item04,PSS_item05,PSS_item06,PSS_item07,PSS_item08,PSS_item09,PSS_item10,RefA,RefB,RefB1,RefB2,RefB3,RefB4,RefB5,RefB6,RefB7,Ref_PB,RightBar,UpLeft1,UpLeft2,UpLeft3,UpLeft4,UpLeft5,UpLeft6,UpRight1,UpRight2,UpRight3,UpRight4,UpRight5,UpRight6,VarA,VarA1,VarA2,VarA3,VarA4,VarB,VarB1,VarB2,VarB3,VarB4,VarB5,VarB6,Var_PB,attCheck_fileA,attCheck_fileB,attCheck_fileC,attCheck_fileD,attCheck_options,attCheck_valueA,attCheck_valueB,attCheck_valueC,attCheck_valueD,attention_check,block,break1,browser_name,choseL,choseR,consent_form1,consent_form2,consentconfirmation_form1,consentconfirmation_form2,correct,correctResponse,diet,disorder,duration,edu,ended_on,enjoy,full_version,gender,group,hunger,img,imgTask,input_age,input_meal,input_occ,input_remark,lateRespFeed,list,major_version,message,mixQ_item1,mixQ_item2,mixQ_item3,mixQ_item4,mixQ_item5,name,navigator_appName,navigator_userAgent,os,pracQ1_IDa,pracQ1_IDb,pracQ1_IDc,pracQ1_IDd,pracQ1_optionA,pracQ1_optionB,pracQ1_optionC,pracQ1_optionD,pracQ1_valueA,pracQ1_valueB,pracQ1_valueC,pracQ1_valueD,pracQ2_IDa,pracQ2_IDb,pracQ2_IDc,pracQ2_optionA,pracQ2_optionB,pracQ2_optionC,pracQ2_valueA,pracQ2_valueB,pracQ2_valueC,pracQ4_IDa,pracQ4_IDb,pracQ4_IDc,pracQ4_IDd,pracQ4_optionA,pracQ4_optionB,pracQ4_optionC,pracQ4_optionD,pracQ4_valueA,pracQ4_valueB,pracQ4_valueC,pracQ4_valueD,pracQ5_IDa,pracQ5_IDb,pracQ5_IDc,pracQ5_IDd,pracQ5_optionA,pracQ5_optionB,pracQ5_optionC,pracQ5_optionD,pracQ5_valueA,pracQ5_valueB,pracQ5_valueC,pracQ5_valueD,prefHealty,prefUnhealthy,prolific_ID,psessionID,pstudyID,rep,response,response_action,skip,snack,sublock,subtitle,task_difficulty,task_engagement,task_focus,textL,textR,time_commit,time_end,time_render,time_run,time_show,time_switch,trial_count,trial_countO,url,valence
Title,html.Page,0,2021-05-24T16:08:29.228Z,"{""labjs_version"":""20.2.2"",""labjs_build"":{""flavor"":""production"",""commit"":""a25486e0c714a0ae2ce03ff94b7bb6896854dcfa""},""location"":""https://run.pavlovia.org/E3lab/rebund/html/?PROLIFIC_PID=5f5b7da324ea690ab36f58a5&STUDY_ID=60008f34cd719d13b0d706dd&SESSION_ID=60abcf6d09915f0dd00e0617"",""userAgent"":""Mozilla/5.0 (Windows NT 10.0; Win64; x64) AppleWebKit/537.36 (KHTML, like Gecko) Chrome/90.0.4430.212 Safari/537.36"",""platform"":""Win32"",""language"":""pt-PT"",""locale"":""pt-PT"",""timeZone"":""Europe/Lisbon"",""timezoneOffset"":-60,""screen_width"":1920,""screen_height"":1080,""scroll_width"":1920,""scroll_height"":889,""window_innerWidth"":1920,""window_innerHeight"":937,""devicePixelRatio"":1}",,,,,,,,,,,,,,,,,,,,,,,,,,,,,,,,,,,,,,,,,,,,,,,,,,,,,,,,,,,,,,,,,,,,,,,,,,,,,,,,,,,,,,,,,,,,,,,,,,,,,,,,,,,,,,,,,,,11350.616000000373,,form submission,,,,,,,,,,,,,,,,,,,,,,,,,,,,,,,,,,,,,,,,,,,,,,,,,,,,,,,,,,,,,,,,,,,,,,,,,,,,,,,,,,,,,,,14184.510000000955,14184.245000000374,2817.034,2803.570000000036,2833.629,14200.341,,,"{""PROLIFIC_PID"":""5f5b7da324ea690ab36f58a5"",""STUDY_ID"":""60008f34cd719d13b0d706dd"",""SESSION_ID"":""60abcf6d09915f0dd00e0617""}",
get_systemInfo,canvas.Screen,1,2021-05-24T16:08:29.244Z,,,,,,,,,,,,,,,,,,,,,,,,,,,,,,,,,,,,,,,,,,,,,,,,,,,,,,,,,,,,,,,,,,,,,,,,,,,,,,,,,,,,,,,,,,,,,,,,,,,,,,,,,Chrome,,,,,,,,,,,1733.33,,timeout,,90.0.4430.212,,,,,,,,,,,,90,,,,,,,,Netscape,"Mozilla/5.0 (Windows NT 10.0; Win64; x64) AppleWebKit/537.36 (KHTML, like Gecko) Chrome/90.0.4430.212 Safari/537.36",Windows,,,,,,,,,,,,,,,,,,,,,,,,,,,,,,,,,,,,,,,,,,,,,,,,5f5b7da324ea690ab36f58a5,,60008f34cd719d13b0d706dd,,,,,,,,,,,,,14200.950000000375,14200.740000000224,14183.599,14185.339999999997,14200.341,15933.671,,,,
ConsentForm,html.Form,2_0,2021-05-24T16:08:41.824Z,,,,,,,,,,,,,,,,,,,,,,,,,,,,,,,,,,,,,,,,,,,,,,,,,,,,,,,,,,,,,,,,,,,,,,,,,,,,,,,,,,,,,,,,,,,,,,,,,,,,,,,,,,,,true,true,,,,,,,10847.074000000024,,form submission,,,,,,,,,,,,,,,,,,,,,,,,,,,,,,,,,,,,,,,,,,,,,,,,,,,,,,,,,,,,,,,,,,,,,,,,,,,,,,,,,,,,,,,26780.910000001313,26780.745000000024,14200.740000000224,15944.695000000138,15933.671,26800.286,,,,
PepTalk,html.Page,2_1,2021-05-24T16:08:45.580Z,,,,,,,,,,,,,,,,,,,,,,,,,,,,,,,,,,,,,,,,,,,,,,,,,,,,,,,,,,,,,,,,,,,,,,,,,,,,,,,,,,,,,,,,,,,,,,,,,,,,,,,,,,,,,,,,,,,,3736.4590000012467,,form submission,,,,,,,,,,,,,,,,,,,,,,,,,,,,,,,,,,,,,,,,,,,,,,,,,,,,,,,,,,,,,,,,,,,,,,,,,,,,,,,,,,,,,,,30536.944999999832,30536.745000001247,26783.604,26780.985000001237,26800.286,30550.315,,,,
Demographics,html.Form,2_2,2021-05-24T16:09:11.164Z,,,,,,,,,,,,,,,,,,,,,,,,,,,,,,,,,,,,,,,,,,,,,,,,,,,,,,,,,,,,,,,,,,,,,,,,,,,,,,,,,,,,,,,,,,,,,,,,,,,,,,,,,,,,,,,,,,,,25569.610000000877,4,form submission,,,2,,,,,24,,Soldier,,,,,,,,,,,,,,,,,,,,,,,,,,,,,,,,,,,,,,,,,,,,,,,,,,,,,,,,,,,,,,,,,,,,,,,,,,,,,56120.10000000009,56119.925000000876,30533.642,30537.04000000107,30550.315,56133.61,,,,
InclusionCrit,html.Form,2_3,2021-05-24T16:09:22.810Z,,,,,,,,,,,,,,,,,,,,,,,,,,,,,,,,,,,,,,,,,,,,,,,,,,,,,,,,,,,,,,,,,,,,,,,,,,,,,,,,,,,,,,,,,,,,,,,,,,,,,,,,,,,,,,,,,,0,1,11632.010000000126,,form submission,1,,,,,,,,,,,,,,,,,,,,,,,,,,,,,,,,,,,,,,,,,,,,,,,,,,,,,,,,,,,,,,,,,,,,,,,,,,,,,,,,,,,,,,67765.77499999985,67765.62000000013,56116.935,56120.20500000108,56133.61,67766.864,,,,
Selection,html.Page,2_4_0,2021-05-24T16:09:28.517Z,,,,,,,,,,,,,,,,,,,,,,,,,,,,,,,,,,,,,,,,,,,,,,,,,,,,,,,,,,,,,,,,,,,,,,,,,,,,,,,,,,,,,,,,,,,,,,,,,,,,,,,,,,,,,,,,,,,,5705.8060000010155,,form submission,,,,,,,,,,,,,,,,,,,,,,,,,,,,,,,,,,,,,,,,,,,,,,,,,,,,,,,,,,,,,,,,,,,,,,,,,,,,,,,1,,,,,,,,73472.84000000036,73472.67000000102,67750.245,67765.88500000071,67766.864,73483.515,,,,
Load,html.Page,2_4_1,2021-05-24T16:09:28.528Z,,,,,,,,,,,,,,,,,,,,,,,,,,,,,,,,,,,,,,,,,,,,,,,,,,,,,,,,,,,,,,,,,,,,,,,,,,,,,,,,,,,,,,,,,,,,,,,,,,,,,,,,,,,,,,,,,,,,14566.728000000003,,timeout,,,,,,,,,,,,,,,,,,,,,,,,,,,,,,,,,,,,,,,,,,,,,,,,,,,,,,,,,,,,,,,,,,,,,,,,,,,,,,,,,,,,,,,73483.98500000076,73483.81500000141,73466.908,73472.95000000122,73483.515,88050.243,,,,
SequenceSweet,flow.Sequence,2_4_2,2021-05-24T16:09:36.837Z,,,,,,,,,,,,,,,,,,,,,,,,,,,,,,,,,,,,,,,,,,,,,,,,,,,,,,,,,,,,,,,,,,,,,,,,,,,,,,,,,,,,,,,,,,,,,,,,,,,,,,,,,,,,,,,,,,,,NaN,,skipped,,,,,,,,,,,,,,,,,,,,,,,,,,,,,,,,,,,,,,,,,,,,,,,,,,,,,,,,,,,,,,,,,,,,,,,,,,,,,,true,,,,,,,,,81793.14500000146,73483.81500000141,,81792.96000000068,,88050.243,0,0,,
ratings_instructions,html.Screen,2_4_3_0,2021-05-24T16:09:57.510Z,,,,,,,,,,,,,,,,,,,,,,,,,,,,,,,,,,,,,,,,,,,,,,,,,,,,,,,,,,,,,,,,,,,,,,,,,,,,,,,,,,,,,,,,,,,,,,,,,,,,,,,,,,,,,,,,,,,,14414.252000000168,,response,,,,,,,,,,,,,,,,,,,,,,,,,,,,,,,,,,,,,,,,,,,,,,,,,,,,,,,,,,,,,,,,,,,,,,,,,,,,continue,keypress(Space),false,,,,,,,,,102466.18000000126,102464.49500000017,73483.81500000141,88072.43500000004,88050.243,102466.809,0,0,,
fixCross,canvas.Screen,2_4_3_1_0_0,2021-05-24T16:09:57.995Z,,,,,,,,,,,,,,,,,,,,,,,,,,,,,,,,,,,,,,,,,,,,,,,,,,,,,,,,,,,,,,,,,,,,,,,,,,,,,,,,,,,,,,,,,,,,,,,,,,,,,,,,,,,,,,,,,,,,500.03399999999965,,timeout,,,,unhealthy,,bretzel.png,,,,,,,,,,,,,,,bretzel,,,,,,,,,,,,,,,,,,,,,,,,,,,,,,,,,,,,,,,,,,,,,,,,,,,,,,,,,false,,,,,,,,,102950.62000000144,102950.193,102449.968,102466.48500000083,102466.809,102966.843,,,,
Rating,html.Form,2_4_3_1_0_1,2021-05-24T16:10:04.349Z,,,,,,,,,,,,,,,,,,,,,,,,,,,,,,,,,,,,,,,,,,,,,,,,,,,,,,,,,,,,,,,,,,,,,,,,,,,,,,,,,,,,,,,,,,,,,,,,,,,,,,,,,,,,,,,,,,,,6337.662000000069,,form submission,,,,unhealthy,,bretzel.png,,,,,,,,,,,,,,,bretzel,,,,,,,,,,,,,,,,,,,,,,,,,,,,,,,,,,,,,,,,,,,,,,,,,,,,,,,,,false,,,,,,,,,109304.65499999991,109304.50500000006,102950.193,102950.69500000136,102966.843,109316.852,,,,22
rating_sequence,flow.Sequence,2_4_3_1_0,2021-05-24T16:10:04.349Z,,,,,,,,,,,,,,,,,,,,,,,,,,,,,,,,,,,,,,,,,,,,,,,,,,,,,,,,,,,,,,,,,,,,,,,,,,,,,,,,,,,,,,,,,,,,,,,,,,,,,,,,,,,,,,,,,,,,6837.696000000069,,completion,,,,unhealthy,,bretzel.png,,,,,,,,,,,,,,,bretzel,,,,,,,,,,,,,,,,,,,,,,,,,,,,,,,,,,,,,,,,,,,,,,,,,,,,,,,,,false,,,,,,,,,109304.83000000095,109304.50500000006,102449.968,102466.46000000146,102466.809,109316.852,,,,
fixCross,canvas.Screen,2_4_3_1_1_0,2021-05-24T16:10:04.844Z,,,,,,,,,,,,,,,,,,,,,,,,,,,,,,,,,,,,,,,,,,,,,,,,,,,,,,,,,,,,,,,,,,,,,,,,,,,,,,,,,,,,,,,,,,,,,,,,,,,,,,,,,,,,,,,,,,,,499.9389999999985,,timeout,,,,unhealthy,,ham.png,,,,,,,,,,,,,,,ham,,,,,,,,,,,,,,,,,,,,,,,,,,,,,,,,,,,,,,,,,,,,,,,,,,,,,,,,,false,,,,,,,,,109800.43000000114,109800.118,109300.184,109304.91500000062,109316.852,109816.791,,,,
Rating,html.Form,2_4_3_1_1_1,2021-05-24T16:10:07.730Z,,,,,,,,,,,,,,,,,,,,,,,,,,,,,,,,,,,,,,,,,,,,,,,,,,,,,,,,,,,,,,,,,,,,,,,,,,,,,,,,,,,,,,,,,,,,,,,,,,,,,,,,,,,,,,,,,,,,2868.8290000002016,,form submission,,,,unhealthy,,ham.png,,,,,,,,,,,,,,,ham,,,,,,,,,,,,,,,,,,,,,,,,,,,,,,,,,,,,,,,,,,,,,,,,,,,,,,,,,false,,,,,,,,,112685.76500000017,112685.6200000002,109800.118,109800.52500000056,109816.791,112700.141,,,,83
rating_sequence,flow.Sequence,2_4_3_1_1,2021-05-24T16:10:07.730Z,,,,,,,,,,,,,,,,,,,,,,,,,,,,,,,,,,,,,,,,,,,,,,,,,,,,,,,,,,,,,,,,,,,,,,,,,,,,,,,,,,,,,,,,,,,,,,,,,,,,,,,,,,,,,,,,,,,,3368.7680000002,,completion,,,,unhealthy,,ham.png,,,,,,,,,,,,,,,ham,,,,,,,,,,,,,,,,,,,,,,,,,,,,,,,,,,,,,,,,,,,,,,,,,,,,,,,,,false,,,,,,,,,112685.8800000009,112685.6200000002,109300.184,109304.89000000125,109316.852,112700.141,,,,
fixCross,canvas.Screen,2_4_3_1_2_0,2021-05-24T16:10:08.228Z,,,,,,,,,,,,,,,,,,,,,,,,,,,,,,,,,,,,,,,,,,,,,,,,,,,,,,,,,,,,,,,,,,,,,,,,,,,,,,,,,,,,,,,,,,,,,,,,,,,,,,,,,,,,,,,,,,,,500.0329999999958,,timeout,,,,unhealthy,,nacho.png,,,,,,,,,,,,,,,nacho,,,,,,,,,,,,,,,,,,,,,,,,,,,,,,,,,,,,,,,,,,,,,,,,,,,,,,,,,false,,,,,,,,,113183.86500000088,113183.509,112683.54,112685.97000000045,112700.141,113200.174,,,,
Rating,html.Form,2_4_3_1_2_1,2021-05-24T16:10:10.081Z,,,,,,,,,,,,,,,,,,,,,,,,,,,,,,,,,,,,,,,,,,,,,,,,,,,,,,,,,,,,,,,,,,,,,,,,,,,,,,,,,,,,,,,,,,,,,,,,,,,,,,,,,,,,,,,,,,,,1836.3510000013484,,form submission,,,,unhealthy,,nacho.png,,,,,,,,,,,,,,,nacho,,,,,,,,,,,,,,,,,,,,,,,,,,,,,,,,,,,,,,,,,,,,,,,,,,,,,,,,,false,,,,,,,,,115036.6750000012,115036.52500000135,113183.509,113183.9600000003,113200.174,115050.175,,,,100
rating_sequence,flow.Sequence,2_4_3_1_2,2021-05-24T16:10:10.081Z,,,,,,,,,,,,,,,,,,,,,,,,,,,,,,,,,,,,,,,,,,,,,,,,,,,,,,,,,,,,,,,,,,,,,,,,,,,,,,,,,,,,,,,,,,,,,,,,,,,,,,,,,,,,,,,,,,,,2336.3840000013442,,completion,,,,unhealthy,,nacho.png,,,,,,,,,,,,,,,nacho,,,,,,,,,,,,,,,,,,,,,,,,,,,,,,,,,,,,,,,,,,,,,,,,,,,,,,,,,false,,,,,,,,,115036.8150000013,115036.52500000135,112683.54,112685.92499999977,112700.141,115050.175,,,,
fixCross,canvas.Screen,2_4_3_1_3_0,2021-05-24T16:10:10.578Z,,,,,,,,,,,,,,,,,,,,,,,,,,,,,,,,,,,,,,,,,,,,,,,,,,,,,,,,,,,,,,,,,,,,,,,,,,,,,,,,,,,,,,,,,,,,,,,,,,,,,,,,,,,,,,,,,,,,499.9470000000001,,timeout,,,,healthy,,radish.png,,,,,,,,,,,,,,,radish,,,,,,,,,,,,,,,,,,,,,,,,,,,,,,,,,,,,,,,,,,,,,,,,,,,,,,,,,false,,,,,,,,,115533.88500000074,115533.503,115033.499,115036.8950000011,115050.175,115550.122,,,,
Rating,html.Form,2_4_3_1_3_1,2021-05-24T16:10:13.868Z,,,,,,,,,,,,,,,,,,,,,,,,,,,,,,,,,,,,,,,,,,,,,,,,,,,,,,,,,,,,,,,,,,,,,,,,,,,,,,,,,,,,,,,,,,,,,,,,,,,,,,,,,,,,,,,,,,,,3273.413000001354,,form submission,,,,healthy,,radish.png,,,,,,,,,,,,,,,radish,,,,,,,,,,,,,,,,,,,,,,,,,,,,,,,,,,,,,,,,,,,,,,,,,,,,,,,,,false,,,,,,,,,118823.69500000095,118823.53500000136,115533.503,115533.97000000041,115550.122,118833.504,,,,38
rating_sequence,flow.Sequence,2_4_3_1_3,2021-05-24T16:10:13.868Z,,,,,,,,,,,,,,,,,,,,,,,,,,,,,,,,,,,,,,,,,,,,,,,,,,,,,,,,,,,,,,,,,,,,,,,,,,,,,,,,,,,,,,,,,,,,,,,,,,,,,,,,,,,,,,,,,,,,3773.360000001354,,completion,,,,healthy,,radish.png,,,,,,,,,,,,,,,radish,,,,,,,,,,,,,,,,,,,,,,,,,,,,,,,,,,,,,,,,,,,,,,,,,,,,,,,,,false,,,,,,,,,118823.81499999974,118823.53500000136,115033.499,115036.87499999978,115050.175,118833.504,,,,
fixCross,canvas.Screen,2_4_3_1_4_0,2021-05-24T16:10:14.361Z,,,,,,,,,,,,,,,,,,,,,,,,,,,,,,,,,,,,,,,,,,,,,,,,,,,,,,,,,,,,,,,,,,,,,,,,,,,,,,,,,,,,,,,,,,,,,,,,,,,,,,,,,,,,,,,,,,,,500,,timeout,,,,unhealthy,,chips.png,,,,,,,,,,,,,,,potato chip,,,,,,,,,,,,,,,,,,,,,,,,,,,,,,,,,,,,,,,,,,,,,,,,,,,,,,,,,false,,,,,,,,,119317.13500000114,119316.817,118816.79,118823.89000000148,118833.504,119333.504,,,,
Rating,html.Form,2_4_3_1_4_1,2021-05-24T16:10:17.763Z,,,,,,,,,,,,,,,,,,,,,,,,,,,,,,,,,,,,,,,,,,,,,,,,,,,,,,,,,,,,,,,,,,,,,,,,,,,,,,,,,,,,,,,,,,,,,,,,,,,,,,,,,,,,,,,,,,,,3385.0960000001505,,form submission,,,,unhealthy,,chips.png,,,,,,,,,,,,,,,potato chip,,,,,,,,,,,,,,,,,,,,,,,,,,,,,,,,,,,,,,,,,,,,,,,,,,,,,,,,,false,,,,,,,,,122718.75499999987,122718.60000000015,119316.817,119317.22000000082,119333.504,122733.495,,,,34
rating_sequence,flow.Sequence,2_4_3_1_4,2021-05-24T16:10:17.763Z,,,,,,,,,,,,,,,,,,,,,,,,,,,,,,,,,,,,,,,,,,,,,,,,,,,,,,,,,,,,,,,,,,,,,,,,,,,,,,,,,,,,,,,,,,,,,,,,,,,,,,,,,,,,,,,,,,,,3885.0960000001505,,completion,,,,unhealthy,,chips.png,,,,,,,,,,,,,,,potato chip,,,,,,,,,,,,,,,,,,,,,,,,,,,,,,,,,,,,,,,,,,,,,,,,,,,,,,,,,false,,,,,,,,,122718.88000000035,122718.60000000015,118816.79,118823.8650000003,118833.504,122733.495,,,,
fixCross,canvas.Screen,2_4_3_1_5_0,2021-05-24T16:10:18.261Z,,,,,,,,,,,,,,,,,,,,,,,,,,,,,,,,,,,,,,,,,,,,,,,,,,,,,,,,,,,,,,,,,,,,,,,,,,,,,,,,,,,,,,,,,,,,,,,,,,,,,,,,,,,,,,,,,,,,500,,timeout,,,,unhealthy,,ritz.png,,,,,,,,,,,,,,,cracker,,,,,,,,,,,,,,,,,,,,,,,,,,,,,,,,,,,,,,,,,,,,,,,,,,,,,,,,,false,,,,,,,,,123217.27500000088,123216.829,122716.803,122718.96000000015,122733.495,123233.495,,,,
Rating,html.Form,2_4_3_1_5_1,2021-05-24T16:10:21.267Z,,,,,,,,,,,,,,,,,,,,,,,,,,,,,,,,,,,,,,,,,,,,,,,,,,,,,,,,,,,,,,,,,,,,,,,,,,,,,,,,,,,,,,,,,,,,,,,,,,,,,,,,,,,,,,,,,,,,2988.975000000617,,form submission,,,,unhealthy,,ritz.png,,,,,,,,,,,,,,,cracker,,,,,,,,,,,,,,,,,,,,,,,,,,,,,,,,,,,,,,,,,,,,,,,,,,,,,,,,,false,,,,,,,,,126222.61000000071,126222.47000000061,123216.829,123217.36000000055,123233.495,126233.487,,,,84
rating_sequence,flow.Sequence,2_4_3_1_5,2021-05-24T16:10:21.267Z,,,,,,,,,,,,,,,,,,,,,,,,,,,,,,,,,,,,,,,,,,,,,,,,,,,,,,,,,,,,,,,,,,,,,,,,,,,,,,,,,,,,,,,,,,,,,,,,,,,,,,,,,,,,,,,,,,,,3488.975000000617,,completion,,,,unhealthy,,ritz.png,,,,,,,,,,,,,,,cracker,,,,,,,,,,,,,,,,,,,,,,,,,,,,,,,,,,,,,,,,,,,,,,,,,,,,,,,,,false,,,,,,,,,126222.72500000145,126222.47000000061,122716.803,122718.93500000078,122733.495,126233.487,,,,
fixCross,canvas.Screen,2_4_3_1_6_0,2021-05-24T16:10:21.761Z,,,,,,,,,,,,,,,,,,,,,,,,,,,,,,,,,,,,,,,,,,,,,,,,,,,,,,,,,,,,,,,,,,,,,,,,,,,,,,,,,,,,,,,,,,,,,,,,,,,,,,,,,,,,,,,,,,,,500.00500000000466,,timeout,,,,unhealthy,,peanut_cracker.png,,,,,,,,,,,,,,,peanut chip,,,,,,,,,,,,,,,,,,,,,,,,,,,,,,,,,,,,,,,,,,,,,,,,,,,,,,,,,false,,,,,,,,,126717.22000000045,126716.817,126216.82,126222.7950000015,126233.487,126733.492,,,,
Rating,html.Form,2_4_3_1_6_1,2021-05-24T16:10:23.848Z,,,,,,,,,,,,,,,,,,,,,,,,,,,,,,,,,,,,,,,,,,,,,,,,,,,,,,,,,,,,,,,,,,,,,,,,,,,,,,,,,,,,,,,,,,,,,,,,,,,,,,,,,,,,,,,,,,,,2070.073000000164,,form submission,,,,unhealthy,,peanut_cracker.png,,,,,,,,,,,,,,,peanut chip,,,,,,,,,,,,,,,,,,,,,,,,,,,,,,,,,,,,,,,,,,,,,,,,,,,,,,,,,false,,,,,,,,,128803.69000000064,128803.56500000016,126716.817,126717.30000000025,126733.492,128816.817,,,,71
rating_sequence,flow.Sequence,2_4_3_1_6,2021-05-24T16:10:23.848Z,,,,,,,,,,,,,,,,,,,,,,,,,,,,,,,,,,,,,,,,,,,,,,,,,,,,,,,,,,,,,,,,,,,,,,,,,,,,,,,,,,,,,,,,,,,,,,,,,,,,,,,,,,,,,,,,,,,,2570.0780000001687,,completion,,,,unhealthy,,peanut_cracker.png,,,,,,,,,,,,,,,peanut chip,,,,,,,,,,,,,,,,,,,,,,,,,,,,,,,,,,,,,,,,,,,,,,,,,,,,,,,,,false,,,,,,,,,128803.8000000015,128803.56500000016,126216.82,126222.77000000031,126233.487,128816.817,,,,
fixCross,canvas.Screen,2_4_3_1_7_0,2021-05-24T16:10:24.345Z,,,,,,,,,,,,,,,,,,,,,,,,,,,,,,,,,,,,,,,,,,,,,,,,,,,,,,,,,,,,,,,,,,,,,,,,,,,,,,,,,,,,,,,,,,,,,,,,,,,,,,,,,,,,,,,,,,,,500.0030000000115,,timeout,,,,healthy,,carrot.png,,,,,,,,,,,,,,,carrot,,,,,,,,,,,,,,,,,,,,,,,,,,,,,,,,,,,,,,,,,,,,,,,,,,,,,,,,,false,,,,,,,,,129301.07500000122,129300.153,128800.146,128803.87500000143,128816.817,129316.82,,,,
Rating,html.Form,2_4_3_1_7_1,2021-05-24T16:10:26.408Z,,,,,,,,,,,,,,,,,,,,,,,,,,,,,,,,,,,,,,,,,,,,,,,,,,,,,,,,,,,,,,,,,,,,,,,,,,,,,,,,,,,,,,,,,,,,,,,,,,,,,,,,,,,,,,,,,,,,2046.8400000008987,,form submission,,,,healthy,,carrot.png,,,,,,,,,,,,,,,carrot,,,,,,,,,,,,,,,,,,,,,,,,,,,,,,,,,,,,,,,,,,,,,,,,,,,,,,,,,false,,,,,,,,,131363.79000000126,131363.6600000009,129300.153,129301.16000000089,129316.82,131366.794,,,,81
rating_sequence,flow.Sequence,2_4_3_1_7,2021-05-24T16:10:26.408Z,,,,,,,,,,,,,,,,,,,,,,,,,,,,,,,,,,,,,,,,,,,,,,,,,,,,,,,,,,,,,,,,,,,,,,,,,,,,,,,,,,,,,,,,,,,,,,,,,,,,,,,,,,,,,,,,,,,,2546.8430000009103,,completion,,,,healthy,,carrot.png,,,,,,,,,,,,,,,carrot,,,,,,,,,,,,,,,,,,,,,,,,,,,,,,,,,,,,,,,,,,,,,,,,,,,,,,,,,false,,,,,,,,,131363.90000000029,131363.6600000009,128800.146,128803.85500000011,128816.817,131366.794,,,,
fixCross,canvas.Screen,2_4_3_1_8_0,2021-05-24T16:10:26.895Z,,,,,,,,,,,,,,,,,,,,,,,,,,,,,,,,,,,,,,,,,,,,,,,,,,,,,,,,,,,,,,,,,,,,,,,,,,,,,,,,,,,,,,,,,,,,,,,,,,,,,,,,,,,,,,,,,,,,500.0219999999972,,timeout,,,,healthy,,celery.png,,,,,,,,,,,,,,,celery,,,,,,,,,,,,,,,,,,,,,,,,,,,,,,,,,,,,,,,,,,,,,,,,,,,,,,,,,false,,,,,,,,,131850.52499999985,131850.145,131350.088,131363.97000000032,131366.794,131866.816,,,,
Rating,html.Form,2_4_3_1_8_1,2021-05-24T16:10:28.897Z,,,,,,,,,,,,,,,,,,,,,,,,,,,,,,,,,,,,,,,,,,,,,,,,,,,,,,,,,,,,,,,,,,,,,,,,,,,,,,,,,,,,,,,,,,,,,,,,,,,,,,,,,,,,,,,,,,,,1985.6590000014985,,form submission,,,,healthy,,celery.png,,,,,,,,,,,,,,,celery,,,,,,,,,,,,,,,,,,,,,,,,,,,,,,,,,,,,,,,,,,,,,,,,,,,,,,,,,false,,,,,,,,,133852.6149999998,133852.4750000015,131850.145,131850.61000000132,131866.816,133866.838,,,,100
rating_sequence,flow.Sequence,2_4_3_1_8,2021-05-24T16:10:28.897Z,,,,,,,,,,,,,,,,,,,,,,,,,,,,,,,,,,,,,,,,,,,,,,,,,,,,,,,,,,,,,,,,,,,,,,,,,,,,,,,,,,,,,,,,,,,,,,,,,,,,,,,,,,,,,,,,,,,,2485.6810000014957,,completion,,,,healthy,,celery.png,,,,,,,,,,,,,,,celery,,,,,,,,,,,,,,,,,,,,,,,,,,,,,,,,,,,,,,,,,,,,,,,,,,,,,,,,,false,,,,,,,,,133852.72500000065,133852.4750000015,131350.088,131363.94500000097,131366.794,133866.838,,,,
fixCross,canvas.Screen,2_4_3_1_9_0,2021-05-24T16:10:29.395Z,,,,,,,,,,,,,,,,,,,,,,,,,,,,,,,,,,,,,,,,,,,,,,,,,,,,,,,,,,,,,,,,,,,,,,,,,,,,,,,,,,,,,,,,,,,,,,,,,,,,,,,,,,,,,,,,,,,,499.97100000001956,,timeout,,,,healthy,,edamame.png,,,,,,,,,,,,,,,edamame,,,,,,,,,,,,,,,,,,,,,,,,,,,,,,,,,,,,,,,,,,,,,,,,,,,,,,,,,false,,,,,,,,,134350.5299999997,134350.093,133850.144,133852.79000000082,133866.838,134366.809,,,,
Rating,html.Form,2_4_3_1_9_1,2021-05-24T16:10:31.368Z,,,,,,,,,,,,,,,,,,,,,,,,,,,,,,,,,,,,,,,,,,,,,,,,,,,,,,,,,,,,,,,,,,,,,,,,,,,,,,,,,,,,,,,,,,,,,,,,,,,,,,,,,,,,,,,,,,,,1956.7660000003525,,form submission,,,,healthy,,edamame.png,,,,,,,,,,,,,,,edamame,,,,,,,,,,,,,,,,,,,,,,,,,,,,,,,,,,,,,,,,,,,,,,,,,,,,,,,,,false,,,,,,,,,136323.71000000057,136323.57500000036,134350.093,134350.6150000012,134366.809,136350.071,,,,30
rating_sequence,flow.Sequence,2_4_3_1_9,2021-05-24T16:10:31.368Z,,,,,,,,,,,,,,,,,,,,,,,,,,,,,,,,,,,,,,,,,,,,,,,,,,,,,,,,,,,,,,,,,,,,,,,,,,,,,,,,,,,,,,,,,,,,,,,,,,,,,,,,,,,,,,,,,,,,2456.737000000372,,completion,,,,healthy,,edamame.png,,,,,,,,,,,,,,,edamame,,,,,,,,,,,,,,,,,,,,,,,,,,,,,,,,,,,,,,,,,,,,,,,,,,,,,,,,,false,,,,,,,,,136323.82000000143,136323.57500000036,133850.144,133852.77000000133,133866.838,136350.071,,,,
fixCross,canvas.Screen,2_4_3_1_10_0,2021-05-24T16:10:31.878Z,,,,,,,,,,,,,,,,,,,,,,,,,,,,,,,,,,,,,,,,,,,,,,,,,,,,,,,,,,,,,,,,,,,,,,,,,,,,,,,,,,,,,,,,,,,,,,,,,,,,,,,,,,,,,,,,,,,,500.012000000017,,timeout,,,,healthy,,cashew.png,,,,,,,,,,,,,,,cashew,,,,,,,,,,,,,,,,,,,,,,,,,,,,,,,,,,,,,,,,,,,,,,,,,,,,,,,,,false,,,,,,,,,136833.7900000006,136833.47,136333.486,136323.88499999978,136350.071,136850.083,,,,
Rating,html.Form,2_4_3_1_10_1,2021-05-24T16:10:35.710Z,,,,,,,,,,,,,,,,,,,,,,,,,,,,,,,,,,,,,,,,,,,,,,,,,,,,,,,,,,,,,,,,,,,,,,,,,,,,,,,,,,,,,,,,,,,,,,,,,,,,,,,,,,,,,,,,,,,,3815.4270000006945,,form submission,,,,healthy,,cashew.png,,,,,,,,,,,,,,,cashew,,,,,,,,,,,,,,,,,,,,,,,,,,,,,,,,,,,,,,,,,,,,,,,,,,,,,,,,,false,,,,,,,,,140665.64500000095,140665.5100000007,136833.47,136833.87500000026,136850.083,140666.743,,,,0
rating_sequence,flow.Sequence,2_4_3_1_10,2021-05-24T16:10:35.710Z,,,,,,,,,,,,,,,,,,,,,,,,,,,,,,,,,,,,,,,,,,,,,,,,,,,,,,,,,,,,,,,,,,,,,,,,,,,,,,,,,,,,,,,,,,,,,,,,,,,,,,,,,,,,,,,,,,,,4315.4390000007115,,completion,,,,healthy,,cashew.png,,,,,,,,,,,,,,,cashew,,,,,,,,,,,,,,,,,,,,,,,,,,,,,,,,,,,,,,,,,,,,,,,,,,,,,,,,,false,,,,,,,,,140665.755,140665.5100000007,136333.486,136323.86500000028,136350.071,140666.743,,,,
fixCross,canvas.Screen,2_4_3_1_11_0,2021-05-24T16:10:36.195Z,,,,,,,,,,,,,,,,,,,,,,,,,,,,,,,,,,,,,,,,,,,,,,,,,,,,,,,,,,,,,,,,,,,,,,,,,,,,,,,,,,,,,,,,,,,,,,,,,,,,,,,,,,,,,,,,,,,,500.0560000000114,,timeout,,,,unhealthy,,frie.png,,,,,,,,,,,,,,,frie,,,,,,,,,,,,,,,,,,,,,,,,,,,,,,,,,,,,,,,,,,,,,,,,,,,,,,,,,false,,,,,,,,,141150.4650000006,141150.078,140650.126,140665.82500000004,140666.743,141166.799,,,,
Rating,html.Form,2_4_3_1_11_1,2021-05-24T16:10:38.969Z,,,,,,,,,,,,,,,,,,,,,,,,,,,,,,,,,,,,,,,,,,,,,,,,,,,,,,,,,,,,,,,,,,,,,,,,,,,,,,,,,,,,,,,,,,,,,,,,,,,,,,,,,,,,,,,,,,,,2757.8159999999043,,form submission,,,,unhealthy,,frie.png,,,,,,,,,,,,,,,frie,,,,,,,,,,,,,,,,,,,,,,,,,,,,,,,,,,,,,,,,,,,,,,,,,,,,,,,,,false,,,,,,,,,143924.7750000013,143924.6149999999,141150.078,141150.55000000028,141166.799,143933.374,,,,82
rating_sequence,flow.Sequence,2_4_3_1_11,2021-05-24T16:10:38.969Z,,,,,,,,,,,,,,,,,,,,,,,,,,,,,,,,,,,,,,,,,,,,,,,,,,,,,,,,,,,,,,,,,,,,,,,,,,,,,,,,,,,,,,,,,,,,,,,,,,,,,,,,,,,,,,,,,,,,3257.8719999999157,,completion,,,,unhealthy,,frie.png,,,,,,,,,,,,,,,frie,,,,,,,,,,,,,,,,,,,,,,,,,,,,,,,,,,,,,,,,,,,,,,,,,,,,,,,,,false,,,,,,,,,143924.88000000047,143924.6149999999,140650.126,140665.80500000055,140666.743,143933.374,,,,
fixCross,canvas.Screen,2_4_3_1_12_0,2021-05-24T16:10:39.461Z,,,,,,,,,,,,,,,,,,,,,,,,,,,,,,,,,,,,,,,,,,,,,,,,,,,,,,,,,,,,,,,,,,,,,,,,,,,,,,,,,,,,,,,,,,,,,,,,,,,,,,,,,,,,,,,,,,,,500.08599999998114,,timeout,,,,healthy,,tomato.png,,,,,,,,,,,,,,,cherry tomato,,,,,,,,,,,,,,,,,,,,,,,,,,,,,,,,,,,,,,,,,,,,,,,,,,,,,,,,,false,,,,,,,,,144417.10500000045,144416.793,143916.796,143924.95000000054,143933.374,144433.46,,,,
Rating,html.Form,2_4_3_1_12_1,2021-05-24T16:10:41.189Z,,,,,,,,,,,,,,,,,,,,,,,,,,,,,,,,,,,,,,,,,,,,,,,,,,,,,,,,,,,,,,,,,,,,,,,,,,,,,,,,,,,,,,,,,,,,,,,,,,,,,,,,,,,,,,,,,,,,1711.030000000581,,form submission,,,,healthy,,tomato.png,,,,,,,,,,,,,,,cherry tomato,,,,,,,,,,,,,,,,,,,,,,,,,,,,,,,,,,,,,,,,,,,,,,,,,,,,,,,,,false,,,,,,,,,146144.62500000081,146144.49000000057,144416.793,144417.19000000012,144433.46,146166.795,,,,70
rating_sequence,flow.Sequence,2_4_3_1_12,2021-05-24T16:10:41.189Z,,,,,,,,,,,,,,,,,,,,,,,,,,,,,,,,,,,,,,,,,,,,,,,,,,,,,,,,,,,,,,,,,,,,,,,,,,,,,,,,,,,,,,,,,,,,,,,,,,,,,,,,,,,,,,,,,,,,2211.116000000562,,completion,,,,healthy,,tomato.png,,,,,,,,,,,,,,,cherry tomato,,,,,,,,,,,,,,,,,,,,,,,,,,,,,,,,,,,,,,,,,,,,,,,,,,,,,,,,,false,,,,,,,,,146144.72999999998,146144.49000000057,143916.796,143924.92500000115,143933.374,146166.795,,,,
fixCross,canvas.Screen,2_4_3_1_13_0,2021-05-24T16:10:41.694Z,,,,,,,,,,,,,,,,,,,,,,,,,,,,,,,,,,,,,,,,,,,,,,,,,,,,,,,,,,,,,,,,,,,,,,,,,,,,,,,,,,,,,,,,,,,,,,,,,,,,,,,,,,,,,,,,,,,,500.0019999999786,,timeout,,,,unhealthy,,dried_meat.png,,,,,,,,,,,,,,,dried meat,,,,,,,,,,,,,,,,,,,,,,,,,,,,,,,,,,,,,,,,,,,,,,,,,,,,,,,,,false,,,,,,,,,146650.4650000006,146650.08,146150.108,146144.79500000016,146166.795,146666.797,,,,
Rating,html.Form,2_4_3_1_13_1,2021-05-24T16:10:43.407Z,,,,,,,,,,,,,,,,,,,,,,,,,,,,,,,,,,,,,,,,,,,,,,,,,,,,,,,,,,,,,,,,,,,,,,,,,,,,,,,,,,,,,,,,,,,,,,,,,,,,,,,,,,,,,,,,,,,,1695.7080000009737,,form submission,,,,unhealthy,,dried_meat.png,,,,,,,,,,,,,,,dried meat,,,,,,,,,,,,,,,,,,,,,,,,,,,,,,,,,,,,,,,,,,,,,,,,,,,,,,,,,false,,,,,,,,,148362.63500000132,148362.50500000097,146650.08,146650.54500000042,146666.797,148383.453,,,,80
rating_sequence,flow.Sequence,2_4_3_1_13,2021-05-24T16:10:43.407Z,,,,,,,,,,,,,,,,,,,,,,,,,,,,,,,,,,,,,,,,,,,,,,,,,,,,,,,,,,,,,,,,,,,,,,,,,,,,,,,,,,,,,,,,,,,,,,,,,,,,,,,,,,,,,,,,,,,,2195.7100000009523,,completion,,,,unhealthy,,dried_meat.png,,,,,,,,,,,,,,,dried meat,,,,,,,,,,,,,,,,,,,,,,,,,,,,,,,,,,,,,,,,,,,,,,,,,,,,,,,,,false,,,,,,,,,148362.75000000023,148362.50500000097,146150.108,146144.78000000055,146166.795,148383.453,,,,
fixCross,canvas.Screen,2_4_3_1_14_0,2021-05-24T16:10:43.911Z,,,,,,,,,,,,,,,,,,,,,,,,,,,,,,,,,,,,,,,,,,,,,,,,,,,,,,,,,,,,,,,,,,,,,,,,,,,,,,,,,,,,,,,,,,,,,,,,,,,,,,,,,,,,,,,,,,,,500.0009999999893,,timeout,,,,healthy,,cucumber.png,,,,,,,,,,,,,,,cucumber,,,,,,,,,,,,,,,,,,,,,,,,,,,,,,,,,,,,,,,,,,,,,,,,,,,,,,,,,false,,,,,,,,,148867.1549999999,148866.787,148366.797,148362.8349999999,148383.453,148883.454,,,,
Rating,html.Form,2_4_3_1_14_1,2021-05-24T16:10:47.954Z,,,,,,,,,,,,,,,,,,,,,,,,,,,,,,,,,,,,,,,,,,,,,,,,,,,,,,,,,,,,,,,,,,,,,,,,,,,,,,,,,,,,,,,,,,,,,,,,,,,,,,,,,,,,,,,,,,,,4026.126000001357,,form submission,,,,healthy,,cucumber.png,,,,,,,,,,,,,,,cucumber,,,,,,,,,,,,,,,,,,,,,,,,,,,,,,,,,,,,,,,,,,,,,,,,,,,,,,,,,false,,,,,,,,,152909.70000000016,152909.58000000136,148866.787,148867.2349999997,148883.454,152916.786,,,,91
rating_sequence,flow.Sequence,2_4_3_1_14,2021-05-24T16:10:47.954Z,,,,,,,,,,,,,,,,,,,,,,,,,,,,,,,,,,,,,,,,,,,,,,,,,,,,,,,,,,,,,,,,,,,,,,,,,,,,,,,,,,,,,,,,,,,,,,,,,,,,,,,,,,,,,,,,,,,,4526.1270000013465,,completion,,,,healthy,,cucumber.png,,,,,,,,,,,,,,,cucumber,,,,,,,,,,,,,,,,,,,,,,,,,,,,,,,,,,,,,,,,,,,,,,,,,,,,,,,,,false,,,,,,,,,152909.81000000102,152909.58000000136,148366.797,148362.79000000103,148383.453,152916.786,,,,
fixCross,canvas.Screen,2_4_3_1_15_0,2021-05-24T16:10:48.444Z,,,,,,,,,,,,,,,,,,,,,,,,,,,,,,,,,,,,,,,,,,,,,,,,,,,,,,,,,,,,,,,,,,,,,,,,,,,,,,,,,,,,,,,,,,,,,,,,,,,,,,,,,,,,,,,,,,,,499.99199999999837,,timeout,,,,healthy,,pickle.png,,,,,,,,,,,,,,,pickle,,,,,,,,,,,,,,,,,,,,,,,,,,,,,,,,,,,,,,,,,,,,,,,,,,,,,,,,,false,,,,,,,,,153400.41500000007,153400.055,152900.105,152909.8750000012,152916.786,153416.778,,,,
Rating,html.Form,2_4_3_1_15_1,2021-05-24T16:10:51.057Z,,,,,,,,,,,,,,,,,,,,,,,,,,,,,,,,,,,,,,,,,,,,,,,,,,,,,,,,,,,,,,,,,,,,,,,,,,,,,,,,,,,,,,,,,,,,,,,,,,,,,,,,,,,,,,,,,,,,2595.7470000000903,,form submission,,,,healthy,,pickle.png,,,,,,,,,,,,,,,pickle,,,,,,,,,,,,,,,,,,,,,,,,,,,,,,,,,,,,,,,,,,,,,,,,,,,,,,,,,false,,,,,,,,,156012.66000000032,156012.52500000008,153400.055,153400.49999999974,153416.778,156033.444,,,,100
rating_sequence,flow.Sequence,2_4_3_1_15,2021-05-24T16:10:51.057Z,,,,,,,,,,,,,,,,,,,,,,,,,,,,,,,,,,,,,,,,,,,,,,,,,,,,,,,,,,,,,,,,,,,,,,,,,,,,,,,,,,,,,,,,,,,,,,,,,,,,,,,,,,,,,,,,,,,,3095.7390000000887,,completion,,,,healthy,,pickle.png,,,,,,,,,,,,,,,pickle,,,,,,,,,,,,,,,,,,,,,,,,,,,,,,,,,,,,,,,,,,,,,,,,,,,,,,,,,false,,,,,,,,,156012.76000000144,156012.52500000008,152900.105,152909.85999999975,152916.786,156033.444,,,,
fixCross,canvas.Screen,2_4_3_1_16_0,2021-05-24T16:10:51.561Z,,,,,,,,,,,,,,,,,,,,,,,,,,,,,,,,,,,,,,,,,,,,,,,,,,,,,,,,,,,,,,,,,,,,,,,,,,,,,,,,,,,,,,,,,,,,,,,,,,,,,,,,,,,,,,,,,,,,500.04200000001583,,timeout,,,,healthy,,walnut.png,,,,,,,,,,,,,,,walnut,,,,,,,,,,,,,,,,,,,,,,,,,,,,,,,,,,,,,,,,,,,,,,,,,,,,,,,,,false,,,,,,,,,156517.1449999998,156516.775,156016.696,156012.83000000147,156033.444,156533.486,,,,
Rating,html.Form,2_4_3_1_16_1,2021-05-24T16:10:53.565Z,,,,,,,,,,,,,,,,,,,,,,,,,,,,,,,,,,,,,,,,,,,,,,,,,,,,,,,,,,,,,,,,,,,,,,,,,,,,,,,,,,,,,,,,,,,,,,,,,,,,,,,,,,,,,,,,,,,,1986.9440000004834,,form submission,,,,healthy,,walnut.png,,,,,,,,,,,,,,,walnut,,,,,,,,,,,,,,,,,,,,,,,,,,,,,,,,,,,,,,,,,,,,,,,,,,,,,,,,,false,,,,,,,,,158520.55500000098,158520.4300000005,156516.775,156517.22500000143,156533.486,158533.439,,,,100
rating_sequence,flow.Sequence,2_4_3_1_16,2021-05-24T16:10:53.565Z,,,,,,,,,,,,,,,,,,,,,,,,,,,,,,,,,,,,,,,,,,,,,,,,,,,,,,,,,,,,,,,,,,,,,,,,,,,,,,,,,,,,,,,,,,,,,,,,,,,,,,,,,,,,,,,,,,,,2486.986000000499,,completion,,,,healthy,,walnut.png,,,,,,,,,,,,,,,walnut,,,,,,,,,,,,,,,,,,,,,,,,,,,,,,,,,,,,,,,,,,,,,,,,,,,,,,,,,false,,,,,,,,,158520.665,158520.4300000005,156016.696,156012.81000000017,156033.444,158533.439,,,,
fixCross,canvas.Screen,2_4_3_1_17_0,2021-05-24T16:10:54.061Z,,,,,,,,,,,,,,,,,,,,,,,,,,,,,,,,,,,,,,,,,,,,,,,,,,,,,,,,,,,,,,,,,,,,,,,,,,,,,,,,,,,,,,,,,,,,,,,,,,,,,,,,,,,,,,,,,,,,500.0109999999986,,timeout,,,,unhealthy,,sausage.png,,,,,,,,,,,,,,,salami,,,,,,,,,,,,,,,,,,,,,,,,,,,,,,,,,,,,,,,,,,,,,,,,,,,,,,,,,false,,,,,,,,,159017.17500000086,159016.766,158516.768,158520.73000000019,158533.439,159033.45,,,,
Rating,html.Form,2_4_3_1_17_1,2021-05-24T16:10:56.138Z,,,,,,,,,,,,,,,,,,,,,,,,,,,,,,,,,,,,,,,,,,,,,,,,,,,,,,,,,,,,,,,,,,,,,,,,,,,,,,,,,,,,,,,,,,,,,,,,,,,,,,,,,,,,,,,,,,,,2059.9449999998615,,form submission,,,,unhealthy,,sausage.png,,,,,,,,,,,,,,,salami,,,,,,,,,,,,,,,,,,,,,,,,,,,,,,,,,,,,,,,,,,,,,,,,,,,,,,,,,false,,,,,,,,,161093.53499999997,161093.39499999987,159016.766,159017.26000000053,159033.45,161116.714,,,,66
rating_sequence,flow.Sequence,2_4_3_1_17,2021-05-24T16:10:56.138Z,,,,,,,,,,,,,,,,,,,,,,,,,,,,,,,,,,,,,,,,,,,,,,,,,,,,,,,,,,,,,,,,,,,,,,,,,,,,,,,,,,,,,,,,,,,,,,,,,,,,,,,,,,,,,,,,,,,,2559.95599999986,,completion,,,,unhealthy,,sausage.png,,,,,,,,,,,,,,,salami,,,,,,,,,,,,,,,,,,,,,,,,,,,,,,,,,,,,,,,,,,,,,,,,,,,,,,,,,false,,,,,,,,,161093.64000000095,161093.39499999987,158516.768,158520.7100000007,158533.439,161116.714,,,,
rating_loop,flow.Loop,2_4_3_1,2021-05-24T16:10:56.138Z,,,,,,,,,,,,,,,,,,,,,,,,,,,,,,,,,,,,,,,,,,,,,,,,,,,,,,,,,,,,,,,,,,,,,,,,,,,,,,,,,,,,,,,,,,,,,,,,,,,,,,,,,,,,,,,,,,,,58626.58599999988,,completion,,,,,,,,,,,,,,,,,,,,,,,,,,,,,,,,,,,,,,,,,,,,,,,,,,,,,,,,,,,,,,,,,,,,,,,,,,,,,,false,,,,,,,,,161093.7300000005,161093.39499999987,102449.968,102466.43500000027,102466.809,161116.714,,,,
data_transmission,html.Screen,2_4_3_2,2021-05-24T16:10:56.143Z,,,,,,,,,,,,,,,,,,,,,,,,,,,,,,,,,,,,,,,,,,,,,,,,,,,,,,,,,,,,,,,,,,,,,,,,,,,,,,,,,,,,,,,,,,,,,,,,,,,,,,,,,,,,,,,,,,,,NaN,,no compatible backend,,,,,,,,,,,,,,,Transferring data,,,,,,,,,,,,,,,,,,,,,,,,,,,,,,,,,,,,,,,,,,,,,,,,,,,,,,,,,,,,,,,false,,,Please wait a second…,,,,,,161099.10500000115,161098.98000000068,,161093.7750000012,,161116.714,,,,
instructions,html.Screen,2_4_3_3,2021-05-24T16:12:15.240Z,,,,,,,,,,,,,,,,,,,,,,,,,,,,,,,,,,,,,,,,,,,,,,,,,,,,,,,,,,,,,,,,,,,,,,,,,,,,,,,,,,,,,,,,,,,,,,,,,,,,,,,,,,,,,,,,,,,,79079.83600000056,,done,,,,,,,,,,,,,,,,,,,,,,,,,,,,,,,,,,,,,,,,,,,,,,,,,,,,,,,,,,,,,,,,,,,,,,,,,,,,,,false,,,,,,,,,240196.64999999985,240196.55000000057,161100.059,161099.18000000107,161116.714,240199.928,,,,
Q1,html.Screen,2_4_3_4_0,2021-05-24T16:12:25.281Z,,,,,,,,,,,,,,,,,,,,,,,,,,,,,,,,,,,,,,,,,,,,,,,,,,,,,,,,,,,,,,,,,,,,,,,,,,,,,,,,,,,,,,,,,,,,,,,,,,,,,,,,,,,,,,,,false,input_Q1==3,,,10036.152000000584,,response,,,,,,,,,,,,,,,,,,,,,,,,,Q1_i2,Q1_i4,Q1_i1,Q1_i3,2,4,1,3,false,false,false,correct,,,,,,,,,,,,,,,,,,,,,,,,,,,,,,,,,,,,,,,,,click #Q1_i3,false,,,,,,,,,250237.63500000132,250236.0800000006,240182.875,240196.7300000015,240199.928,250249.866,,,,
Q1_correct,html.Screen,2_4_3_4_1,2021-05-24T16:12:27.108Z,,,,,,,,,,,,,,,,,,,,,,,,,,,,,,,,,,,,,,,,,,,,,,,,,,,,,,,,,,,,,,,,,,,,,,,,,,,,,,,,,,,,,,,,,,,,,,,,,,,,,,,,,,,,,,,,,,,,1814.5490000007267,,response,,,,,,,,,,,,,,,,,,,,,,,,,,,,,,,,,,,,,,,,,,,,,,,,,,,,,,,,,,,,,,,,,,,,,,,,,,,,,keypress,false,,,,,,,,,252064.79500000022,252064.41500000074,250233.294,250237.73000000074,250249.866,252066.543,,,,
Q2,html.Screen,2_4_3_4_2,2021-05-24T16:12:32.022Z,,,,,,,,,,,,,,,,,,,,,,,,,,,,,,,,,,,,,,,,,,,,,,,,,,,,,,,,,,,,,,,,,,,,,,,,,,,,,,,,,,,,,,,,,,,,,,,,,,,,,,,,,,,,,,,,,,,,4911.627000000328,,response,,,,,,,,,,,,,,,,,,,,,,,,,,,,,,,,,,,,,Q2_i2,Q2_i3,Q2_i1,Option 2,Same amount,Option 1,opt2,same,correct,,,,,,,,,,,,,,,,,,,,,,,,,,,,,,,,click #Q2_i1,false,,,,,,,,,256978.65000000093,256978.17000000033,252049.925,252064.8600000004,252066.543,256983.233,,,,
Q2_correct,html.Screen,2_4_3_4_3,2021-05-24T16:12:33.116Z,,,,,,,,,,,,,,,,,,,,,,,,,,,,,,,,,,,,,,,,,,,,,,,,,,,,,,,,,,,,,,,,,,,,,,,,,,,,,,,,,,,,,,,,,,,,,,,,,,,,,,,,,,,,,,,,,,,,1089.0270000008168,,response,,,,,,,,,,,,,,,,,,,,,,,,,,,,,,,,,,,,,,,,,,,,,,,,,,,,,,,,,,,,,,,,,,,,,,,,,,,,,keypress,false,,,,,,,,,258072.59500000146,258072.26000000082,256966.609,256978.76499999984,256983.233,258083.215,,,,
Q4,html.Screen,2_4_3_4_4,2021-05-24T16:12:42.934Z,,,,,,,,,,,,,,,,,,,,,,,,,,,,,,,,,,,,,,,,,,,,,,,,,,,,,,,,,,,,,,,,,,,,,,,,,,,,,,,,,,,,,,,,,,,,,,,,,,,,,,,,,,,,,,,,,,,,9806.990000001533,,response,,,,,,,,,,,,,,,,,,,,,,,,,,,,,,,,,,,,,,,,,,,,,,Q4_i1,Q4_i4,Q4_i2,Q4_i3,Press the arrow key that corresponds with the snack option I prefer,Press the space key,Indicate the number of food items in each snack option,Press the arrow key that corresponds with the snack option with more food items,correct,pressspace,indicate,morefood,,,,,,,,,,,,,,,,,,,,click #Q4_i1,false,,,,,,,,,267890.69999999995,267890.20500000153,258066.595,258072.71500000026,258083.215,267899.932,,,,
Q4_correct,html.Screen,2_4_3_4_5,2021-05-24T16:12:43.620Z,,,,,,,,,,,,,,,,,,,,,,,,,,,,,,,,,,,,,,,,,,,,,,,,,,,,,,,,,,,,,,,,,,,,,,,,,,,,,,,,,,,,,,,,,,,,,,,,,,,,,,,,,,,,,,,,,,,,676.3130000002566,,response,,,,,,,,,,,,,,,,,,,,,,,,,,,,,,,,,,,,,,,,,,,,,,,,,,,,,,,,,,,,,,,,,,,,,,,,,,,,,keypress,false,,,,,,,,,268576.6050000002,268576.2450000002,267883.252,267890.8050000009,267899.932,268583.233,,,,
Q5,html.Screen,2_4_3_4_6,2021-05-24T16:12:48.283Z,,,,,,,,,,,,,,,,,,,,,,,,,,,,,,,,,,,,,,,,,,,,,,,,,,,,,,,,,,,,,,,,,,,,,,,,,,,,,,,,,,,,,,,,,,,,,,,,,,,,,,,,,,,,,,,,,,,,4655.901999999769,,response,,,,,,,,,,,,,,,,,,,,,,,,,,,,,,,,,,,,,,,,,,,,,,,,,,,,,,,,,,Q5_i3,Q5_i4,Q5_i1,Q5_i2,There are more slices of kiwi in snack Option 1,Snack Option 1 has been chosen,Snack Option 2 has been chosen,There are more pieces of chocolate in snack Option 2,morekiwi1,chose1,correct,morechoc2,,,,,,,,click #Q5_i1,false,,,,,,,,,273239.5550000001,273239.1349999998,268566.587,268576.6949999997,268583.233,273249.844,,,,
Q5_correct,html.Screen,2_4_3_4_7,2021-05-24T16:12:49.396Z,,,,,,,,,,,,,,,,,,,,,,,,,,,,,,,,,,,,,,,,,,,,,,,,,,,,,,,,,,,,,,,,,,,,,,,,,,,,,,,,,,,,,,,,,,,,,,,,,,,,,,,,,,,,,,,,,,,,1102.4960000012652,,response,,,,,,,,,,,,,,,,,,,,,,,,,,,,,,,,,,,,,,,,,,,,,,,,,,,,,,,,,,,,,,,,,,,,,,,,,,,,,keypress,false,,,,,,,,,274352.82000000007,274352.34000000125,273233.243,273239.6450000015,273249.844,274366.582,,,,
practice_sequence,flow.Sequence,2_4_3_4,2021-05-24T16:12:49.396Z,,,,,,,,,,,,,,,,,,,,,,,,,,,,,,,,,,,,,,,,,,,,,,,,,,,,,,,,,,,,,,,,,,,,,,,,,,,,,,,,,,,,,,,,,,,,,,,,,,,,,,,,,,,,,,,,,,,,34152.41200000123,,completion,,,,,,,,,,,,,,,,,,,,,,,,,,,,,,,,,,,,,,,,,,,,,,,,,,,,,,,,,,,,,,,,,,,,,,,,,,,,,,false,,,,,,,,,274352.9550000003,274352.34000000125,240182.875,240196.71500000003,240199.928,274366.582,,,,
final_instru,html.Screen,2_4_3_5,2021-05-24T16:13:19.128Z,,,,,,,,,,,,,,,,,,,,,,,,,,,,,,,,,,,,,,,,,,,,,,,,,,,,,,,,,,,,,,,,,,,,,,,,,,,,,,,,,,,,,,,,,,,,,,,,,,,,,,,,,,,,,,,,,,,,29717.758000001253,,done,,,,,,,,,,,,,,,,,,,,,,,,,,,,,,,,,,,,,,,,,,,,,,,,,,,,,,,,,,,,,,,,,,,,,,,,,,,,,,false,,,,,,,,,304084.4500000003,304084.34000000125,274349.887,274353.000000001,274366.582,304099.864,,,,
blank_screen,canvas.Screen,2_4_3_6_0,2021-05-24T16:13:21.127Z,,,,,,,,,,,,,,,,,,,,,,,,,,,,,,,,,,,,,,,,,,,,,,,,,,,,,,,,,,,,,,,,,,,,,,,,,,,,,,,,,,,,,,,,,,,,,,,,,,,,,,,,,,,,,,,,,,,,1999.9340000000084,,timeout,,,,,,,,,,,,,,,,,,,,,,,,,,,,,,,,,,,,,,,,,,,,,,,,,,,,,,,,,,,,,,,,,,,,,,,,,,,,,,false,,,,,,,,,306083.45499999996,306083.188,304082.808,304084.5300000001,304099.864,306099.798,,,,
fixCross,canvas.Screen,2_4_3_6_1_0_0_0_0_0_0,2021-05-24T16:13:21.777Z,,,blank.png,"[""nacho.png""]",blank.png,blank.png,blank.png,blank.png,blank.png,blank.png,blank.png,blank.png,blank.png,blank.png,blank.png,,,,,,,,,,,,,,,,,,,,,,,,,,,,,"[""nacho.png""]","[""celery.png""]",PB16.png,,,,,,,,,,,0,6,"[""celery.png""]","[""celery.png""]","[""celery.png""]","[""celery.png""]","[""celery.png""]","[""celery.png""]",blank.png,PB18.png,PB18.png,"[""celery.png""]","[""celery.png""]","[""celery.png""]","[""celery.png""]","[""celery.png""]",blank.png,"[""celery.png""]","[""celery.png""]","[""celery.png""]","[""celery.png""]","[""celery.png""]","[""celery.png""]",1,"[""nacho.png""]",blank.png,blank.png,blank.png,5,"[""celery.png""]","[""celery.png""]","[""celery.png""]","[""celery.png""]","[""celery.png""]",blank.png,PB16.png,,,,,,,,,,,1,,,,,,,,,,,,,1083.408999999985,,timeout,,,,,,,,,,,,,3,,,,,,,,,,,,,,,,,,,,,,,,,,,,,,,,,,,,,,,,,,,,,,,,,,,,,,,,,"[""celery.png""]","[""nacho.png""]",,,,4,,,false,,1,,,,,,,306733.56500000047,306733.186,306083.188,306106.60000000097,306099.798,307183.207,1,,,
timeout,canvas.Screen,2_4_3_6_1_0_0_0_0_0_1,2021-05-24T16:13:22.711Z,,,blank.png,"[""nacho.png""]",blank.png,blank.png,blank.png,blank.png,blank.png,blank.png,blank.png,blank.png,blank.png,blank.png,blank.png,,,,,,,,,,,,,,,,,,,,,,,,,,,,,"[""nacho.png""]","[""celery.png""]",PB16.png,,,,,,,,,,,0,6,"[""celery.png""]","[""celery.png""]","[""celery.png""]","[""celery.png""]","[""celery.png""]","[""celery.png""]",blank.png,PB18.png,PB18.png,"[""celery.png""]","[""celery.png""]","[""celery.png""]","[""celery.png""]","[""celery.png""]",blank.png,"[""celery.png""]","[""celery.png""]","[""celery.png""]","[""celery.png""]","[""celery.png""]","[""celery.png""]",1,"[""nacho.png""]",blank.png,blank.png,blank.png,5,"[""celery.png""]","[""celery.png""]","[""celery.png""]","[""celery.png""]","[""celery.png""]",blank.png,PB16.png,,,,,,,,,,,1,,,,,,,,,,,,,816.6300000000047,,timeout,,,,,,,,,,,,,3,,,,,,,,,,,,,,,,,,,,,,,,,,,,,,,,,,,,,,,,,,,,,,,,,,,,,,,,,"[""celery.png""]","[""nacho.png""]",,,,4,,,false,,1,,,,,,,307666.8950000003,307666.526,306733.186,307237.97000000015,307183.207,307999.837,,,,
choice,canvas.Screen,2_4_3_6_1_0_0_0_0_0_2,2021-05-24T16:13:24.477Z,,,blank.png,"[""nacho.png""]",blank.png,blank.png,blank.png,blank.png,blank.png,blank.png,blank.png,blank.png,blank.png,blank.png,blank.png,,,,,,,,,,,,,,,,,,,,,,,,,,,,,"[""nacho.png""]","[""celery.png""]",PB16.png,,,,,,,,,,,0,6,"[""celery.png""]","[""celery.png""]","[""celery.png""]","[""celery.png""]","[""celery.png""]","[""celery.png""]",blank.png,PB18.png,PB18.png,"[""celery.png""]","[""celery.png""]","[""celery.png""]","[""celery.png""]","[""celery.png""]",blank.png,"[""celery.png""]","[""celery.png""]","[""celery.png""]","[""celery.png""]","[""celery.png""]","[""celery.png""]",1,"[""nacho.png""]",blank.png,blank.png,blank.png,5,"[""celery.png""]","[""celery.png""]","[""celery.png""]","[""celery.png""]","[""celery.png""]",blank.png,PB16.png,,,,,,,,,,,1,,,,,,,,,,,,,1432.4730000001728,,response,,,,,,,,,,,,,3,,,,,,,,,,,,,,,,,,,,,,,,,,,,,,,,,,,,,,,,,,,,,,,,,,,,,,,,,"[""celery.png""]","[""nacho.png""]",,,,4,left,keydown(ArrowLeft),false,,1,,,,,,,309432.9550000002,309432.3100000002,307666.526,308002.6300000009,307999.837,309749.823,,1,,
square,canvas.Screen,2_4_3_6_1_0_0_0_0_0_3,2021-05-24T16:13:25.777Z,,,blank.png,"[""nacho.png""]",blank.png,blank.png,blank.png,blank.png,blank.png,blank.png,blank.png,blank.png,blank.png,blank.png,blank.png,,,,,,,,,,,,,,,,,,,,,,,,,,,,,"[""nacho.png""]","[""celery.png""]",PB16.png,,,,,,,,,,,0,6,"[""celery.png""]","[""celery.png""]","[""celery.png""]","[""celery.png""]","[""celery.png""]","[""celery.png""]",blank.png,PB18.png,PB18.png,"[""celery.png""]","[""celery.png""]","[""celery.png""]","[""celery.png""]","[""celery.png""]",blank.png,"[""celery.png""]","[""celery.png""]","[""celery.png""]","[""celery.png""]","[""celery.png""]","[""celery.png""]",1,"[""nacho.png""]",blank.png,blank.png,blank.png,5,"[""celery.png""]","[""celery.png""]","[""celery.png""]","[""celery.png""]","[""celery.png""]",blank.png,PB16.png,,,,,,,,,,,1,,,#33ff3f,#808080,,,,,,,,,1000.0270000000019,,timeout,,,,,,,,,,,,,3,,,,,,,,,,,,,,,,,,,,,,,,,,,,,,,,,,,,,,,,,,,,,,,,,,,,,,,,,"[""celery.png""]","[""nacho.png""]",,,,4,,,false,,1,,,,,black,white,310733.65999999986,310733.188,309733.116,309734.6100000013,309749.823,310749.85,,,,
ITI_late,canvas.Screen,2_4_3_6_1_0_0_0_0_0_4,2021-05-24T16:13:26.277Z,,,blank.png,"[""nacho.png""]",blank.png,blank.png,blank.png,blank.png,blank.png,blank.png,blank.png,blank.png,blank.png,blank.png,blank.png,,,,,,,,,,,,,,,,,,,,,,,,,,,,,"[""nacho.png""]","[""celery.png""]",PB16.png,,,,,,,,,,,0,6,"[""celery.png""]","[""celery.png""]","[""celery.png""]","[""celery.png""]","[""celery.png""]","[""celery.png""]",blank.png,PB18.png,PB18.png,"[""celery.png""]","[""celery.png""]","[""celery.png""]","[""celery.png""]","[""celery.png""]",blank.png,"[""celery.png""]","[""celery.png""]","[""celery.png""]","[""celery.png""]","[""celery.png""]","[""celery.png""]",1,"[""nacho.png""]",blank.png,blank.png,blank.png,5,"[""celery.png""]","[""celery.png""]","[""celery.png""]","[""celery.png""]","[""celery.png""]",blank.png,PB16.png,,,,,,,,,,,1,,,,,,,,,,,,,500.00400000001537,,timeout,,,,,,,,,,,,white,3,,,,,,,,,,,,,,,,,,,,,,,,,,,,,,,,,,,,,,,,,,,,,,,,,,,,,,,,,"[""celery.png""]","[""nacho.png""]",,,,4,,,false,,1,,,,,,,311233.5950000015,311233.182,310733.188,310734.6699999998,310749.85,311249.854,,,,
choice_sequence,flow.Sequence,2_4_3_6_1_0_0_0_0_0,2021-05-24T16:13:26.278Z,,,blank.png,"[""nacho.png""]",blank.png,blank.png,blank.png,blank.png,blank.png,blank.png,blank.png,blank.png,blank.png,blank.png,blank.png,,,,,,,,,,,,,,,,,,,,,,,,,,,,,"[""nacho.png""]","[""celery.png""]",PB16.png,,,,,,,,,,,0,6,"[""celery.png""]","[""celery.png""]","[""celery.png""]","[""celery.png""]","[""celery.png""]","[""celery.png""]",blank.png,PB18.png,PB18.png,"[""celery.png""]","[""celery.png""]","[""celery.png""]","[""celery.png""]","[""celery.png""]",blank.png,"[""celery.png""]","[""celery.png""]","[""celery.png""]","[""celery.png""]","[""celery.png""]","[""celery.png""]",1,"[""nacho.png""]",blank.png,blank.png,blank.png,5,"[""celery.png""]","[""celery.png""]","[""celery.png""]","[""celery.png""]","[""celery.png""]",blank.png,PB16.png,,,,,,,,,,,1,,,,,,,,,,,,,5133.383999999962,,completion,,,,,,,,,,,,,3,,,,,,,,,,,,,,,,,,,,,,,,,,,,,,,,,,,,,,,,,,,,,,,,,,,,,,,,,"[""celery.png""]","[""nacho.png""]",,,,4,,,false,,1,,,,,,,311233.88500000146,311233.182,306083.188,306105.6750000007,306099.798,311249.854,,,,
fixCross,canvas.Screen,2_4_3_6_1_0_0_0_0_1_0,2021-05-24T16:13:26.977Z,,,blank.png,blank.png,blank.png,blank.png,blank.png,blank.png,blank.png,"[""nacho.png""]",blank.png,blank.png,blank.png,blank.png,blank.png,,,,,,,,,,,,,,,,,,,,,,,,,,,,,"[""nacho.png""]","[""celery.png""]",PB18.png,,,,,,,,,,,0,6,"[""celery.png""]","[""celery.png""]","[""celery.png""]","[""celery.png""]","[""celery.png""]","[""celery.png""]",blank.png,PB18.png,PB01.png,"[""celery.png""]","[""celery.png""]","[""celery.png""]","[""celery.png""]","[""celery.png""]","[""celery.png""]",blank.png,blank.png,blank.png,blank.png,blank.png,blank.png,1,"[""nacho.png""]",blank.png,blank.png,blank.png,0,blank.png,blank.png,blank.png,blank.png,blank.png,blank.png,PB01.png,,,,,,,,,,,1,,,,,,,,,,,,,916.6579999999958,,timeout,,,,,,,,,,,,,4,,,,,,,,,,,,,,,,,,,,,,,,,,,,,,,,,,,,,,,,,,,,,,,,,,,,,,,,,"[""celery.png""]","[""nacho.png""]",,,,4,,,false,,1,,,,,,,311933.5200000005,311933.181,311233.182,311236.7350000004,311249.854,312166.512,2,,,
timeout,canvas.Screen,2_4_3_6_1_0_0_0_0_1_1,2021-05-24T16:13:27.694Z,,,blank.png,blank.png,blank.png,blank.png,blank.png,blank.png,blank.png,"[""nacho.png""]",blank.png,blank.png,blank.png,blank.png,blank.png,,,,,,,,,,,,,,,,,,,,,,,,,,,,,"[""nacho.png""]","[""celery.png""]",PB18.png,,,,,,,,,,,0,6,"[""celery.png""]","[""celery.png""]","[""celery.png""]","[""celery.png""]","[""celery.png""]","[""celery.png""]",blank.png,PB18.png,PB01.png,"[""celery.png""]","[""celery.png""]","[""celery.png""]","[""celery.png""]","[""celery.png""]","[""celery.png""]",blank.png,blank.png,blank.png,blank.png,blank.png,blank.png,1,"[""nacho.png""]",blank.png,blank.png,blank.png,0,blank.png,blank.png,blank.png,blank.png,blank.png,blank.png,PB01.png,,,,,,,,,,,1,,,,,,,,,,,,,733.3390000000363,,timeout,,,,,,,,,,,,,4,,,,,,,,,,,,,,,,,,,,,,,,,,,,,,,,,,,,,,,,,,,,,,,,,,,,,,,,,"[""celery.png""]","[""nacho.png""]",,,,4,,,false,,1,,,,,,,312650.2099999998,312649.849,311933.181,312168.6700000009,312166.512,312899.851,,,,
choice,canvas.Screen,2_4_3_6_1_0_0_0_0_1_2,2021-05-24T16:13:28.909Z,,,blank.png,blank.png,blank.png,blank.png,blank.png,blank.png,blank.png,"[""nacho.png""]",blank.png,blank.png,blank.png,blank.png,blank.png,,,,,,,,,,,,,,,,,,,,,,,,,,,,,"[""nacho.png""]","[""celery.png""]",PB18.png,,,,,,,,,,,0,6,"[""celery.png""]","[""celery.png""]","[""celery.png""]","[""celery.png""]","[""celery.png""]","[""celery.png""]",blank.png,PB18.png,PB01.png,"[""celery.png""]","[""celery.png""]","[""celery.png""]","[""celery.png""]","[""celery.png""]","[""celery.png""]",blank.png,blank.png,blank.png,blank.png,blank.png,blank.png,1,"[""nacho.png""]",blank.png,blank.png,blank.png,0,blank.png,blank.png,blank.png,blank.png,blank.png,blank.png,PB01.png,,,,,,,,,,,1,,,,,,,,,,,,,964.4440000011818,,response,,,,,,,,,,,,,4,,,,,,,,,,,,,,,,,,,,,,,,,,,,,,,,,,,,,,,,,,,,,,,,,,,,,,,,,"[""celery.png""]","[""nacho.png""]",,,,4,left,keydown(ArrowLeft),false,,1,,,,,,,313864.96500000067,313864.2950000012,312649.849,312899.66500000085,312899.851,314099.836,,2,,
square,canvas.Screen,2_4_3_6_1_0_0_0_0_1_3,2021-05-24T16:13:30.127Z,,,blank.png,blank.png,blank.png,blank.png,blank.png,blank.png,blank.png,"[""nacho.png""]",blank.png,blank.png,blank.png,blank.png,blank.png,,,,,,,,,,,,,,,,,,,,,,,,,,,,,"[""nacho.png""]","[""celery.png""]",PB18.png,,,,,,,,,,,0,6,"[""celery.png""]","[""celery.png""]","[""celery.png""]","[""celery.png""]","[""celery.png""]","[""celery.png""]",blank.png,PB18.png,PB01.png,"[""celery.png""]","[""celery.png""]","[""celery.png""]","[""celery.png""]","[""celery.png""]","[""celery.png""]",blank.png,blank.png,blank.png,blank.png,blank.png,blank.png,1,"[""nacho.png""]",blank.png,blank.png,blank.png,0,blank.png,blank.png,blank.png,blank.png,blank.png,blank.png,PB01.png,,,,,,,,,,,1,,,#33ff3f,#808080,,,,,,,,,1000.0100000000093,,timeout,,,,,,,,,,,,,4,,,,,,,,,,,,,,,,,,,,,,,,,,,,,,,,,,,,,,,,,,,,,,,,,,,,,,,,,"[""celery.png""]","[""nacho.png""]",,,,4,,,false,,1,,,,,black,white,315083.6550000004,315083.17,314083.09,314093.36500000063,314099.836,315099.846,,,,
ITI_late,canvas.Screen,2_4_3_6_1_0_0_0_0_1_4,2021-05-24T16:13:31.377Z,,,blank.png,blank.png,blank.png,blank.png,blank.png,blank.png,blank.png,"[""nacho.png""]",blank.png,blank.png,blank.png,blank.png,blank.png,,,,,,,,,,,,,,,,,,,,,,,,,,,,,"[""nacho.png""]","[""celery.png""]",PB18.png,,,,,,,,,,,0,6,"[""celery.png""]","[""celery.png""]","[""celery.png""]","[""celery.png""]","[""celery.png""]","[""celery.png""]",blank.png,PB18.png,PB01.png,"[""celery.png""]","[""celery.png""]","[""celery.png""]","[""celery.png""]","[""celery.png""]","[""celery.png""]",blank.png,blank.png,blank.png,blank.png,blank.png,blank.png,1,"[""nacho.png""]",blank.png,blank.png,blank.png,0,blank.png,blank.png,blank.png,blank.png,blank.png,blank.png,PB01.png,,,,,,,,,,,1,,,,,,,,,,,,,1250.0019999999786,,timeout,,,,,,,,,,,,white,4,,,,,,,,,,,,,,,,,,,,,,,,,,,,,,,,,,,,,,,,,,,,,,,,,,,,,,,,,"[""celery.png""]","[""nacho.png""]",,,,4,,,false,,1,,,,,,,316333.44000000035,316333.101,315083.17,315084.9500000004,315099.846,316349.848,,,,
choice_sequence,flow.Sequence,2_4_3_6_1_0_0_0_0_1,2021-05-24T16:13:31.377Z,,,blank.png,blank.png,blank.png,blank.png,blank.png,blank.png,blank.png,"[""nacho.png""]",blank.png,blank.png,blank.png,blank.png,blank.png,,,,,,,,,,,,,,,,,,,,,,,,,,,,,"[""nacho.png""]","[""celery.png""]",PB18.png,,,,,,,,,,,0,6,"[""celery.png""]","[""celery.png""]","[""celery.png""]","[""celery.png""]","[""celery.png""]","[""celery.png""]",blank.png,PB18.png,PB01.png,"[""celery.png""]","[""celery.png""]","[""celery.png""]","[""celery.png""]","[""celery.png""]","[""celery.png""]",blank.png,blank.png,blank.png,blank.png,blank.png,blank.png,1,"[""nacho.png""]",blank.png,blank.png,blank.png,0,blank.png,blank.png,blank.png,blank.png,blank.png,blank.png,PB01.png,,,,,,,,,,,1,,,,,,,,,,,,,5083.247000000032,,completion,,,,,,,,,,,,,4,,,,,,,,,,,,,,,,,,,,,,,,,,,,,,,,,,,,,,,,,,,,,,,,,,,,,,,,,"[""celery.png""]","[""nacho.png""]",,,,4,,,false,,1,,,,,,,316333.72500000044,316333.101,311233.182,311236.20500000106,311249.854,316349.848,,,,
fixCross,canvas.Screen,2_4_3_6_1_0_0_0_0_2_0,2021-05-24T16:13:31.877Z,,,blank.png,blank.png,blank.png,blank.png,blank.png,blank.png,blank.png,"[""nacho.png""]",blank.png,blank.png,blank.png,blank.png,blank.png,,,,,,,,,,,,,,,,,,,,,,,,,,,,,"[""nacho.png""]","[""celery.png""]",PB18.png,,,,,,,,,,,0,6,"[""celery.png""]","[""celery.png""]","[""celery.png""]","[""celery.png""]","[""celery.png""]","[""celery.png""]",blank.png,PB18.png,PB14.png,"[""celery.png""]","[""celery.png""]","[""celery.png""]","[""celery.png""]","[""celery.png""]","[""celery.png""]","[""celery.png""]","[""celery.png""]","[""celery.png""]",blank.png,blank.png,blank.png,1,"[""nacho.png""]",blank.png,blank.png,blank.png,3,"[""celery.png""]","[""celery.png""]","[""celery.png""]",blank.png,blank.png,blank.png,PB14.png,,,,,,,,,,,1,,,,,,,,,,,,,766.6589999999851,,timeout,,,,,,,,,,,,,4,,,,,,,,,,,,,,,,,,,,,,,,,,,,,,,,,,,,,,,,,,,,,,,,,,,,,,,,,"[""celery.png""]","[""nacho.png""]",,,,4,,,false,,1,,,,,,,316833.52000000014,316833.174,316333.101,316338.2600000005,316349.848,317116.507,3,,,
timeout,canvas.Screen,2_4_3_6_1_0_0_0_0_2_1,2021-05-24T16:13:32.644Z,,,blank.png,blank.png,blank.png,blank.png,blank.png,blank.png,blank.png,"[""nacho.png""]",blank.png,blank.png,blank.png,blank.png,blank.png,,,,,,,,,,,,,,,,,,,,,,,,,,,,,"[""nacho.png""]","[""celery.png""]",PB18.png,,,,,,,,,,,0,6,"[""celery.png""]","[""celery.png""]","[""celery.png""]","[""celery.png""]","[""celery.png""]","[""celery.png""]",blank.png,PB18.png,PB14.png,"[""celery.png""]","[""celery.png""]","[""celery.png""]","[""celery.png""]","[""celery.png""]","[""celery.png""]","[""celery.png""]","[""celery.png""]","[""celery.png""]",blank.png,blank.png,blank.png,1,"[""nacho.png""]",blank.png,blank.png,blank.png,3,"[""celery.png""]","[""celery.png""]","[""celery.png""]",blank.png,blank.png,blank.png,PB14.png,,,,,,,,,,,1,,,,,,,,,,,,,766.6089999999967,,timeout,,,,,,,,,,,,,4,,,,,,,,,,,,,,,,,,,,,,,,,,,,,,,,,,,,,,,,,,,,,,,,,,,,,,,,,"[""celery.png""]","[""nacho.png""]",,,,4,,,false,,1,,,,,,,317600.22000000026,317599.834,316833.174,317118.78500000056,317116.507,317883.116,,,,
choice,canvas.Screen,2_4_3_6_1_0_0_0_0_2_2,2021-05-24T16:13:34.469Z,,,blank.png,blank.png,blank.png,blank.png,blank.png,blank.png,blank.png,"[""nacho.png""]",blank.png,blank.png,blank.png,blank.png,blank.png,,,,,,,,,,,,,,,,,,,,,,,,,,,,,"[""nacho.png""]","[""celery.png""]",PB18.png,,,,,,,,,,,0,6,"[""celery.png""]","[""celery.png""]","[""celery.png""]","[""celery.png""]","[""celery.png""]","[""celery.png""]",blank.png,PB18.png,PB14.png,"[""celery.png""]","[""celery.png""]","[""celery.png""]","[""celery.png""]","[""celery.png""]","[""celery.png""]","[""celery.png""]","[""celery.png""]","[""celery.png""]",blank.png,blank.png,blank.png,1,"[""nacho.png""]",blank.png,blank.png,blank.png,3,"[""celery.png""]","[""celery.png""]","[""celery.png""]",blank.png,blank.png,blank.png,PB14.png,,,,,,,,,,,1,,,,,,,,,,,,,1541.1540000013774,,response,,,,,,,,,,,,,4,,,,,,,,,,,,,,,,,,,,,,,,,,,,,,,,,,,,,,,,,,,,,,,,,,,,,,,,,"[""celery.png""]","[""nacho.png""]",,,,4,left,keydown(ArrowLeft),false,,1,,,,,,,319425.0800000009,319424.27000000136,317599.834,317879.51000000065,317883.116,319699.776,,3,,
square,canvas.Screen,2_4_3_6_1_0_0_0_0_2_3,2021-05-24T16:13:35.727Z,,,blank.png,blank.png,blank.png,blank.png,blank.png,blank.png,blank.png,"[""nacho.png""]",blank.png,blank.png,blank.png,blank.png,blank.png,,,,,,,,,,,,,,,,,,,,,,,,,,,,,"[""nacho.png""]","[""celery.png""]",PB18.png,,,,,,,,,,,0,6,"[""celery.png""]","[""celery.png""]","[""celery.png""]","[""celery.png""]","[""celery.png""]","[""celery.png""]",blank.png,PB18.png,PB14.png,"[""celery.png""]","[""celery.png""]","[""celery.png""]","[""celery.png""]","[""celery.png""]","[""celery.png""]","[""celery.png""]","[""celery.png""]","[""celery.png""]",blank.png,blank.png,blank.png,1,"[""nacho.png""]",blank.png,blank.png,blank.png,3,"[""celery.png""]","[""celery.png""]","[""celery.png""]",blank.png,blank.png,blank.png,PB14.png,,,,,,,,,,,1,,,#33ff3f,#808080,,,,,,,,,1000.0779999999795,,timeout,,,,,,,,,,,,,4,,,,,,,,,,,,,,,,,,,,,,,,,,,,,,,,,,,,,,,,,,,,,,,,,,,,,,,,,"[""celery.png""]","[""nacho.png""]",,,,4,,,false,,1,,,,,black,white,320683.54499999987,320683.174,319683.07,319693.8200000004,319699.776,320699.854,,,,
ITI_late,canvas.Screen,2_4_3_6_1_0_0_0_0_2_4,2021-05-24T16:13:36.727Z,,,blank.png,blank.png,blank.png,blank.png,blank.png,blank.png,blank.png,"[""nacho.png""]",blank.png,blank.png,blank.png,blank.png,blank.png,,,,,,,,,,,,,,,,,,,,,,,,,,,,,"[""nacho.png""]","[""celery.png""]",PB18.png,,,,,,,,,,,0,6,"[""celery.png""]","[""celery.png""]","[""celery.png""]","[""celery.png""]","[""celery.png""]","[""celery.png""]",blank.png,PB18.png,PB14.png,"[""celery.png""]","[""celery.png""]","[""celery.png""]","[""celery.png""]","[""celery.png""]","[""celery.png""]","[""celery.png""]","[""celery.png""]","[""celery.png""]",blank.png,blank.png,blank.png,1,"[""nacho.png""]",blank.png,blank.png,blank.png,3,"[""celery.png""]","[""celery.png""]","[""celery.png""]",blank.png,blank.png,blank.png,PB14.png,,,,,,,,,,,1,,,,,,,,,,,,,999.9430000000284,,timeout,,,,,,,,,,,,white,4,,,,,,,,,,,,,,,,,,,,,,,,,,,,,,,,,,,,,,,,,,,,,,,,,,,,,,,,,"[""celery.png""]","[""nacho.png""]",,,,4,,,false,,1,,,,,,,321683.54,321683.163,320683.174,320684.6100000002,320699.854,321699.797,,,,
choice_sequence,flow.Sequence,2_4_3_6_1_0_0_0_0_2,2021-05-24T16:13:36.728Z,,,blank.png,blank.png,blank.png,blank.png,blank.png,blank.png,blank.png,"[""nacho.png""]",blank.png,blank.png,blank.png,blank.png,blank.png,,,,,,,,,,,,,,,,,,,,,,,,,,,,,"[""nacho.png""]","[""celery.png""]",PB18.png,,,,,,,,,,,0,6,"[""celery.png""]","[""celery.png""]","[""celery.png""]","[""celery.png""]","[""celery.png""]","[""celery.png""]",blank.png,PB18.png,PB14.png,"[""celery.png""]","[""celery.png""]","[""celery.png""]","[""celery.png""]","[""celery.png""]","[""celery.png""]","[""celery.png""]","[""celery.png""]","[""celery.png""]",blank.png,blank.png,blank.png,1,"[""nacho.png""]",blank.png,blank.png,blank.png,3,"[""celery.png""]","[""celery.png""]","[""celery.png""]",blank.png,blank.png,blank.png,PB14.png,,,,,,,,,,,1,,,,,,,,,,,,,5333.315000000002,,completion,,,,,,,,,,,,,4,,,,,,,,,,,,,,,,,,,,,,,,,,,,,,,,,,,,,,,,,,,,,,,,,,,,,,,,,"[""celery.png""]","[""nacho.png""]",,,,4,,,false,,1,,,,,,,321683.86000000103,321683.163,316333.101,316337.26000000024,316349.848,321699.797,,,,
fixCross,canvas.Screen,2_4_3_6_1_0_0_0_0_3_0,2021-05-24T16:13:37.077Z,,,blank.png,"[""nacho.png""]",blank.png,blank.png,blank.png,blank.png,blank.png,blank.png,blank.png,blank.png,blank.png,blank.png,blank.png,,,,,,,,,,,,,,,,,,,,,,,,,,,,,"[""nacho.png""]","[""celery.png""]",PB17.png,,,,,,,,,,,0,6,"[""celery.png""]","[""celery.png""]","[""celery.png""]","[""celery.png""]","[""celery.png""]","[""celery.png""]",blank.png,PB18.png,PB18.png,"[""celery.png""]","[""celery.png""]","[""celery.png""]","[""celery.png""]","[""celery.png""]","[""celery.png""]","[""celery.png""]","[""celery.png""]","[""celery.png""]","[""celery.png""]","[""celery.png""]","[""celery.png""]",1,"[""nacho.png""]",blank.png,blank.png,blank.png,6,"[""celery.png""]","[""celery.png""]","[""celery.png""]","[""celery.png""]","[""celery.png""]","[""celery.png""]",PB17.png,,,,,,,,,,,1,,,,,,,,,,,,,649.9689999999828,,timeout,,,,,,,,,,,,,3,,,,,,,,,,,,,,,,,,,,,,,,,,,,,,,,,,,,,,,,,,,,,,,,,,,,,,,,,"[""celery.png""]","[""nacho.png""]",,,,4,,,false,,1,,,,,,,322033.4899999998,322033.164,321683.163,321686.77000000025,321699.797,322349.766,4,,,
timeout,canvas.Screen,2_4_3_6_1_0_0_0_0_3_1,2021-05-24T16:13:37.877Z,,,blank.png,"[""nacho.png""]",blank.png,blank.png,blank.png,blank.png,blank.png,blank.png,blank.png,blank.png,blank.png,blank.png,blank.png,,,,,,,,,,,,,,,,,,,,,,,,,,,,,"[""nacho.png""]","[""celery.png""]",PB17.png,,,,,,,,,,,0,6,"[""celery.png""]","[""celery.png""]","[""celery.png""]","[""celery.png""]","[""celery.png""]","[""celery.png""]",blank.png,PB18.png,PB18.png,"[""celery.png""]","[""celery.png""]","[""celery.png""]","[""celery.png""]","[""celery.png""]","[""celery.png""]","[""celery.png""]","[""celery.png""]","[""celery.png""]","[""celery.png""]","[""celery.png""]","[""celery.png""]",1,"[""nacho.png""]",blank.png,blank.png,blank.png,6,"[""celery.png""]","[""celery.png""]","[""celery.png""]","[""celery.png""]","[""celery.png""]","[""celery.png""]",PB17.png,,,,,,,,,,,1,,,,,,,,,,,,,816.7380000000121,,timeout,,,,,,,,,,,,,3,,,,,,,,,,,,,,,,,,,,,,,,,,,,,,,,,,,,,,,,,,,,,,,,,,,,,,,,,"[""celery.png""]","[""nacho.png""]",,,,4,,,false,,1,,,,,,,322833.525,322833.163,322033.164,322352.1450000007,322349.766,323166.504,,,,
choice,canvas.Screen,2_4_3_6_1_0_0_0_0_3_2,2021-05-24T16:13:38.757Z,,,blank.png,"[""nacho.png""]",blank.png,blank.png,blank.png,blank.png,blank.png,blank.png,blank.png,blank.png,blank.png,blank.png,blank.png,,,,,,,,,,,,,,,,,,,,,,,,,,,,,"[""nacho.png""]","[""celery.png""]",PB17.png,,,,,,,,,,,0,6,"[""celery.png""]","[""celery.png""]","[""celery.png""]","[""celery.png""]","[""celery.png""]","[""celery.png""]",blank.png,PB18.png,PB18.png,"[""celery.png""]","[""celery.png""]","[""celery.png""]","[""celery.png""]","[""celery.png""]","[""celery.png""]","[""celery.png""]","[""celery.png""]","[""celery.png""]","[""celery.png""]","[""celery.png""]","[""celery.png""]",1,"[""nacho.png""]",blank.png,blank.png,blank.png,6,"[""celery.png""]","[""celery.png""]","[""celery.png""]","[""celery.png""]","[""celery.png""]","[""celery.png""]",PB17.png,,,,,,,,,,,1,,,,,,,,,,,,,545.7910000011907,,response,,,,,,,,,,,,,3,,,,,,,,,,,,,,,,,,,,,,,,,,,,,,,,,,,,,,,,,,,,,,,,,,,,,,,,,"[""celery.png""]","[""nacho.png""]",,,,4,left,keydown(ArrowLeft),false,,1,,,,,,,323712.9800000002,323712.2950000012,322833.163,323158.72000000125,323166.504,324033.09,,4,,
square,canvas.Screen,2_4_3_6_1_0_0_0_0_3_3,2021-05-24T16:13:40.061Z,,,blank.png,"[""nacho.png""]",blank.png,blank.png,blank.png,blank.png,blank.png,blank.png,blank.png,blank.png,blank.png,blank.png,blank.png,,,,,,,,,,,,,,,,,,,,,,,,,,,,,"[""nacho.png""]","[""celery.png""]",PB17.png,,,,,,,,,,,0,6,"[""celery.png""]","[""celery.png""]","[""celery.png""]","[""celery.png""]","[""celery.png""]","[""celery.png""]",blank.png,PB18.png,PB18.png,"[""celery.png""]","[""celery.png""]","[""celery.png""]","[""celery.png""]","[""celery.png""]","[""celery.png""]","[""celery.png""]","[""celery.png""]","[""celery.png""]","[""celery.png""]","[""celery.png""]","[""celery.png""]",1,"[""nacho.png""]",blank.png,blank.png,blank.png,6,"[""celery.png""]","[""celery.png""]","[""celery.png""]","[""celery.png""]","[""celery.png""]","[""celery.png""]",PB17.png,,,,,,,,,,,1,,,#33ff3f,#808080,,,,,,,,,1000.0749999999534,,timeout,,,,,,,,,,,,,3,,,,,,,,,,,,,,,,,,,,,,,,,,,,,,,,,,,,,,,,,,,,,,,,,,,,,,,,,"[""celery.png""]","[""nacho.png""]",,,,4,,,false,,1,,,,,black,white,325016.93500000145,325016.485,324016.401,324028.5500000009,324033.09,325033.165,,,,
ITI_late,canvas.Screen,2_4_3_6_1_0_0_0_0_3_4,2021-05-24T16:13:41.311Z,,,blank.png,"[""nacho.png""]",blank.png,blank.png,blank.png,blank.png,blank.png,blank.png,blank.png,blank.png,blank.png,blank.png,blank.png,,,,,,,,,,,,,,,,,,,,,,,,,,,,,"[""nacho.png""]","[""celery.png""]",PB17.png,,,,,,,,,,,0,6,"[""celery.png""]","[""celery.png""]","[""celery.png""]","[""celery.png""]","[""celery.png""]","[""celery.png""]",blank.png,PB18.png,PB18.png,"[""celery.png""]","[""celery.png""]","[""celery.png""]","[""celery.png""]","[""celery.png""]","[""celery.png""]","[""celery.png""]","[""celery.png""]","[""celery.png""]","[""celery.png""]","[""celery.png""]","[""celery.png""]",1,"[""nacho.png""]",blank.png,blank.png,blank.png,6,"[""celery.png""]","[""celery.png""]","[""celery.png""]","[""celery.png""]","[""celery.png""]","[""celery.png""]",PB17.png,,,,,,,,,,,1,,,,,,,,,,,,,1249.9930000000168,,timeout,,,,,,,,,,,,white,3,,,,,,,,,,,,,,,,,,,,,,,,,,,,,,,,,,,,,,,,,,,,,,,,,,,,,,,,,"[""celery.png""]","[""nacho.png""]",,,,4,,,false,,1,,,,,,,326266.8300000005,326266.484,325016.485,325017.960000001,325033.165,326283.158,,,,
choice_sequence,flow.Sequence,2_4_3_6_1_0_0_0_0_3,2021-05-24T16:13:41.311Z,,,blank.png,"[""nacho.png""]",blank.png,blank.png,blank.png,blank.png,blank.png,blank.png,blank.png,blank.png,blank.png,blank.png,blank.png,,,,,,,,,,,,,,,,,,,,,,,,,,,,,"[""nacho.png""]","[""celery.png""]",PB17.png,,,,,,,,,,,0,6,"[""celery.png""]","[""celery.png""]","[""celery.png""]","[""celery.png""]","[""celery.png""]","[""celery.png""]",blank.png,PB18.png,PB18.png,"[""celery.png""]","[""celery.png""]","[""celery.png""]","[""celery.png""]","[""celery.png""]","[""celery.png""]","[""celery.png""]","[""celery.png""]","[""celery.png""]","[""celery.png""]","[""celery.png""]","[""celery.png""]",1,"[""nacho.png""]",blank.png,blank.png,blank.png,6,"[""celery.png""]","[""celery.png""]","[""celery.png""]","[""celery.png""]","[""celery.png""]","[""celery.png""]",PB17.png,,,,,,,,,,,1,,,,,,,,,,,,,4566.686999999976,,completion,,,,,,,,,,,,,3,,,,,,,,,,,,,,,,,,,,,,,,,,,,,,,,,,,,,,,,,,,,,,,,,,,,,,,,,"[""celery.png""]","[""nacho.png""]",,,,4,,,false,,1,,,,,,,326267.1300000002,326266.484,321683.163,321686.2450000008,321699.797,326283.158,,,,
fixCross,canvas.Screen,2_4_3_6_1_0_0_0_0_4_0,2021-05-24T16:13:41.911Z,,,blank.png,"[""nacho.png""]",blank.png,blank.png,blank.png,blank.png,blank.png,blank.png,blank.png,blank.png,blank.png,blank.png,blank.png,,,,,,,,,,,,,,,,,,,,,,,,,,,,,"[""nacho.png""]","[""celery.png""]",PB12.png,,,,,,,,,,,0,6,"[""celery.png""]","[""celery.png""]","[""celery.png""]","[""celery.png""]","[""celery.png""]","[""celery.png""]",blank.png,PB18.png,PB18.png,"[""celery.png""]","[""celery.png""]",blank.png,blank.png,blank.png,blank.png,"[""celery.png""]","[""celery.png""]","[""celery.png""]","[""celery.png""]","[""celery.png""]","[""celery.png""]",1,"[""nacho.png""]",blank.png,blank.png,blank.png,2,"[""celery.png""]","[""celery.png""]",blank.png,blank.png,blank.png,blank.png,PB12.png,,,,,,,,,,,1,,,,,,,,,,,,,1000.0080000000307,,timeout,,,,,,,,,,,,,3,,,,,,,,,,,,,,,,,,,,,,,,,,,,,,,,,,,,,,,,,,,,,,,,,,,,,,,,,"[""celery.png""]","[""nacho.png""]",,,,4,,,false,,1,,,,,,,326866.8150000012,326866.485,326266.484,326269.8450000007,326283.158,327283.166,5,,,
timeout,canvas.Screen,2_4_3_6_1_0_0_0_0_4_1,2021-05-24T16:13:42.811Z,,,blank.png,"[""nacho.png""]",blank.png,blank.png,blank.png,blank.png,blank.png,blank.png,blank.png,blank.png,blank.png,blank.png,blank.png,,,,,,,,,,,,,,,,,,,,,,,,,,,,,"[""nacho.png""]","[""celery.png""]",PB12.png,,,,,,,,,,,0,6,"[""celery.png""]","[""celery.png""]","[""celery.png""]","[""celery.png""]","[""celery.png""]","[""celery.png""]",blank.png,PB18.png,PB18.png,"[""celery.png""]","[""celery.png""]",blank.png,blank.png,blank.png,blank.png,"[""celery.png""]","[""celery.png""]","[""celery.png""]","[""celery.png""]","[""celery.png""]","[""celery.png""]",1,"[""nacho.png""]",blank.png,blank.png,blank.png,2,"[""celery.png""]","[""celery.png""]",blank.png,blank.png,blank.png,blank.png,PB12.png,,,,,,,,,,,1,,,,,,,,,,,,,749.9159999999683,,timeout,,,,,,,,,,,,,3,,,,,,,,,,,,,,,,,,,,,,,,,,,,,,,,,,,,,,,,,,,,,,,,,,,,,,,,,"[""celery.png""]","[""nacho.png""]",,,,4,,,false,,1,,,,,,,327766.85999999975,327766.489,326866.485,327285.41500000027,327283.166,328033.082,,,,
choice,canvas.Screen,2_4_3_6_1_0_0_0_0_4_2,2021-05-24T16:13:43.541Z,,,blank.png,"[""nacho.png""]",blank.png,blank.png,blank.png,blank.png,blank.png,blank.png,blank.png,blank.png,blank.png,blank.png,blank.png,,,,,,,,,,,,,,,,,,,,,,,,,,,,,"[""nacho.png""]","[""celery.png""]",PB12.png,,,,,,,,,,,0,6,"[""celery.png""]","[""celery.png""]","[""celery.png""]","[""celery.png""]","[""celery.png""]","[""celery.png""]",blank.png,PB18.png,PB18.png,"[""celery.png""]","[""celery.png""]",blank.png,blank.png,blank.png,blank.png,"[""celery.png""]","[""celery.png""]","[""celery.png""]","[""celery.png""]","[""celery.png""]","[""celery.png""]",1,"[""nacho.png""]",blank.png,blank.png,blank.png,2,"[""celery.png""]","[""celery.png""]",blank.png,blank.png,blank.png,blank.png,PB12.png,,,,,,,,,,,1,,,,,,,,,,,,,463.24300000007497,,response,,,,,,,,,,,,,3,,,,,,,,,,,,,,,,,,,,,,,,,,,,,,,,,,,,,,,,,,,,,,,,,,,,,,,,,"[""celery.png""]","[""nacho.png""]",,,,4,right,keydown(ArrowRight),false,,1,,,,,,,328496.99000000145,328496.32500000007,327766.489,328031.4800000015,328033.082,328766.43,,5,,
square,canvas.Screen,2_4_3_6_1_0_0_0_0_4_3,2021-05-24T16:13:44.794Z,,,blank.png,"[""nacho.png""]",blank.png,blank.png,blank.png,blank.png,blank.png,blank.png,blank.png,blank.png,blank.png,blank.png,blank.png,,,,,,,,,,,,,,,,,,,,,,,,,,,,,"[""nacho.png""]","[""celery.png""]",PB12.png,,,,,,,,,,,0,6,"[""celery.png""]","[""celery.png""]","[""celery.png""]","[""celery.png""]","[""celery.png""]","[""celery.png""]",blank.png,PB18.png,PB18.png,"[""celery.png""]","[""celery.png""]",blank.png,blank.png,blank.png,blank.png,"[""celery.png""]","[""celery.png""]","[""celery.png""]","[""celery.png""]","[""celery.png""]","[""celery.png""]",1,"[""nacho.png""]",blank.png,blank.png,blank.png,2,"[""celery.png""]","[""celery.png""]",blank.png,blank.png,blank.png,blank.png,PB12.png,,,,,,,,,,,1,,,#808080,#33ff3f,,,,,,,,,999.9920000000275,,timeout,,,,,,,,,,,,,3,,,,,,,,,,,,,,,,,,,,,,,,,,,,,,,,,,,,,,,,,,,,,,,,,,,,,,,,,"[""celery.png""]","[""nacho.png""]",,,,4,,,false,,1,,,,,white,black,329750.2800000002,329749.819,328749.754,328754.3350000015,328766.43,329766.422,,,,
ITI_late,canvas.Screen,2_4_3_6_1_0_0_0_0_4_4,2021-05-24T16:13:45.544Z,,,blank.png,"[""nacho.png""]",blank.png,blank.png,blank.png,blank.png,blank.png,blank.png,blank.png,blank.png,blank.png,blank.png,blank.png,,,,,,,,,,,,,,,,,,,,,,,,,,,,,"[""nacho.png""]","[""celery.png""]",PB12.png,,,,,,,,,,,0,6,"[""celery.png""]","[""celery.png""]","[""celery.png""]","[""celery.png""]","[""celery.png""]","[""celery.png""]",blank.png,PB18.png,PB18.png,"[""celery.png""]","[""celery.png""]",blank.png,blank.png,blank.png,blank.png,"[""celery.png""]","[""celery.png""]","[""celery.png""]","[""celery.png""]","[""celery.png""]","[""celery.png""]",1,"[""nacho.png""]",blank.png,blank.png,blank.png,2,"[""celery.png""]","[""celery.png""]",blank.png,blank.png,blank.png,blank.png,PB12.png,,,,,,,,,,,1,,,,,,,,,,,,,750.0709999999963,,timeout,,,,,,,,,,,,white,3,,,,,,,,,,,,,,,,,,,,,,,,,,,,,,,,,,,,,,,,,,,,,,,,,,,,,,,,,"[""celery.png""]","[""nacho.png""]",,,,4,,,false,,1,,,,,,,330500.14999999985,330499.813,329749.819,329751.58999999985,329766.422,330516.493,,,,
choice_sequence,flow.Sequence,2_4_3_6_1_0_0_0_0_4,2021-05-24T16:13:45.544Z,,,blank.png,"[""nacho.png""]",blank.png,blank.png,blank.png,blank.png,blank.png,blank.png,blank.png,blank.png,blank.png,blank.png,blank.png,,,,,,,,,,,,,,,,,,,,,,,,,,,,,"[""nacho.png""]","[""celery.png""]",PB12.png,,,,,,,,,,,0,6,"[""celery.png""]","[""celery.png""]","[""celery.png""]","[""celery.png""]","[""celery.png""]","[""celery.png""]",blank.png,PB18.png,PB18.png,"[""celery.png""]","[""celery.png""]",blank.png,blank.png,blank.png,blank.png,"[""celery.png""]","[""celery.png""]","[""celery.png""]","[""celery.png""]","[""celery.png""]","[""celery.png""]",1,"[""nacho.png""]",blank.png,blank.png,blank.png,2,"[""celery.png""]","[""celery.png""]",blank.png,blank.png,blank.png,blank.png,PB12.png,,,,,,,,,,,1,,,,,,,,,,,,,4216.655000000028,,completion,,,,,,,,,,,,,3,,,,,,,,,,,,,,,,,,,,,,,,,,,,,,,,,,,,,,,,,,,,,,,,,,,,,,,,,"[""celery.png""]","[""nacho.png""]",,,,4,,,false,,1,,,,,,,330500.4399999998,330499.813,326266.484,326269.32000000123,326283.158,330516.493,,,,
fixCross,canvas.Screen,2_4_3_6_1_0_0_0_0_5_0,2021-05-24T16:13:46.044Z,,,blank.png,"[""nacho.png""]",blank.png,blank.png,blank.png,blank.png,blank.png,blank.png,blank.png,blank.png,blank.png,blank.png,blank.png,,,,,,,,,,,,,,,,,,,,,,,,,,,,,"[""nacho.png""]","[""celery.png""]",PB07.png,,,,,,,,,,,0,6,"[""celery.png""]","[""celery.png""]","[""celery.png""]","[""celery.png""]","[""celery.png""]","[""celery.png""]",blank.png,PB18.png,PB18.png,"[""celery.png""]",blank.png,blank.png,blank.png,blank.png,blank.png,"[""celery.png""]","[""celery.png""]","[""celery.png""]","[""celery.png""]","[""celery.png""]","[""celery.png""]",1,"[""nacho.png""]",blank.png,blank.png,blank.png,1,"[""celery.png""]",blank.png,blank.png,blank.png,blank.png,blank.png,PB07.png,,,,,,,,,,,1,,,,,,,,,,,,,733.3150000000023,,timeout,,,,,,,,,,,,,3,,,,,,,,,,,,,,,,,,,,,,,,,,,,,,,,,,,,,,,,,,,,,,,,,,,,,,,,,"[""celery.png""]","[""nacho.png""]",,,,4,,,false,,1,,,,,,,331000.17500000104,330999.815,330499.813,330505.7300000008,330516.493,331249.808,6,,,
timeout,canvas.Screen,2_4_3_6_1_0_0_0_0_5_1,2021-05-24T16:13:46.777Z,,,blank.png,"[""nacho.png""]",blank.png,blank.png,blank.png,blank.png,blank.png,blank.png,blank.png,blank.png,blank.png,blank.png,blank.png,,,,,,,,,,,,,,,,,,,,,,,,,,,,,"[""nacho.png""]","[""celery.png""]",PB07.png,,,,,,,,,,,0,6,"[""celery.png""]","[""celery.png""]","[""celery.png""]","[""celery.png""]","[""celery.png""]","[""celery.png""]",blank.png,PB18.png,PB18.png,"[""celery.png""]",blank.png,blank.png,blank.png,blank.png,blank.png,"[""celery.png""]","[""celery.png""]","[""celery.png""]","[""celery.png""]","[""celery.png""]","[""celery.png""]",1,"[""nacho.png""]",blank.png,blank.png,blank.png,1,"[""celery.png""]",blank.png,blank.png,blank.png,blank.png,blank.png,PB07.png,,,,,,,,,,,1,,,,,,,,,,,,,733.35699999996,,timeout,,,,,,,,,,,,,3,,,,,,,,,,,,,,,,,,,,,,,,,,,,,,,,,,,,,,,,,,,,,,,,,,,,,,,,,"[""celery.png""]","[""nacho.png""]",,,,4,,,false,,1,,,,,,,331733.5250000015,331733.149,330999.815,331252.37000000017,331249.808,331983.165,,,,
choice,canvas.Screen,2_4_3_6_1_0_0_0_0_5_2,2021-05-24T16:13:47.989Z,,,blank.png,"[""nacho.png""]",blank.png,blank.png,blank.png,blank.png,blank.png,blank.png,blank.png,blank.png,blank.png,blank.png,blank.png,,,,,,,,,,,,,,,,,,,,,,,,,,,,,"[""nacho.png""]","[""celery.png""]",PB07.png,,,,,,,,,,,0,6,"[""celery.png""]","[""celery.png""]","[""celery.png""]","[""celery.png""]","[""celery.png""]","[""celery.png""]",blank.png,PB18.png,PB18.png,"[""celery.png""]",blank.png,blank.png,blank.png,blank.png,blank.png,"[""celery.png""]","[""celery.png""]","[""celery.png""]","[""celery.png""]","[""celery.png""]","[""celery.png""]",1,"[""nacho.png""]",blank.png,blank.png,blank.png,1,"[""celery.png""]",blank.png,blank.png,blank.png,blank.png,blank.png,PB07.png,,,,,,,,,,,1,,,,,,,,,,,,,961.0850000004866,,response,,,,,,,,,,,,,3,,,,,,,,,,,,,,,,,,,,,,,,,,,,,,,,,,,,,,,,,,,,,,,,,,,,,,,,,"[""celery.png""]","[""nacho.png""]",,,,4,right,keydown(ArrowRight),false,,1,,,,,,,332944.9850000001,332944.25000000047,331733.149,331983.2750000005,331983.165,333199.748,,6,,
square,canvas.Screen,2_4_3_6_1_0_0_0_0_5_3,2021-05-24T16:13:49.227Z,,,blank.png,"[""nacho.png""]",blank.png,blank.png,blank.png,blank.png,blank.png,blank.png,blank.png,blank.png,blank.png,blank.png,blank.png,,,,,,,,,,,,,,,,,,,,,,,,,,,,,"[""nacho.png""]","[""celery.png""]",PB07.png,,,,,,,,,,,0,6,"[""celery.png""]","[""celery.png""]","[""celery.png""]","[""celery.png""]","[""celery.png""]","[""celery.png""]",blank.png,PB18.png,PB18.png,"[""celery.png""]",blank.png,blank.png,blank.png,blank.png,blank.png,"[""celery.png""]","[""celery.png""]","[""celery.png""]","[""celery.png""]","[""celery.png""]","[""celery.png""]",1,"[""nacho.png""]",blank.png,blank.png,blank.png,1,"[""celery.png""]",blank.png,blank.png,blank.png,blank.png,blank.png,PB07.png,,,,,,,,,,,1,,,#808080,#33ff3f,,,,,,,,,1000.0650000000023,,timeout,,,,,,,,,,,,,3,,,,,,,,,,,,,,,,,,,,,,,,,,,,,,,,,,,,,,,,,,,,,,,,,,,,,,,,,"[""celery.png""]","[""nacho.png""]",,,,4,,,false,,1,,,,,white,black,334183.64500000095,334183.141,333183.102,333189.2400000015,333199.748,334199.813,,,,
ITI_late,canvas.Screen,2_4_3_6_1_0_0_0_0_5_4,2021-05-24T16:13:49.727Z,,,blank.png,"[""nacho.png""]",blank.png,blank.png,blank.png,blank.png,blank.png,blank.png,blank.png,blank.png,blank.png,blank.png,blank.png,,,,,,,,,,,,,,,,,,,,,,,,,,,,,"[""nacho.png""]","[""celery.png""]",PB07.png,,,,,,,,,,,0,6,"[""celery.png""]","[""celery.png""]","[""celery.png""]","[""celery.png""]","[""celery.png""]","[""celery.png""]",blank.png,PB18.png,PB18.png,"[""celery.png""]",blank.png,blank.png,blank.png,blank.png,blank.png,"[""celery.png""]","[""celery.png""]","[""celery.png""]","[""celery.png""]","[""celery.png""]","[""celery.png""]",1,"[""nacho.png""]",blank.png,blank.png,blank.png,1,"[""celery.png""]",blank.png,blank.png,blank.png,blank.png,blank.png,PB07.png,,,,,,,,,,,1,,,,,,,,,,,,,500,,timeout,,,,,,,,,,,,white,3,,,,,,,,,,,,,,,,,,,,,,,,,,,,,,,,,,,,,,,,,,,,,,,,,,,,,,,,,"[""celery.png""]","[""nacho.png""]",,,,4,,,false,,1,,,,,,,334683.4800000015,334683.148,334183.141,334184.6750000004,334199.813,334699.813,,,,
choice_sequence,flow.Sequence,2_4_3_6_1_0_0_0_0_5,2021-05-24T16:13:49.727Z,,,blank.png,"[""nacho.png""]",blank.png,blank.png,blank.png,blank.png,blank.png,blank.png,blank.png,blank.png,blank.png,blank.png,blank.png,,,,,,,,,,,,,,,,,,,,,,,,,,,,,"[""nacho.png""]","[""celery.png""]",PB07.png,,,,,,,,,,,0,6,"[""celery.png""]","[""celery.png""]","[""celery.png""]","[""celery.png""]","[""celery.png""]","[""celery.png""]",blank.png,PB18.png,PB18.png,"[""celery.png""]",blank.png,blank.png,blank.png,blank.png,blank.png,"[""celery.png""]","[""celery.png""]","[""celery.png""]","[""celery.png""]","[""celery.png""]","[""celery.png""]",1,"[""nacho.png""]",blank.png,blank.png,blank.png,1,"[""celery.png""]",blank.png,blank.png,blank.png,blank.png,blank.png,PB07.png,,,,,,,,,,,1,,,,,,,,,,,,,4166.65499999997,,completion,,,,,,,,,,,,,3,,,,,,,,,,,,,,,,,,,,,,,,,,,,,,,,,,,,,,,,,,,,,,,,,,,,,,,,,"[""celery.png""]","[""nacho.png""]",,,,4,,,false,,1,,,,,,,334683.7649999998,334683.148,330499.813,330504.9450000006,330516.493,334699.813,,,,
fixCross,canvas.Screen,2_4_3_6_1_0_0_0_0_6_0,2021-05-24T16:13:50.227Z,,,blank.png,blank.png,blank.png,blank.png,blank.png,blank.png,blank.png,"[""nacho.png""]",blank.png,blank.png,blank.png,blank.png,blank.png,,,,,,,,,,,,,,,,,,,,,,,,,,,,,"[""nacho.png""]","[""celery.png""]",PB18.png,,,,,,,,,,,0,6,"[""celery.png""]","[""celery.png""]","[""celery.png""]","[""celery.png""]","[""celery.png""]","[""celery.png""]",blank.png,PB18.png,PB15.png,"[""celery.png""]","[""celery.png""]","[""celery.png""]","[""celery.png""]","[""celery.png""]","[""celery.png""]","[""celery.png""]","[""celery.png""]","[""celery.png""]","[""celery.png""]",blank.png,blank.png,1,"[""nacho.png""]",blank.png,blank.png,blank.png,4,"[""celery.png""]","[""celery.png""]","[""celery.png""]","[""celery.png""]",blank.png,blank.png,PB15.png,,,,,,,,,,,1,,,,,,,,,,,,,783.2930000000051,,timeout,,,,,,,,,,,,,4,,,,,,,,,,,,,,,,,,,,,,,,,,,,,,,,,,,,,,,,,,,,,,,,,,,,,,,,,"[""celery.png""]","[""nacho.png""]",,,,4,,,false,,1,,,,,,,335183.4800000015,335183.139,334683.148,334688.2949999999,334699.813,335483.106,7,,,
timeout,canvas.Screen,2_4_3_6_1_0_0_0_0_6_1,2021-05-24T16:13:51.011Z,,,blank.png,blank.png,blank.png,blank.png,blank.png,blank.png,blank.png,"[""nacho.png""]",blank.png,blank.png,blank.png,blank.png,blank.png,,,,,,,,,,,,,,,,,,,,,,,,,,,,,"[""nacho.png""]","[""celery.png""]",PB18.png,,,,,,,,,,,0,6,"[""celery.png""]","[""celery.png""]","[""celery.png""]","[""celery.png""]","[""celery.png""]","[""celery.png""]",blank.png,PB18.png,PB15.png,"[""celery.png""]","[""celery.png""]","[""celery.png""]","[""celery.png""]","[""celery.png""]","[""celery.png""]","[""celery.png""]","[""celery.png""]","[""celery.png""]","[""celery.png""]",blank.png,blank.png,1,"[""nacho.png""]",blank.png,blank.png,blank.png,4,"[""celery.png""]","[""celery.png""]","[""celery.png""]","[""celery.png""]",blank.png,blank.png,PB15.png,,,,,,,,,,,1,,,,,,,,,,,,,766.6639999999898,,timeout,,,,,,,,,,,,,4,,,,,,,,,,,,,,,,,,,,,,,,,,,,,,,,,,,,,,,,,,,,,,,,,,,,,,,,,"[""celery.png""]","[""nacho.png""]",,,,4,,,false,,1,,,,,,,335966.84500000085,335966.478,335183.139,335485.42000000086,335483.106,336249.77,,,,
choice,canvas.Screen,2_4_3_6_1_0_0_0_0_6_2,2021-05-24T16:13:52.365Z,,,blank.png,blank.png,blank.png,blank.png,blank.png,blank.png,blank.png,"[""nacho.png""]",blank.png,blank.png,blank.png,blank.png,blank.png,,,,,,,,,,,,,,,,,,,,,,,,,,,,,"[""nacho.png""]","[""celery.png""]",PB18.png,,,,,,,,,,,0,6,"[""celery.png""]","[""celery.png""]","[""celery.png""]","[""celery.png""]","[""celery.png""]","[""celery.png""]",blank.png,PB18.png,PB15.png,"[""celery.png""]","[""celery.png""]","[""celery.png""]","[""celery.png""]","[""celery.png""]","[""celery.png""]","[""celery.png""]","[""celery.png""]","[""celery.png""]","[""celery.png""]",blank.png,blank.png,1,"[""nacho.png""]",blank.png,blank.png,blank.png,4,"[""celery.png""]","[""celery.png""]","[""celery.png""]","[""celery.png""]",blank.png,blank.png,PB15.png,,,,,,,,,,,1,,,,,,,,,,,,,1070.5149999997811,,response,,,,,,,,,,,,,4,,,,,,,,,,,,,,,,,,,,,,,,,,,,,,,,,,,,,,,,,,,,,,,,,,,,,,,,,"[""celery.png""]","[""nacho.png""]",,,,4,left,keydown(ArrowLeft),false,,1,,,,,,,337321.06500000006,337320.2849999998,335966.478,336256.6200000001,336249.77,337644.997,,7,,
square,canvas.Screen,2_4_3_6_1_0_0_0_0_6_3,2021-05-24T16:13:53.677Z,,,blank.png,blank.png,blank.png,blank.png,blank.png,blank.png,blank.png,"[""nacho.png""]",blank.png,blank.png,blank.png,blank.png,blank.png,,,,,,,,,,,,,,,,,,,,,,,,,,,,,"[""nacho.png""]","[""celery.png""]",PB18.png,,,,,,,,,,,0,6,"[""celery.png""]","[""celery.png""]","[""celery.png""]","[""celery.png""]","[""celery.png""]","[""celery.png""]",blank.png,PB18.png,PB15.png,"[""celery.png""]","[""celery.png""]","[""celery.png""]","[""celery.png""]","[""celery.png""]","[""celery.png""]","[""celery.png""]","[""celery.png""]","[""celery.png""]","[""celery.png""]",blank.png,blank.png,1,"[""nacho.png""]",blank.png,blank.png,blank.png,4,"[""celery.png""]","[""celery.png""]","[""celery.png""]","[""celery.png""]",blank.png,blank.png,PB15.png,,,,,,,,,,,1,,,#33ff3f,#808080,,,,,,,,,1004.8150000000023,,timeout,,,,,,,,,,,,,4,,,,,,,,,,,,,,,,,,,,,,,,,,,,,,,,,,,,,,,,,,,,,,,,,,,,,,,,,"[""celery.png""]","[""nacho.png""]",,,,4,,,false,,1,,,,,black,white,338633.49000000017,338633.069,337599.727,337615.960000001,337644.997,338649.812,,,,
ITI_late,canvas.Screen,2_4_3_6_1_0_0_0_0_6_4,2021-05-24T16:13:54.927Z,,,blank.png,blank.png,blank.png,blank.png,blank.png,blank.png,blank.png,"[""nacho.png""]",blank.png,blank.png,blank.png,blank.png,blank.png,,,,,,,,,,,,,,,,,,,,,,,,,,,,,"[""nacho.png""]","[""celery.png""]",PB18.png,,,,,,,,,,,0,6,"[""celery.png""]","[""celery.png""]","[""celery.png""]","[""celery.png""]","[""celery.png""]","[""celery.png""]",blank.png,PB18.png,PB15.png,"[""celery.png""]","[""celery.png""]","[""celery.png""]","[""celery.png""]","[""celery.png""]","[""celery.png""]","[""celery.png""]","[""celery.png""]","[""celery.png""]","[""celery.png""]",blank.png,blank.png,1,"[""nacho.png""]",blank.png,blank.png,blank.png,4,"[""celery.png""]","[""celery.png""]","[""celery.png""]","[""celery.png""]",blank.png,blank.png,PB15.png,,,,,,,,,,,1,,,,,,,,,,,,,1249.9530000000377,,timeout,,,,,,,,,,,,white,4,,,,,,,,,,,,,,,,,,,,,,,,,,,,,,,,,,,,,,,,,,,,,,,,,,,,,,,,,"[""celery.png""]","[""nacho.png""]",,,,4,,,false,,1,,,,,,,339883.53500000085,339883.137,338633.069,338634.8200000011,338649.812,339899.765,,,,
choice_sequence,flow.Sequence,2_4_3_6_1_0_0_0_0_6,2021-05-24T16:13:54.928Z,,,blank.png,blank.png,blank.png,blank.png,blank.png,blank.png,blank.png,"[""nacho.png""]",blank.png,blank.png,blank.png,blank.png,blank.png,,,,,,,,,,,,,,,,,,,,,,,,,,,,,"[""nacho.png""]","[""celery.png""]",PB18.png,,,,,,,,,,,0,6,"[""celery.png""]","[""celery.png""]","[""celery.png""]","[""celery.png""]","[""celery.png""]","[""celery.png""]",blank.png,PB18.png,PB15.png,"[""celery.png""]","[""celery.png""]","[""celery.png""]","[""celery.png""]","[""celery.png""]","[""celery.png""]","[""celery.png""]","[""celery.png""]","[""celery.png""]","[""celery.png""]",blank.png,blank.png,1,"[""nacho.png""]",blank.png,blank.png,blank.png,4,"[""celery.png""]","[""celery.png""]","[""celery.png""]","[""celery.png""]",blank.png,blank.png,PB15.png,,,,,,,,,,,1,,,,,,,,,,,,,5183.323999999964,,completion,,,,,,,,,,,,,4,,,,,,,,,,,,,,,,,,,,,,,,,,,,,,,,,,,,,,,,,,,,,,,,,,,,,,,,,"[""celery.png""]","[""nacho.png""]",,,,4,,,false,,1,,,,,,,339883.84000000043,339883.137,334683.148,334687.33500000054,334699.813,339899.765,,,,
choice_loop,flow.Loop,2_4_3_6_1_0_0_0_0,2021-05-24T16:13:54.928Z,,,,,,,,,,,,,,,,,,,,,,,,,,,,,,,,,,,,,,,,,,,,"[""nacho.png""]","[""celery.png""]",,,,,,,,,,,,,,,,,,,,,,,,,,,,,,,,,,,,,,,,,,,,,,,,,,,,,,,,,,,,,,,,,,,,,,,33783.33899999998,,completion,,,,,,,,,,,,,,,,,,,,,,,,,,,,,,,,,,,,,,,,,,,,,,,,,,,,,,,,,,,,,,,,,,,,,,"[""celery.png""]","[""nacho.png""]",,,,4,,,false,,,,,,,,,339884.0250000012,339883.137,306083.188,306102.4400000006,306099.798,339899.765,,,,
choice_frame,html.Frame,2_4_3_6_1_0_0_0,2021-05-24T16:13:54.928Z,,,,,,,,,,,,,,,,,,,,,,,,,,,,,,,,,,,,,,,,,,,,,,,,,,,,,,,,,,,,,,,,,,,,,,,,,,,,,,,,,,,,,,,,,,,,,,,,,,,,,,,,,,,,,,,,,,,,33784.276999999944,,,,,,,,,,,,,,,,,,,,,,,,,,,,,,,,,,,,,,,,,,,,,,,,,,,,,,,,,,,,,,,,,,,,,,,,,,,,,4,,,false,,,,,,,,,339884.16000000143,339884.07499999995,306083.188,306083.57500000054,306099.798,339916.47,,,,
sublock_1,flow.Sequence,2_4_3_6_1_0_0,2021-05-24T16:13:54.928Z,,,,,,,,,,,,,,,,,,,,,,,,,,,,,,,,,,,,,,,,,,,,,,,,,,,,,,,,,,,,,,,,,,,,,,,,,,,,,,,,,,,,,,,,,,,,,,,,,,,,,,,,,,,,,,,,,,,,33784.276999999944,,completion,,,,,,,,,,,,,,,,,,,,,,,,,,,,,,,,,,,,,,,,,,,,,,,,,,,,,,,,,,,,,,,,,,,,,,,,,,,4,,,false,,,,,,,,,339884.2400000012,339884.07499999995,306083.188,306083.5500000012,306099.798,339916.47,,,,
fixCross,canvas.Screen,2_4_3_6_1_0_1_0_0_0_0,2021-05-24T16:13:55.194Z,,,blank.png,"[""nacho.png""]",blank.png,blank.png,blank.png,blank.png,blank.png,blank.png,blank.png,blank.png,blank.png,blank.png,blank.png,,,,,,,,,,,,,,,,,,,,,,,,,,,,,"[""nacho.png""]","[""celery.png""]",PB16.png,,,,,,,,,,,0,6,"[""celery.png""]","[""celery.png""]","[""celery.png""]","[""celery.png""]","[""celery.png""]","[""celery.png""]",blank.png,PB18.png,PB18.png,"[""celery.png""]","[""celery.png""]","[""celery.png""]","[""celery.png""]","[""celery.png""]",blank.png,"[""celery.png""]","[""celery.png""]","[""celery.png""]","[""celery.png""]","[""celery.png""]","[""celery.png""]",1,"[""nacho.png""]",blank.png,blank.png,blank.png,5,"[""celery.png""]","[""celery.png""]","[""celery.png""]","[""celery.png""]","[""celery.png""]",blank.png,PB16.png,,,,,,,,,,,1,,,,,,,,,,,,,533.3020000000251,,timeout,,,,,,,,,,,,,3,,,,,,,,,,,,,,,,,,,,,,,,,,,,,,,,,,,,,,,,,,,,,,,,,,,,,,,,,"[""celery.png""]","[""nacho.png""]",,,,3,,,false,,1,,,,,,,340150.13,340149.808,339899.765,339901.3000000013,339916.47,340449.772,8,,,
timeout,canvas.Screen,2_4_3_6_1_0_1_0_0_0_1,2021-05-24T16:13:55.977Z,,,blank.png,"[""nacho.png""]",blank.png,blank.png,blank.png,blank.png,blank.png,blank.png,blank.png,blank.png,blank.png,blank.png,blank.png,,,,,,,,,,,,,,,,,,,,,,,,,,,,,"[""nacho.png""]","[""celery.png""]",PB16.png,,,,,,,,,,,0,6,"[""celery.png""]","[""celery.png""]","[""celery.png""]","[""celery.png""]","[""celery.png""]","[""celery.png""]",blank.png,PB18.png,PB18.png,"[""celery.png""]","[""celery.png""]","[""celery.png""]","[""celery.png""]","[""celery.png""]",blank.png,"[""celery.png""]","[""celery.png""]","[""celery.png""]","[""celery.png""]","[""celery.png""]","[""celery.png""]",1,"[""nacho.png""]",blank.png,blank.png,blank.png,5,"[""celery.png""]","[""celery.png""]","[""celery.png""]","[""celery.png""]","[""celery.png""]",blank.png,PB16.png,,,,,,,,,,,1,,,,,,,,,,,,,799.9710000000196,,timeout,,,,,,,,,,,,,3,,,,,,,,,,,,,,,,,,,,,,,,,,,,,,,,,,,,,,,,,,,,,,,,,,,,,,,,,"[""celery.png""]","[""nacho.png""]",,,,3,,,false,,1,,,,,,,340933.47,340933.121,340149.808,340452.4849999998,340449.772,341249.743,,,,
choice,canvas.Screen,2_4_3_6_1_0_1_0_0_0_2,2021-05-24T16:13:57.165Z,,,blank.png,"[""nacho.png""]",blank.png,blank.png,blank.png,blank.png,blank.png,blank.png,blank.png,blank.png,blank.png,blank.png,blank.png,,,,,,,,,,,,,,,,,,,,,,,,,,,,,"[""nacho.png""]","[""celery.png""]",PB16.png,,,,,,,,,,,0,6,"[""celery.png""]","[""celery.png""]","[""celery.png""]","[""celery.png""]","[""celery.png""]","[""celery.png""]",blank.png,PB18.png,PB18.png,"[""celery.png""]","[""celery.png""]","[""celery.png""]","[""celery.png""]","[""celery.png""]",blank.png,"[""celery.png""]","[""celery.png""]","[""celery.png""]","[""celery.png""]","[""celery.png""]","[""celery.png""]",1,"[""nacho.png""]",blank.png,blank.png,blank.png,5,"[""celery.png""]","[""celery.png""]","[""celery.png""]","[""celery.png""]","[""celery.png""]",blank.png,PB16.png,,,,,,,,,,,1,,,,,,,,,,,,,870.5520000006072,,response,,,,,,,,,,,,,3,,,,,,,,,,,,,,,,,,,,,,,,,,,,,,,,,,,,,,,,,,,,,,,,,,,,,,,,,"[""celery.png""]","[""nacho.png""]",,,,3,left,keydown(ArrowLeft),false,,1,,,,,,,342120.9650000001,342120.2950000006,340933.121,341243.9650000015,341249.743,342433.082,,8,,
square,canvas.Screen,2_4_3_6_1_0_1_0_0_0_3,2021-05-24T16:13:58.461Z,,,blank.png,"[""nacho.png""]",blank.png,blank.png,blank.png,blank.png,blank.png,blank.png,blank.png,blank.png,blank.png,blank.png,blank.png,,,,,,,,,,,,,,,,,,,,,,,,,,,,,"[""nacho.png""]","[""celery.png""]",PB16.png,,,,,,,,,,,0,6,"[""celery.png""]","[""celery.png""]","[""celery.png""]","[""celery.png""]","[""celery.png""]","[""celery.png""]",blank.png,PB18.png,PB18.png,"[""celery.png""]","[""celery.png""]","[""celery.png""]","[""celery.png""]","[""celery.png""]",blank.png,"[""celery.png""]","[""celery.png""]","[""celery.png""]","[""celery.png""]","[""celery.png""]","[""celery.png""]",1,"[""nacho.png""]",blank.png,blank.png,blank.png,5,"[""celery.png""]","[""celery.png""]","[""celery.png""]","[""celery.png""]","[""celery.png""]",blank.png,PB16.png,,,,,,,,,,,1,,,#33ff3f,#808080,,,,,,,,,1000.0009999999893,,timeout,,,,,,,,,,,,,3,,,,,,,,,,,,,,,,,,,,,,,,,,,,,,,,,,,,,,,,,,,,,,,,,,,,,,,,,"[""celery.png""]","[""nacho.png""]",,,,3,,,false,,1,,,,,black,white,343416.9300000012,343416.457,342416.342,342421.38500000146,342433.082,343433.083,,,,
ITI_late,canvas.Screen,2_4_3_6_1_0_1_0_0_0_4,2021-05-24T16:13:59.211Z,,,blank.png,"[""nacho.png""]",blank.png,blank.png,blank.png,blank.png,blank.png,blank.png,blank.png,blank.png,blank.png,blank.png,blank.png,,,,,,,,,,,,,,,,,,,,,,,,,,,,,"[""nacho.png""]","[""celery.png""]",PB16.png,,,,,,,,,,,0,6,"[""celery.png""]","[""celery.png""]","[""celery.png""]","[""celery.png""]","[""celery.png""]","[""celery.png""]",blank.png,PB18.png,PB18.png,"[""celery.png""]","[""celery.png""]","[""celery.png""]","[""celery.png""]","[""celery.png""]",blank.png,"[""celery.png""]","[""celery.png""]","[""celery.png""]","[""celery.png""]","[""celery.png""]","[""celery.png""]",1,"[""nacho.png""]",blank.png,blank.png,blank.png,5,"[""celery.png""]","[""celery.png""]","[""celery.png""]","[""celery.png""]","[""celery.png""]",blank.png,PB16.png,,,,,,,,,,,1,,,,,,,,,,,,,750.0109999999986,,timeout,,,,,,,,,,,,white,3,,,,,,,,,,,,,,,,,,,,,,,,,,,,,,,,,,,,,,,,,,,,,,,,,,,,,,,,,"[""celery.png""]","[""nacho.png""]",,,,3,,,false,,1,,,,,,,344166.795000001,344166.457,343416.457,343417.9550000008,343433.083,344183.094,,,,
choice_sequence,flow.Sequence,2_4_3_6_1_0_1_0_0_0,2021-05-24T16:13:59.211Z,,,blank.png,"[""nacho.png""]",blank.png,blank.png,blank.png,blank.png,blank.png,blank.png,blank.png,blank.png,blank.png,blank.png,blank.png,,,,,,,,,,,,,,,,,,,,,,,,,,,,,"[""nacho.png""]","[""celery.png""]",PB16.png,,,,,,,,,,,0,6,"[""celery.png""]","[""celery.png""]","[""celery.png""]","[""celery.png""]","[""celery.png""]","[""celery.png""]",blank.png,PB18.png,PB18.png,"[""celery.png""]","[""celery.png""]","[""celery.png""]","[""celery.png""]","[""celery.png""]",blank.png,"[""celery.png""]","[""celery.png""]","[""celery.png""]","[""celery.png""]","[""celery.png""]","[""celery.png""]",1,"[""nacho.png""]",blank.png,blank.png,blank.png,5,"[""celery.png""]","[""celery.png""]","[""celery.png""]","[""celery.png""]","[""celery.png""]",blank.png,PB16.png,,,,,,,,,,,1,,,,,,,,,,,,,4249.987000000023,,completion,,,,,,,,,,,,,3,,,,,,,,,,,,,,,,,,,,,,,,,,,,,,,,,,,,,,,,,,,,,,,,,,,,,,,,,"[""celery.png""]","[""nacho.png""]",,,,3,,,false,,1,,,,,,,344167.07500000123,344166.457,339899.765,339900.7900000015,339916.47,344183.094,,,,
fixCross,canvas.Screen,2_4_3_6_1_0_1_0_0_1_0,2021-05-24T16:13:59.861Z,,,blank.png,"[""nacho.png""]",blank.png,blank.png,blank.png,blank.png,blank.png,blank.png,blank.png,blank.png,blank.png,blank.png,blank.png,,,,,,,,,,,,,,,,,,,,,,,,,,,,,"[""nacho.png""]","[""celery.png""]",PB01.png,,,,,,,,,,,0,6,"[""celery.png""]","[""celery.png""]","[""celery.png""]","[""celery.png""]","[""celery.png""]","[""celery.png""]",blank.png,PB18.png,PB18.png,blank.png,blank.png,blank.png,blank.png,blank.png,blank.png,"[""celery.png""]","[""celery.png""]","[""celery.png""]","[""celery.png""]","[""celery.png""]","[""celery.png""]",1,"[""nacho.png""]",blank.png,blank.png,blank.png,0,blank.png,blank.png,blank.png,blank.png,blank.png,blank.png,PB01.png,,,,,,,,,,,1,,,,,,,,,,,,,866.6350000000093,,timeout,,,,,,,,,,,,,3,,,,,,,,,,,,,,,,,,,,,,,,,,,,,,,,,,,,,,,,,,,,,,,,,,,,,,,,,"[""celery.png""]","[""nacho.png""]",,,,3,,,false,,1,,,,,,,344816.7850000009,344816.457,344166.457,344172.50500000047,344183.094,345049.729,9,,,
timeout,canvas.Screen,2_4_3_6_1_0_1_0_0_1_1,2021-05-24T16:14:00.577Z,,,blank.png,"[""nacho.png""]",blank.png,blank.png,blank.png,blank.png,blank.png,blank.png,blank.png,blank.png,blank.png,blank.png,blank.png,,,,,,,,,,,,,,,,,,,,,,,,,,,,,"[""nacho.png""]","[""celery.png""]",PB01.png,,,,,,,,,,,0,6,"[""celery.png""]","[""celery.png""]","[""celery.png""]","[""celery.png""]","[""celery.png""]","[""celery.png""]",blank.png,PB18.png,PB18.png,blank.png,blank.png,blank.png,blank.png,blank.png,blank.png,"[""celery.png""]","[""celery.png""]","[""celery.png""]","[""celery.png""]","[""celery.png""]","[""celery.png""]",1,"[""nacho.png""]",blank.png,blank.png,blank.png,0,blank.png,blank.png,blank.png,blank.png,blank.png,blank.png,PB01.png,,,,,,,,,,,1,,,,,,,,,,,,,716.6959999999963,,timeout,,,,,,,,,,,,,3,,,,,,,,,,,,,,,,,,,,,,,,,,,,,,,,,,,,,,,,,,,,,,,,,,,,,,,,,"[""celery.png""]","[""nacho.png""]",,,,3,,,false,,1,,,,,,,345533.41000000003,345533.083,344816.457,345048.5349999999,345049.729,345766.425,,,,
choice,canvas.Screen,2_4_3_6_1_0_1_0_0_1_2,2021-05-24T16:14:01.517Z,,,blank.png,"[""nacho.png""]",blank.png,blank.png,blank.png,blank.png,blank.png,blank.png,blank.png,blank.png,blank.png,blank.png,blank.png,,,,,,,,,,,,,,,,,,,,,,,,,,,,,"[""nacho.png""]","[""celery.png""]",PB01.png,,,,,,,,,,,0,6,"[""celery.png""]","[""celery.png""]","[""celery.png""]","[""celery.png""]","[""celery.png""]","[""celery.png""]",blank.png,PB18.png,PB18.png,blank.png,blank.png,blank.png,blank.png,blank.png,blank.png,"[""celery.png""]","[""celery.png""]","[""celery.png""]","[""celery.png""]","[""celery.png""]","[""celery.png""]",1,"[""nacho.png""]",blank.png,blank.png,blank.png,0,blank.png,blank.png,blank.png,blank.png,blank.png,blank.png,PB01.png,,,,,,,,,,,1,,,,,,,,,,,,,705.8400000003749,,response,,,,,,,,,,,,,3,,,,,,,,,,,,,,,,,,,,,,,,,,,,,,,,,,,,,,,,,,,,,,,,,,,,,,,,,"[""celery.png""]","[""nacho.png""]",,,,3,right,keydown(ArrowRight),false,,1,,,,,,,346473.0650000001,346472.26500000036,345533.083,345773.6700000005,345766.425,346716.409,,9,,
square,canvas.Screen,2_4_3_6_1_0_1_0_0_1_3,2021-05-24T16:14:02.744Z,,,blank.png,"[""nacho.png""]",blank.png,blank.png,blank.png,blank.png,blank.png,blank.png,blank.png,blank.png,blank.png,blank.png,blank.png,,,,,,,,,,,,,,,,,,,,,,,,,,,,,"[""nacho.png""]","[""celery.png""]",PB01.png,,,,,,,,,,,0,6,"[""celery.png""]","[""celery.png""]","[""celery.png""]","[""celery.png""]","[""celery.png""]","[""celery.png""]",blank.png,PB18.png,PB18.png,blank.png,blank.png,blank.png,blank.png,blank.png,blank.png,"[""celery.png""]","[""celery.png""]","[""celery.png""]","[""celery.png""]","[""celery.png""]","[""celery.png""]",1,"[""nacho.png""]",blank.png,blank.png,blank.png,0,blank.png,blank.png,blank.png,blank.png,blank.png,blank.png,PB01.png,,,,,,,,,,,1,,,#808080,#33ff3f,,,,,,,,,1000.0460000000312,,timeout,,,,,,,,,,,,,3,,,,,,,,,,,,,,,,,,,,,,,,,,,,,,,,,,,,,,,,,,,,,,,,,,,,,,,,,"[""celery.png""]","[""nacho.png""]",,,,3,,,false,,1,,,,,white,black,347700.2499999999,347699.785,346699.708,346703.3300000003,346716.409,347716.455,,,,
ITI_late,canvas.Screen,2_4_3_6_1_0_1_0_0_1_4,2021-05-24T16:14:03.744Z,,,blank.png,"[""nacho.png""]",blank.png,blank.png,blank.png,blank.png,blank.png,blank.png,blank.png,blank.png,blank.png,blank.png,blank.png,,,,,,,,,,,,,,,,,,,,,,,,,,,,,"[""nacho.png""]","[""celery.png""]",PB01.png,,,,,,,,,,,0,6,"[""celery.png""]","[""celery.png""]","[""celery.png""]","[""celery.png""]","[""celery.png""]","[""celery.png""]",blank.png,PB18.png,PB18.png,blank.png,blank.png,blank.png,blank.png,blank.png,blank.png,"[""celery.png""]","[""celery.png""]","[""celery.png""]","[""celery.png""]","[""celery.png""]","[""celery.png""]",1,"[""nacho.png""]",blank.png,blank.png,blank.png,0,blank.png,blank.png,blank.png,blank.png,blank.png,blank.png,PB01.png,,,,,,,,,,,1,,,,,,,,,,,,,1000.0029999999679,,timeout,,,,,,,,,,,,white,3,,,,,,,,,,,,,,,,,,,,,,,,,,,,,,,,,,,,,,,,,,,,,,,,,,,,,,,,,"[""celery.png""]","[""nacho.png""]",,,,3,,,false,,1,,,,,,,348700.1500000006,348699.784,347699.785,347701.27500000125,347716.455,348716.458,,,,
choice_sequence,flow.Sequence,2_4_3_6_1_0_1_0_0_1,2021-05-24T16:14:03.744Z,,,blank.png,"[""nacho.png""]",blank.png,blank.png,blank.png,blank.png,blank.png,blank.png,blank.png,blank.png,blank.png,blank.png,blank.png,,,,,,,,,,,,,,,,,,,,,,,,,,,,,"[""nacho.png""]","[""celery.png""]",PB01.png,,,,,,,,,,,0,6,"[""celery.png""]","[""celery.png""]","[""celery.png""]","[""celery.png""]","[""celery.png""]","[""celery.png""]",blank.png,PB18.png,PB18.png,blank.png,blank.png,blank.png,blank.png,blank.png,blank.png,"[""celery.png""]","[""celery.png""]","[""celery.png""]","[""celery.png""]","[""celery.png""]","[""celery.png""]",1,"[""nacho.png""]",blank.png,blank.png,blank.png,0,blank.png,blank.png,blank.png,blank.png,blank.png,blank.png,PB01.png,,,,,,,,,,,1,,,,,,,,,,,,,4516.690000000002,,completion,,,,,,,,,,,,,3,,,,,,,,,,,,,,,,,,,,,,,,,,,,,,,,,,,,,,,,,,,,,,,,,,,,,,,,,"[""celery.png""]","[""nacho.png""]",,,,3,,,false,,1,,,,,,,348700.42000000103,348699.784,344166.457,344171.61000000127,344183.094,348716.458,,,,
fixCross,canvas.Screen,2_4_3_6_1_0_1_0_0_2_0,2021-05-24T16:14:04.344Z,,,blank.png,blank.png,blank.png,blank.png,blank.png,blank.png,blank.png,"[""nacho.png""]",blank.png,blank.png,blank.png,blank.png,blank.png,,,,,,,,,,,,,,,,,,,,,,,,,,,,,"[""nacho.png""]","[""celery.png""]",PB18.png,,,,,,,,,,,0,6,"[""celery.png""]","[""celery.png""]","[""celery.png""]","[""celery.png""]","[""celery.png""]","[""celery.png""]",blank.png,PB18.png,PB15.png,"[""celery.png""]","[""celery.png""]","[""celery.png""]","[""celery.png""]","[""celery.png""]","[""celery.png""]","[""celery.png""]","[""celery.png""]","[""celery.png""]","[""celery.png""]",blank.png,blank.png,1,"[""nacho.png""]",blank.png,blank.png,blank.png,4,"[""celery.png""]","[""celery.png""]","[""celery.png""]","[""celery.png""]",blank.png,blank.png,PB15.png,,,,,,,,,,,1,,,,,,,,,,,,,866.6440000000293,,timeout,,,,,,,,,,,,,4,,,,,,,,,,,,,,,,,,,,,,,,,,,,,,,,,,,,,,,,,,,,,,,,,,,,,,,,,"[""celery.png""]","[""nacho.png""]",,,,3,,,false,,1,,,,,,,349300.1600000007,349299.784,348699.784,348705.7650000006,348716.458,349583.102,10,,,
timeout,canvas.Screen,2_4_3_6_1_0_1_0_0_2_1,2021-05-24T16:14:05.111Z,,,blank.png,blank.png,blank.png,blank.png,blank.png,blank.png,blank.png,"[""nacho.png""]",blank.png,blank.png,blank.png,blank.png,blank.png,,,,,,,,,,,,,,,,,,,,,,,,,,,,,"[""nacho.png""]","[""celery.png""]",PB18.png,,,,,,,,,,,0,6,"[""celery.png""]","[""celery.png""]","[""celery.png""]","[""celery.png""]","[""celery.png""]","[""celery.png""]",blank.png,PB18.png,PB15.png,"[""celery.png""]","[""celery.png""]","[""celery.png""]","[""celery.png""]","[""celery.png""]","[""celery.png""]","[""celery.png""]","[""celery.png""]","[""celery.png""]","[""celery.png""]",blank.png,blank.png,1,"[""nacho.png""]",blank.png,blank.png,blank.png,4,"[""celery.png""]","[""celery.png""]","[""celery.png""]","[""celery.png""]",blank.png,blank.png,PB15.png,,,,,,,,,,,1,,,,,,,,,,,,,783.2739999999758,,timeout,,,,,,,,,,,,,4,,,,,,,,,,,,,,,,,,,,,,,,,,,,,,,,,,,,,,,,,,,,,,,,,,,,,,,,,"[""celery.png""]","[""nacho.png""]",,,,3,,,false,,1,,,,,,,350066.8100000003,350066.449,349299.784,349584.86000000086,349583.102,350366.376,,,,
choice,canvas.Screen,2_4_3_6_1_0_1_0_0_2_2,2021-05-24T16:14:05.981Z,,,blank.png,blank.png,blank.png,blank.png,blank.png,blank.png,blank.png,"[""nacho.png""]",blank.png,blank.png,blank.png,blank.png,blank.png,,,,,,,,,,,,,,,,,,,,,,,,,,,,,"[""nacho.png""]","[""celery.png""]",PB18.png,,,,,,,,,,,0,6,"[""celery.png""]","[""celery.png""]","[""celery.png""]","[""celery.png""]","[""celery.png""]","[""celery.png""]",blank.png,PB18.png,PB15.png,"[""celery.png""]","[""celery.png""]","[""celery.png""]","[""celery.png""]","[""celery.png""]","[""celery.png""]","[""celery.png""]","[""celery.png""]","[""celery.png""]","[""celery.png""]",blank.png,blank.png,1,"[""nacho.png""]",blank.png,blank.png,blank.png,4,"[""celery.png""]","[""celery.png""]","[""celery.png""]","[""celery.png""]",blank.png,blank.png,PB15.png,,,,,,,,,,,1,,,,,,,,,,,,,569.8590000010445,,response,,,,,,,,,,,,,4,,,,,,,,,,,,,,,,,,,,,,,,,,,,,,,,,,,,,,,,,,,,,,,,,,,,,,,,,"[""celery.png""]","[""nacho.png""]",,,,3,left,keydown(ArrowLeft),false,,1,,,,,,,350936.8450000002,350936.23500000103,350066.449,350364.6349999999,350366.376,351233.1,,10,,
square,canvas.Screen,2_4_3_6_1_0_1_0_0_2_3,2021-05-24T16:14:07.261Z,,,blank.png,blank.png,blank.png,blank.png,blank.png,blank.png,blank.png,"[""nacho.png""]",blank.png,blank.png,blank.png,blank.png,blank.png,,,,,,,,,,,,,,,,,,,,,,,,,,,,,"[""nacho.png""]","[""celery.png""]",PB18.png,,,,,,,,,,,0,6,"[""celery.png""]","[""celery.png""]","[""celery.png""]","[""celery.png""]","[""celery.png""]","[""celery.png""]",blank.png,PB18.png,PB15.png,"[""celery.png""]","[""celery.png""]","[""celery.png""]","[""celery.png""]","[""celery.png""]","[""celery.png""]","[""celery.png""]","[""celery.png""]","[""celery.png""]","[""celery.png""]",blank.png,blank.png,1,"[""nacho.png""]",blank.png,blank.png,blank.png,4,"[""celery.png""]","[""celery.png""]","[""celery.png""]","[""celery.png""]",blank.png,blank.png,PB15.png,,,,,,,,,,,1,,,#33ff3f,#808080,,,,,,,,,999.9670000000042,,timeout,,,,,,,,,,,,,4,,,,,,,,,,,,,,,,,,,,,,,,,,,,,,,,,,,,,,,,,,,,,,,,,,,,,,,,,"[""celery.png""]","[""nacho.png""]",,,,3,,,false,,1,,,,,black,white,352216.8099999999,352216.446,351216.374,351220.8550000014,351233.1,352233.067,,,,
ITI_late,canvas.Screen,2_4_3_6_1_0_1_0_0_2_4,2021-05-24T16:14:07.511Z,,,blank.png,blank.png,blank.png,blank.png,blank.png,blank.png,blank.png,"[""nacho.png""]",blank.png,blank.png,blank.png,blank.png,blank.png,,,,,,,,,,,,,,,,,,,,,,,,,,,,,"[""nacho.png""]","[""celery.png""]",PB18.png,,,,,,,,,,,0,6,"[""celery.png""]","[""celery.png""]","[""celery.png""]","[""celery.png""]","[""celery.png""]","[""celery.png""]",blank.png,PB18.png,PB15.png,"[""celery.png""]","[""celery.png""]","[""celery.png""]","[""celery.png""]","[""celery.png""]","[""celery.png""]","[""celery.png""]","[""celery.png""]","[""celery.png""]","[""celery.png""]",blank.png,blank.png,1,"[""nacho.png""]",blank.png,blank.png,blank.png,4,"[""celery.png""]","[""celery.png""]","[""celery.png""]","[""celery.png""]",blank.png,blank.png,PB15.png,,,,,,,,,,,1,,,,,,,,,,,,,249.98500000004424,,timeout,,,,,,,,,,,,white,4,,,,,,,,,,,,,,,,,,,,,,,,,,,,,,,,,,,,,,,,,,,,,,,,,,,,,,,,,"[""celery.png""]","[""nacho.png""]",,,,3,,,false,,1,,,,,,,352466.7700000009,352466.447,352216.446,352217.8949999998,352233.067,352483.052,,,,
