sender,sender_type,sender_id,timestamp,meta,,Blank,DownLeft1,DownLeft2,DownLeft3,DownLeft4,DownLeft5,DownLeft6,DownRight1,DownRight2,DownRight3,DownRight4,DownRight5,DownRight6,FoodHabits_Fru_item1,FoodHabits_Fru_item2,FoodHabits_Fru_item3,FoodHabits_Fru_item4,FoodHabits_Fru_item5,FoodHabits_Fru_item6,FoodHabits_Fru_item7,FoodHabits_Meat_item1,FoodHabits_Meat_item2,FoodHabits_Meat_item3,FoodHabits_Meat_item4,FoodHabits_Meat_item5,FoodHabits_Meat_item6,FoodHabits_Meat_item7,FoodHabits_Swe_item1,FoodHabits_Swe_item2,FoodHabits_Swe_item3,FoodHabits_Swe_item4,FoodHabits_Swe_item5,FoodHabits_Swe_item6,FoodHabits_Swe_item7,FoodHabits_Veg_item1,FoodHabits_Veg_item2,FoodHabits_Veg_item3,FoodHabits_Veg_item4,FoodHabits_Veg_item5,FoodHabits_Veg_item6,FoodHabits_Veg_item7,ImgA,ImgB,LeftBar,PSS_item01,PSS_item02,PSS_item03,PSS_item04,PSS_item05,PSS_item06,PSS_item07,PSS_item08,PSS_item09,PSS_item10,RefA,RefB,RefB1,RefB2,RefB3,RefB4,RefB5,RefB6,RefB7,Ref_PB,RightBar,UpLeft1,UpLeft2,UpLeft3,UpLeft4,UpLeft5,UpLeft6,UpRight1,UpRight2,UpRight3,UpRight4,UpRight5,UpRight6,VarA,VarA1,VarA2,VarA3,VarA4,VarB,VarB1,VarB2,VarB3,VarB4,VarB5,VarB6,Var_PB,attCheck_fileA,attCheck_fileB,attCheck_fileC,attCheck_fileD,attCheck_options,attCheck_valueA,attCheck_valueB,attCheck_valueC,attCheck_valueD,attention_check,block,browser_name,choseL,choseR,consent_form1,consent_form2,consentconfirmation_form1,consentconfirmation_form2,correct,correctResponse,diet,disorder,duration,edu,ended_on,enjoy,full_version,gender,group,hunger,img,imgTask,input_age,input_meal,input_occ,input_remark,lateRespFeed,list,major_version,message,mixQ_item1,mixQ_item2,mixQ_item3,mixQ_item4,mixQ_item5,name,navigator_appName,navigator_userAgent,os,pracQ1_IDa,pracQ1_IDb,pracQ1_IDc,pracQ1_IDd,pracQ1_optionA,pracQ1_optionB,pracQ1_optionC,pracQ1_optionD,pracQ1_valueA,pracQ1_valueB,pracQ1_valueC,pracQ1_valueD,pracQ2_IDa,pracQ2_IDb,pracQ2_IDc,pracQ2_optionA,pracQ2_optionB,pracQ2_optionC,pracQ2_valueA,pracQ2_valueB,pracQ2_valueC,pracQ4_IDa,pracQ4_IDb,pracQ4_IDc,pracQ4_IDd,pracQ4_optionA,pracQ4_optionB,pracQ4_optionC,pracQ4_optionD,pracQ4_valueA,pracQ4_valueB,pracQ4_valueC,pracQ4_valueD,pracQ5_IDa,pracQ5_IDb,pracQ5_IDc,pracQ5_IDd,pracQ5_optionA,pracQ5_optionB,pracQ5_optionC,pracQ5_optionD,pracQ5_valueA,pracQ5_valueB,pracQ5_valueC,pracQ5_valueD,prefHealty,prefUnhealthy,prolific_ID,psessionID,pstudyID,rep,response,response_action,skip,snack,sublock,subtitle,task_difficulty,task_engagement,task_focus,textL,textR,time_commit,time_end,time_render,time_run,time_show,time_switch,trial_count,trial_countO,url,valence
Title,html.Page,0,2021-01-14T21:21:56.779Z,"{""labjs_version"":""20.1.1"",""labjs_build"":{""flavor"":""production"",""commit"":""c48ac4ada3769e8d34489594ab03097d5f256ac7""},""location"":""https://run.pavlovia.org/E3lab/rebund/html/?PROLIFIC_PID={{%PROLIFIC_PID%}}&STUDY_ID={{%STUDY_ID%}}&SESSION_ID={{%SESSION_ID%}}"",""userAgent"":""Mozilla/5.0 (Macintosh; Intel Mac OS X 10_14_6) AppleWebKit/537.36 (KHTML, like Gecko) Chrome/87.0.4280.88 Safari/537.36"",""platform"":""MacIntel"",""language"":""en-GB"",""locale"":""en-GB"",""timeZone"":""Europe/London"",""timezoneOffset"":0,""screen_width"":1280,""screen_height"":800,""scroll_width"":1280,""scroll_height"":618,""window_innerWidth"":1280,""window_innerHeight"":666,""devicePixelRatio"":1}",,,,,,,,,,,,,,,,,,,,,,,,,,,,,,,,,,,,,,,,,,,,,,,,,,,,,,,,,,,,,,,,,,,,,,,,,,,,,,,,,,,,,,,,,,,,,,,,,,,,,,,,,,,,,,,,,,8670.169000007561,,form submission,,,,,,,,,,,,,,,,,,,,,,,,,,,,,,,,,,,,,,,,,,,,,,,,,,,,,,,,,,,,,,,,,,,,,,,,,,,,,,,,,,,,,,,9974.619999993593,9973.995000007562,1270.574,1307.150000007823,1303.826,9982.598,,,"{""PROLIFIC_PID"":""{{%PROLIFIC_PID%}}"",""STUDY_ID"":""{{%STUDY_ID%}}"",""SESSION_ID"":""{{%SESSION_ID%}}""}",
get_systemInfo,canvas.Screen,1,2021-01-14T21:21:56.798Z,,,,,,,,,,,,,,,,,,,,,,,,,,,,,,,,,,,,,,,,,,,,,,,,,,,,,,,,,,,,,,,,,,,,,,,,,,,,,,,,,,,,,,,,,,,,,,,,,,,,,,,,Chrome,,,,,,,,,,,8064.581,,timeout,,87.0.4280.88,,,,,,,,,,,,87,,,,,,,,Netscape,"Mozilla/5.0 (Macintosh; Intel Mac OS X 10_14_6) AppleWebKit/537.36 (KHTML, like Gecko) Chrome/87.0.4280.88 Safari/537.36",MacOS,,,,,,,,,,,,,,,,,,,,,,,,,,,,,,,,,,,,,,,,,,,,,,,,{{%PROLIFIC_PID%}},,{{%STUDY_ID%}},,,,,,,,,,,,,9993.799999938346,9993.409999995492,9965.972,9976.37000004761,9982.598,18047.179,,,,
ConsentForm,html.Form,2_0,2021-01-14T21:22:37.864Z,,,,,,,,,,,,,,,,,,,,,,,,,,,,,,,,,,,,,,,,,,,,,,,,,,,,,,,,,,,,,,,,,,,,,,,,,,,,,,,,,,,,,,,,,,,,,,,,,,,,,,,,,,,true,true,,,,,,,33013.47099999944,,form submission,,,,,,,,,,,,,,,,,,,,,,,,,,,,,,,,,,,,,,,,,,,,,,,,,,,,,,,,,,,,,,,,,,,,,,,,,,,,,,,,,,,,,,,51060.99999998696,51060.64999999944,9993.409999995492,18060.48500002362,18047.179,51069.039,,,,
PepTalk,html.Page,2_1,2021-01-14T21:22:55.659Z,,,,,,,,,,,,,,,,,,,,,,,,,,,,,,,,,,,,,,,,,,,,,,,,,,,,,,,,,,,,,,,,,,,,,,,,,,,,,,,,,,,,,,,,,,,,,,,,,,,,,,,,,,,,,,,,,,,17786.641000036958,,form submission,,,,,,,,,,,,,,,,,,,,,,,,,,,,,,,,,,,,,,,,,,,,,,,,,,,,,,,,,,,,,,,,,,,,,,,,,,,,,,,,,,,,,,,68856.0249999864,68855.68000003695,51052.413,51061.21499999426,51069.039,68861.152,,,,
Demographics,html.Form,2_2,2021-01-14T21:23:28.033Z,,,,,,,,,,,,,,,,,,,,,,,,,,,,,,,,,,,,,,,,,,,,,,,,,,,,,,,,,,,,,,,,,,,,,,,,,,,,,,,,,,,,,,,,,,,,,,,,,,,,,,,,,,,,,,,,,,,32369.6579999791,6,form submission,,,2,,,,,65,,Builder,,,,,,,,,,,,,,,,,,,,,,,,,,,,,,,,,,,,,,,,,,,,,,,,,,,,,,,,,,,,,,,,,,,,,,,,,,,,,101231.15000000689,101230.8099999791,68844.526,68856.23000003397,68861.152,101234.839,,,,
InclusionCrit,html.Form,2_3,2021-01-14T21:23:50.608Z,,,,,,,,,,,,,,,,,,,,,,,,,,,,,,,,,,,,,,,,,,,,,,,,,,,,,,,,,,,,,,,,,,,,,,,,,,,,,,,,,,,,,,,,,,,,,,,,,,,,,,,,,,,,,,,,,1,1,22571.626000030577,,form submission,1,,,,,,,,,,,,,,,,,,,,,,,,,,,,,,,,,,,,,,,,,,,,,,,,,,,,,,,,,,,,,,,,,,,,,,,,,,,,,,,,,,,,,,123806.77499994636,123806.46500003058,101218.213,101231.4250000054,101234.839,123814.753,,,,
Selection,html.Page,2_4_0,2021-01-14T21:24:06.116Z,,,,,,,,,,,,,,,,,,,,,,,,,,,,,,,,,,,,,,,,,,,,,,,,,,,,,,,,,,,,,,,,,,,,,,,,,,,,,,,,,,,,,,,,,,,,,,,,,,,,,,,,,,,,,,,,,,,15499.136999990355,,form submission,,,,,,,,,,,,,,,,,,,,,,,,,,,,,,,,,,,,,,,,,,,,,,,,,,,,,,,,,,,,,,,,,,,,,,,,,,,,,,,0,,,,,,,,139314.23000001814,139313.88999999035,123798.127,123807.06999998074,123814.753,139328.258,,,,
Load,html.Page,2_4_1,2021-01-14T21:24:06.132Z,,,,,,,,,,,,,,,,,,,,,,,,,,,,,,,,,,,,,,,,,,,,,,,,,,,,,,,,,,,,,,,,,,,,,,,,,,,,,,,,,,,,,,,,,,,,,,,,,,,,,,,,,,,,,,,,,,,2344.2660000000033,,timeout,,,,,,,,,,,,,,,,,,,,,,,,,,,,,,,,,,,,,,,,,,,,,,,,,,,,,,,,,,,,,,,,,,,,,,,,,,,,,,,,,,,,,,,139330.46500000637,139330.1349999383,139311.632,139314.50500001665,139328.258,141672.524,,,,
ratings_instructions,html.Screen,2_4_2_0,2021-01-14T21:24:40.455Z,,,,,,,,,,,,,,,,,,,,,,,,,,,,,,,,,,,,,,,,,,,,,,,,,,,,,,,,,,,,,,,,,,,,,,,,,,,,,,,,,,,,,,,,,,,,,,,,,,,,,,,,,,,,,,,,,,,31976.92600002626,,response,,,,,,,,,,,,,,,,,,,,,,,,,,,,,,,,,,,,,,,,,,,,,,,,,,,,,,,,,,,,,,,,,,,,,,,,,,,,continue,keypress(Space),false,,,,,,,,,173654.60999996867,173649.45000002626,139330.1349999383,141726.66499996558,141672.524,173660.948,0,0,,
fixCross,canvas.Screen,2_4_2_1_0_0,2021-01-14T21:24:40.945Z,,,,,,,,,,,,,,,,,,,,,,,,,,,,,,,,,,,,,,,,,,,,,,,,,,,,,,,,,,,,,,,,,,,,,,,,,,,,,,,,,,,,,,,,,,,,,,,,,,,,,,,,,,,,,,,,,,,498.77999999999884,,timeout,,,,unhealthy,,chocolate_truffle.png,,,,,,,,,,,,,,,chocolate truffle,,,,,,,,,,,,,,,,,,,,,,,,,,,,,,,,,,,,,,,,,,,,,,,,,,,,,,,,,false,,,,,,,,,174144.8800000362,174143.102,173644.322,173655.03000002354,173660.948,174159.728,,,,
Rating,html.Form,2_4_2_1_0_1,2021-01-14T21:24:53.375Z,,,,,,,,,,,,,,,,,,,,,,,,,,,,,,,,,,,,,,,,,,,,,,,,,,,,,,,,,,,,,,,,,,,,,,,,,,,,,,,,,,,,,,,,,,,,,,,,,,,,,,,,,,,,,,,,,,,12414.76200002816,,form submission,,,,unhealthy,,chocolate_truffle.png,,,,,,,,,,,,,,,chocolate truffle,,,,,,,,,,,,,,,,,,,,,,,,,,,,,,,,,,,,,,,,,,,,,,,,,,,,,,,,,false,,,,,,,,,186574.85999993514,186574.49000002816,174143.102,174145.0349999359,174159.728,186583.746,,,,87
rating_sequence,flow.Sequence,2_4_2_1_0,2021-01-14T21:24:53.377Z,,,,,,,,,,,,,,,,,,,,,,,,,,,,,,,,,,,,,,,,,,,,,,,,,,,,,,,,,,,,,,,,,,,,,,,,,,,,,,,,,,,,,,,,,,,,,,,,,,,,,,,,,,,,,,,,,,,12913.54200002816,,completion,,,,unhealthy,,chocolate_truffle.png,,,,,,,,,,,,,,,chocolate truffle,,,,,,,,,,,,,,,,,,,,,,,,,,,,,,,,,,,,,,,,,,,,,,,,,,,,,,,,,false,,,,,,,,,186577.0499999635,186574.49000002816,173644.322,173654.974999954,173660.948,186583.746,,,,
fixCross,canvas.Screen,2_4_2_1_1_0,2021-01-14T21:24:53.869Z,,,,,,,,,,,,,,,,,,,,,,,,,,,,,,,,,,,,,,,,,,,,,,,,,,,,,,,,,,,,,,,,,,,,,,,,,,,,,,,,,,,,,,,,,,,,,,,,,,,,,,,,,,,,,,,,,,,498.77999999999884,,timeout,,,,healthy,,grape.png,,,,,,,,,,,,,,,grape,,,,,,,,,,,,,,,,,,,,,,,,,,,,,,,,,,,,,,,,,,,,,,,,,,,,,,,,,false,,,,,,,,,187068.25000001118,187065.9,186567.12,186577.2649999708,186583.746,187082.526,,,,
Rating,html.Form,2_4_2_1_1_1,2021-01-14T21:24:59.803Z,,,,,,,,,,,,,,,,,,,,,,,,,,,,,,,,,,,,,,,,,,,,,,,,,,,,,,,,,,,,,,,,,,,,,,,,,,,,,,,,,,,,,,,,,,,,,,,,,,,,,,,,,,,,,,,,,,,5919.623999956588,,form submission,,,,healthy,,grape.png,,,,,,,,,,,,,,,grape,,,,,,,,,,,,,,,,,,,,,,,,,,,,,,,,,,,,,,,,,,,,,,,,,,,,,,,,,false,,,,,,,,,193002.45000002906,193002.1499999566,187065.9,187068.39499995112,187082.526,193018.008,,,,68
rating_sequence,flow.Sequence,2_4_2_1_1,2021-01-14T21:24:59.803Z,,,,,,,,,,,,,,,,,,,,,,,,,,,,,,,,,,,,,,,,,,,,,,,,,,,,,,,,,,,,,,,,,,,,,,,,,,,,,,,,,,,,,,,,,,,,,,,,,,,,,,,,,,,,,,,,,,,6418.403999956587,,completion,,,,healthy,,grape.png,,,,,,,,,,,,,,,grape,,,,,,,,,,,,,,,,,,,,,,,,,,,,,,,,,,,,,,,,,,,,,,,,,,,,,,,,,false,,,,,,,,,193002.69999995362,193002.1499999566,186567.12,186577.21000001766,186583.746,193018.008,,,,
fixCross,canvas.Screen,2_4_2_1_2_0,2021-01-14T21:25:00.302Z,,,,,,,,,,,,,,,,,,,,,,,,,,,,,,,,,,,,,,,,,,,,,,,,,,,,,,,,,,,,,,,,,,,,,,,,,,,,,,,,,,,,,,,,,,,,,,,,,,,,,,,,,,,,,,,,,,,498.77999999999884,,timeout,,,,healthy,,cherry.png,,,,,,,,,,,,,,,cherry,,,,,,,,,,,,,,,,,,,,,,,,,,,,,,,,,,,,,,,,,,,,,,,,,,,,,,,,,false,,,,,,,,,193501.94500002544,193500.162,193001.382,193002.84500000998,193018.008,193516.788,,,,
Rating,html.Form,2_4_2_1_2_1,2021-01-14T21:25:05.162Z,,,,,,,,,,,,,,,,,,,,,,,,,,,,,,,,,,,,,,,,,,,,,,,,,,,,,,,,,,,,,,,,,,,,,,,,,,,,,,,,,,,,,,,,,,,,,,,,,,,,,,,,,,,,,,,,,,,4845.271999955818,,form submission,,,,healthy,,cherry.png,,,,,,,,,,,,,,,cherry,,,,,,,,,,,,,,,,,,,,,,,,,,,,,,,,,,,,,,,,,,,,,,,,,,,,,,,,,false,,,,,,,,,198362.34999995213,198362.05999995582,193500.162,193502.1049999632,193516.788,198372.484,,,,43
rating_sequence,flow.Sequence,2_4_2_1_2,2021-01-14T21:25:05.163Z,,,,,,,,,,,,,,,,,,,,,,,,,,,,,,,,,,,,,,,,,,,,,,,,,,,,,,,,,,,,,,,,,,,,,,,,,,,,,,,,,,,,,,,,,,,,,,,,,,,,,,,,,,,,,,,,,,,5344.051999955816,,completion,,,,healthy,,cherry.png,,,,,,,,,,,,,,,cherry,,,,,,,,,,,,,,,,,,,,,,,,,,,,,,,,,,,,,,,,,,,,,,,,,,,,,,,,,false,,,,,,,,,198362.5849999953,198362.05999995582,193001.382,193002.80000001658,193018.008,198372.484,,,,
fixCross,canvas.Screen,2_4_2_1_3_0,2021-01-14T21:25:05.657Z,,,,,,,,,,,,,,,,,,,,,,,,,,,,,,,,,,,,,,,,,,,,,,,,,,,,,,,,,,,,,,,,,,,,,,,,,,,,,,,,,,,,,,,,,,,,,,,,,,,,,,,,,,,,,,,,,,,498.77999999999884,,timeout,,,,unhealthy,,m&m.png,,,,,,,,,,,,,,,m&m,,,,,,,,,,,,,,,,,,,,,,,,,,,,,,,,,,,,,,,,,,,,,,,,,,,,,,,,,false,,,,,,,,,198856.83499998413,198854.638,198355.858,198362.74500004947,198372.484,198871.264,,,,
Rating,html.Form,2_4_2_1_3_1,2021-01-14T21:25:11.454Z,,,,,,,,,,,,,,,,,,,,,,,,,,,,,,,,,,,,,,,,,,,,,,,,,,,,,,,,,,,,,,,,,,,,,,,,,,,,,,,,,,,,,,,,,,,,,,,,,,,,,,,,,,,,,,,,,,,5782.546000047092,,form submission,,,,unhealthy,,m&m.png,,,,,,,,,,,,,,,m&m,,,,,,,,,,,,,,,,,,,,,,,,,,,,,,,,,,,,,,,,,,,,,,,,,,,,,,,,,false,,,,,,,,,204654.08999996725,204653.8100000471,198854.638,198856.9800000405,198871.264,204657.112,,,,89
rating_sequence,flow.Sequence,2_4_2_1_3,2021-01-14T21:25:11.454Z,,,,,,,,,,,,,,,,,,,,,,,,,,,,,,,,,,,,,,,,,,,,,,,,,,,,,,,,,,,,,,,,,,,,,,,,,,,,,,,,,,,,,,,,,,,,,,,,,,,,,,,,,,,,,,,,,,,6281.326000047091,,completion,,,,unhealthy,,m&m.png,,,,,,,,,,,,,,,m&m,,,,,,,,,,,,,,,,,,,,,,,,,,,,,,,,,,,,,,,,,,,,,,,,,,,,,,,,,false,,,,,,,,,204654.31999997236,204653.8100000471,198355.858,198362.69999993965,198372.484,204657.112,,,,
fixCross,canvas.Screen,2_4_2_1_4_0,2021-01-14T21:25:11.941Z,,,,,,,,,,,,,,,,,,,,,,,,,,,,,,,,,,,,,,,,,,,,,,,,,,,,,,,,,,,,,,,,,,,,,,,,,,,,,,,,,,,,,,,,,,,,,,,,,,,,,,,,,,,,,,,,,,,498.77999999999884,,timeout,,,,healthy,,coconut.png,,,,,,,,,,,,,,,coconut,,,,,,,,,,,,,,,,,,,,,,,,,,,,,,,,,,,,,,,,,,,,,,,,,,,,,,,,,false,,,,,,,,,205141.025000019,205139.266,204640.486,204654.48000002652,204657.112,205155.892,,,,
Rating,html.Form,2_4_2_1_4_1,2021-01-14T21:25:16.817Z,,,,,,,,,,,,,,,,,,,,,,,,,,,,,,,,,,,,,,,,,,,,,,,,,,,,,,,,,,,,,,,,,,,,,,,,,,,,,,,,,,,,,,,,,,,,,,,,,,,,,,,,,,,,,,,,,,,4860.348000026308,,form submission,,,,healthy,,coconut.png,,,,,,,,,,,,,,,coconut,,,,,,,,,,,,,,,,,,,,,,,,,,,,,,,,,,,,,,,,,,,,,,,,,,,,,,,,,false,,,,,,,,,210016.65999996476,210016.2400000263,205139.266,205141.16999995895,205155.892,210028.129,,,,31
rating_sequence,flow.Sequence,2_4_2_1_4,2021-01-14T21:25:16.817Z,,,,,,,,,,,,,,,,,,,,,,,,,,,,,,,,,,,,,,,,,,,,,,,,,,,,,,,,,,,,,,,,,,,,,,,,,,,,,,,,,,,,,,,,,,,,,,,,,,,,,,,,,,,,,,,,,,,5359.128000026307,,completion,,,,healthy,,coconut.png,,,,,,,,,,,,,,,coconut,,,,,,,,,,,,,,,,,,,,,,,,,,,,,,,,,,,,,,,,,,,,,,,,,,,,,,,,,false,,,,,,,,,210017.02499995008,210016.2400000263,204640.486,204654.43500003312,204657.112,210028.129,,,,
fixCross,canvas.Screen,2_4_2_1_5_0,2021-01-14T21:25:17.313Z,,,,,,,,,,,,,,,,,,,,,,,,,,,,,,,,,,,,,,,,,,,,,,,,,,,,,,,,,,,,,,,,,,,,,,,,,,,,,,,,,,,,,,,,,,,,,,,,,,,,,,,,,,,,,,,,,,,498.78000000002794,,timeout,,,,unhealthy,,gummybear.png,,,,,,,,,,,,,,,gummybear,,,,,,,,,,,,,,,,,,,,,,,,,,,,,,,,,,,,,,,,,,,,,,,,,,,,,,,,,false,,,,,,,,,210512.97999999952,210510.283,210011.503,210017.23999995738,210028.129,210526.909,,,,
Rating,html.Form,2_4_2_1_5_1,2021-01-14T21:25:21.671Z,,,,,,,,,,,,,,,,,,,,,,,,,,,,,,,,,,,,,,,,,,,,,,,,,,,,,,,,,,,,,,,,,,,,,,,,,,,,,,,,,,,,,,,,,,,,,,,,,,,,,,,,,,,,,,,,,,,4343.801000046515,,form submission,,,,unhealthy,,gummybear.png,,,,,,,,,,,,,,,gummybear,,,,,,,,,,,,,,,,,,,,,,,,,,,,,,,,,,,,,,,,,,,,,,,,,,,,,,,,,false,,,,,,,,,214870.96500000916,214870.71000004653,210510.283,210513.13999993727,210526.909,214882.921,,,,74
rating_sequence,flow.Sequence,2_4_2_1_5,2021-01-14T21:25:21.671Z,,,,,,,,,,,,,,,,,,,,,,,,,,,,,,,,,,,,,,,,,,,,,,,,,,,,,,,,,,,,,,,,,,,,,,,,,,,,,,,,,,,,,,,,,,,,,,,,,,,,,,,,,,,,,,,,,,,4842.581000046543,,completion,,,,unhealthy,,gummybear.png,,,,,,,,,,,,,,,gummybear,,,,,,,,,,,,,,,,,,,,,,,,,,,,,,,,,,,,,,,,,,,,,,,,,,,,,,,,,false,,,,,,,,,214871.16500001866,214870.71000004653,210011.503,210017.17000000644,210028.129,214882.921,,,,
fixCross,canvas.Screen,2_4_2_1_6_0,2021-01-14T21:25:22.166Z,,,,,,,,,,,,,,,,,,,,,,,,,,,,,,,,,,,,,,,,,,,,,,,,,,,,,,,,,,,,,,,,,,,,,,,,,,,,,,,,,,,,,,,,,,,,,,,,,,,,,,,,,,,,,,,,,,,498.77999999999884,,timeout,,,,healthy,,blueberry.png,,,,,,,,,,,,,,,blueberry,,,,,,,,,,,,,,,,,,,,,,,,,,,,,,,,,,,,,,,,,,,,,,,,,,,,,,,,,false,,,,,,,,,215366.12999998033,215365.075,214866.295,214871.30500003695,214882.921,215381.701,,,,
Rating,html.Form,2_4_2_1_6_1,2021-01-14T21:25:29.202Z,,,,,,,,,,,,,,,,,,,,,,,,,,,,,,,,,,,,,,,,,,,,,,,,,,,,,,,,,,,,,,,,,,,,,,,,,,,,,,,,,,,,,,,,,,,,,,,,,,,,,,,,,,,,,,,,,,,7020.278999965987,,form submission,,,,healthy,,blueberry.png,,,,,,,,,,,,,,,blueberry,,,,,,,,,,,,,,,,,,,,,,,,,,,,,,,,,,,,,,,,,,,,,,,,,,,,,,,,,false,,,,,,,,,222402.27500000037,222401.979999966,215365.075,215366.2750000367,215381.701,222415.478,,,,0
rating_sequence,flow.Sequence,2_4_2_1_6,2021-01-14T21:25:29.202Z,,,,,,,,,,,,,,,,,,,,,,,,,,,,,,,,,,,,,,,,,,,,,,,,,,,,,,,,,,,,,,,,,,,,,,,,,,,,,,,,,,,,,,,,,,,,,,,,,,,,,,,,,,,,,,,,,,,7519.058999965986,,completion,,,,healthy,,blueberry.png,,,,,,,,,,,,,,,blueberry,,,,,,,,,,,,,,,,,,,,,,,,,,,,,,,,,,,,,,,,,,,,,,,,,,,,,,,,,false,,,,,,,,,222402.51000004355,222401.979999966,214866.295,214871.2649999652,214882.921,222415.478,,,,
fixCross,canvas.Screen,2_4_2_1_7_0,2021-01-14T21:25:29.699Z,,,,,,,,,,,,,,,,,,,,,,,,,,,,,,,,,,,,,,,,,,,,,,,,,,,,,,,,,,,,,,,,,,,,,,,,,,,,,,,,,,,,,,,,,,,,,,,,,,,,,,,,,,,,,,,,,,,498.77999999999884,,timeout,,,,healthy,,raspberry.png,,,,,,,,,,,,,,,raspberry,,,,,,,,,,,,,,,,,,,,,,,,,,,,,,,,,,,,,,,,,,,,,,,,,,,,,,,,,false,,,,,,,,,222899.15499999188,222897.632,222398.852,222402.67999994103,222415.478,222914.258,,,,
Rating,html.Form,2_4_2_1_7_1,2021-01-14T21:25:34.448Z,,,,,,,,,,,,,,,,,,,,,,,,,,,,,,,,,,,,,,,,,,,,,,,,,,,,,,,,,,,,,,,,,,,,,,,,,,,,,,,,,,,,,,,,,,,,,,,,,,,,,,,,,,,,,,,,,,,4733.722000008827,,form submission,,,,healthy,,raspberry.png,,,,,,,,,,,,,,,raspberry,,,,,,,,,,,,,,,,,,,,,,,,,,,,,,,,,,,,,,,,,,,,,,,,,,,,,,,,,false,,,,,,,,,227648.26499996707,227647.98000000883,222897.632,222899.29500001017,222914.258,227653.564,,,,0
rating_sequence,flow.Sequence,2_4_2_1_7,2021-01-14T21:25:34.448Z,,,,,,,,,,,,,,,,,,,,,,,,,,,,,,,,,,,,,,,,,,,,,,,,,,,,,,,,,,,,,,,,,,,,,,,,,,,,,,,,,,,,,,,,,,,,,,,,,,,,,,,,,,,,,,,,,,,5232.502000008826,,completion,,,,healthy,,raspberry.png,,,,,,,,,,,,,,,raspberry,,,,,,,,,,,,,,,,,,,,,,,,,,,,,,,,,,,,,,,,,,,,,,,,,,,,,,,,,false,,,,,,,,,227648.49499997217,227647.98000000883,222398.852,222402.63000002597,222415.478,227653.564,,,,
fixCross,canvas.Screen,2_4_2_1_8_0,2021-01-14T21:25:34.938Z,,,,,,,,,,,,,,,,,,,,,,,,,,,,,,,,,,,,,,,,,,,,,,,,,,,,,,,,,,,,,,,,,,,,,,,,,,,,,,,,,,,,,,,,,,,,,,,,,,,,,,,,,,,,,,,,,,,498.77999999999884,,timeout,,,,healthy,,orange.png,,,,,,,,,,,,,,,orange,,,,,,,,,,,,,,,,,,,,,,,,,,,,,,,,,,,,,,,,,,,,,,,,,,,,,,,,,false,,,,,,,,,228138.15999997314,228135.718,227636.938,227648.67000002414,227653.564,228152.344,,,,
Rating,html.Form,2_4_2_1_8_1,2021-01-14T21:25:39.500Z,,,,,,,,,,,,,,,,,,,,,,,,,,,,,,,,,,,,,,,,,,,,,,,,,,,,,,,,,,,,,,,,,,,,,,,,,,,,,,,,,,,,,,,,,,,,,,,,,,,,,,,,,,,,,,,,,,,4547.571000004682,,form submission,,,,healthy,,orange.png,,,,,,,,,,,,,,,orange,,,,,,,,,,,,,,,,,,,,,,,,,,,,,,,,,,,,,,,,,,,,,,,,,,,,,,,,,false,,,,,,,,,232700.3000000259,232699.9150000047,228135.718,228138.3050000295,228152.344,232707.868,,,,36
rating_sequence,flow.Sequence,2_4_2_1_8,2021-01-14T21:25:39.500Z,,,,,,,,,,,,,,,,,,,,,,,,,,,,,,,,,,,,,,,,,,,,,,,,,,,,,,,,,,,,,,,,,,,,,,,,,,,,,,,,,,,,,,,,,,,,,,,,,,,,,,,,,,,,,,,,,,,5046.351000004681,,completion,,,,healthy,,orange.png,,,,,,,,,,,,,,,orange,,,,,,,,,,,,,,,,,,,,,,,,,,,,,,,,,,,,,,,,,,,,,,,,,,,,,,,,,false,,,,,,,,,232700.65499993507,232699.9150000047,227636.938,227648.6149999546,227653.564,232707.868,,,,
fixCross,canvas.Screen,2_4_2_1_9_0,2021-01-14T21:25:39.991Z,,,,,,,,,,,,,,,,,,,,,,,,,,,,,,,,,,,,,,,,,,,,,,,,,,,,,,,,,,,,,,,,,,,,,,,,,,,,,,,,,,,,,,,,,,,,,,,,,,,,,,,,,,,,,,,,,,,498.77999999999884,,timeout,,,,unhealthy,,candy.png,,,,,,,,,,,,,,,candy,,,,,,,,,,,,,,,,,,,,,,,,,,,,,,,,,,,,,,,,,,,,,,,,,,,,,,,,,false,,,,,,,,,233191.63000001572,233190.022,232691.242,232700.85999998264,232707.868,233206.648,,,,
Rating,html.Form,2_4_2_1_9_1,2021-01-14T21:25:46.548Z,,,,,,,,,,,,,,,,,,,,,,,,,,,,,,,,,,,,,,,,,,,,,,,,,,,,,,,,,,,,,,,,,,,,,,,,,,,,,,,,,,,,,,,,,,,,,,,,,,,,,,,,,,,,,,,,,,,6541.666999975278,,form submission,,,,unhealthy,,candy.png,,,,,,,,,,,,,,,candy,,,,,,,,,,,,,,,,,,,,,,,,,,,,,,,,,,,,,,,,,,,,,,,,,,,,,,,,,false,,,,,,,,,239748.59500001185,239748.31499997526,233190.022,233191.7850000318,233206.648,239758.288,,,,63
rating_sequence,flow.Sequence,2_4_2_1_9,2021-01-14T21:25:46.548Z,,,,,,,,,,,,,,,,,,,,,,,,,,,,,,,,,,,,,,,,,,,,,,,,,,,,,,,,,,,,,,,,,,,,,,,,,,,,,,,,,,,,,,,,,,,,,,,,,,,,,,,,,,,,,,,,,,,7040.446999975276,,completion,,,,unhealthy,,candy.png,,,,,,,,,,,,,,,candy,,,,,,,,,,,,,,,,,,,,,,,,,,,,,,,,,,,,,,,,,,,,,,,,,,,,,,,,,false,,,,,,,,,239748.8299999386,239748.31499997526,232691.242,232700.79999999143,232707.868,239758.288,,,,
fixCross,canvas.Screen,2_4_2_1_10_0,2021-01-14T21:25:47.042Z,,,,,,,,,,,,,,,,,,,,,,,,,,,,,,,,,,,,,,,,,,,,,,,,,,,,,,,,,,,,,,,,,,,,,,,,,,,,,,,,,,,,,,,,,,,,,,,,,,,,,,,,,,,,,,,,,,,498.77999999999884,,timeout,,,,healthy,,apple.png,,,,,,,,,,,,,,,apple,,,,,,,,,,,,,,,,,,,,,,,,,,,,,,,,,,,,,,,,,,,,,,,,,,,,,,,,,false,,,,,,,,,240243.01999993622,240240.442,239741.662,239748.9999999525,239758.288,240257.068,,,,
Rating,html.Form,2_4_2_1_10_1,2021-01-14T21:25:52.086Z,,,,,,,,,,,,,,,,,,,,,,,,,,,,,,,,,,,,,,,,,,,,,,,,,,,,,,,,,,,,,,,,,,,,,,,,,,,,,,,,,,,,,,,,,,,,,,,,,,,,,,,,,,,,,,,,,,,5029.266999953397,,form submission,,,,healthy,,apple.png,,,,,,,,,,,,,,,apple,,,,,,,,,,,,,,,,,,,,,,,,,,,,,,,,,,,,,,,,,,,,,,,,,,,,,,,,,false,,,,,,,,,245286.6099999519,245286.3349999534,240240.442,240243.1649999926,240257.068,245294.746,,,,29
rating_sequence,flow.Sequence,2_4_2_1_10,2021-01-14T21:25:52.086Z,,,,,,,,,,,,,,,,,,,,,,,,,,,,,,,,,,,,,,,,,,,,,,,,,,,,,,,,,,,,,,,,,,,,,,,,,,,,,,,,,,,,,,,,,,,,,,,,,,,,,,,,,,,,,,,,,,,5528.046999953396,,completion,,,,healthy,,apple.png,,,,,,,,,,,,,,,apple,,,,,,,,,,,,,,,,,,,,,,,,,,,,,,,,,,,,,,,,,,,,,,,,,,,,,,,,,false,,,,,,,,,245286.83500003535,245286.3349999534,239741.662,239748.95000003744,239758.288,245294.746,,,,
fixCross,canvas.Screen,2_4_2_1_11_0,2021-01-14T21:25:52.578Z,,,,,,,,,,,,,,,,,,,,,,,,,,,,,,,,,,,,,,,,,,,,,,,,,,,,,,,,,,,,,,,,,,,,,,,,,,,,,,,,,,,,,,,,,,,,,,,,,,,,,,,,,,,,,,,,,,,498.77999999999884,,timeout,,,,unhealthy,,praline.png,,,,,,,,,,,,,,,praline,,,,,,,,,,,,,,,,,,,,,,,,,,,,,,,,,,,,,,,,,,,,,,,,,,,,,,,,,false,,,,,,,,,245778.75499997754,245776.9,245278.12,245287.00500004925,245294.746,245793.526,,,,
Rating,html.Form,2_4_2_1_11_1,2021-01-14T21:25:57.789Z,,,,,,,,,,,,,,,,,,,,,,,,,,,,,,,,,,,,,,,,,,,,,,,,,,,,,,,,,,,,,,,,,,,,,,,,,,,,,,,,,,,,,,,,,,,,,,,,,,,,,,,,,,,,,,,,,,,5196.498999948206,,form submission,,,,unhealthy,,praline.png,,,,,,,,,,,,,,,praline,,,,,,,,,,,,,,,,,,,,,,,,,,,,,,,,,,,,,,,,,,,,,,,,,,,,,,,,,false,,,,,,,,,250990.29500002507,250990.02499994822,245776.9,245778.90499995556,245793.526,250998.484,,,,89
rating_sequence,flow.Sequence,2_4_2_1_11,2021-01-14T21:25:57.790Z,,,,,,,,,,,,,,,,,,,,,,,,,,,,,,,,,,,,,,,,,,,,,,,,,,,,,,,,,,,,,,,,,,,,,,,,,,,,,,,,,,,,,,,,,,,,,,,,,,,,,,,,,,,,,,,,,,,5695.278999948205,,completion,,,,unhealthy,,praline.png,,,,,,,,,,,,,,,praline,,,,,,,,,,,,,,,,,,,,,,,,,,,,,,,,,,,,,,,,,,,,,,,,,,,,,,,,,false,,,,,,,,,250990.5199999921,250990.02499994822,245278.12,245286.95500001777,245294.746,250998.484,,,,
fixCross,canvas.Screen,2_4_2_1_12_0,2021-01-14T21:25:58.281Z,,,,,,,,,,,,,,,,,,,,,,,,,,,,,,,,,,,,,,,,,,,,,,,,,,,,,,,,,,,,,,,,,,,,,,,,,,,,,,,,,,,,,,,,,,,,,,,,,,,,,,,,,,,,,,,,,,,498.77999999999884,,timeout,,,,unhealthy,,maltesers.png,,,,,,,,,,,,,,,malteser,,,,,,,,,,,,,,,,,,,,,,,,,,,,,,,,,,,,,,,,,,,,,,,,,,,,,,,,,false,,,,,,,,,251481.79999995045,251480.638,250981.858,250990.68499996793,250998.484,251497.264,,,,
Rating,html.Form,2_4_2_1_12_1,2021-01-14T21:26:04.925Z,,,,,,,,,,,,,,,,,,,,,,,,,,,,,,,,,,,,,,,,,,,,,,,,,,,,,,,,,,,,,,,,,,,,,,,,,,,,,,,,,,,,,,,,,,,,,,,,,,,,,,,,,,,,,,,,,,,6628.7210000497,,form submission,,,,unhealthy,,maltesers.png,,,,,,,,,,,,,,,malteser,,,,,,,,,,,,,,,,,,,,,,,,,,,,,,,,,,,,,,,,,,,,,,,,,,,,,,,,,false,,,,,,,,,258126.35999999475,258125.9850000497,251480.638,251481.93999996874,251497.264,258131.038,,,,92
rating_sequence,flow.Sequence,2_4_2_1_12,2021-01-14T21:26:04.926Z,,,,,,,,,,,,,,,,,,,,,,,,,,,,,,,,,,,,,,,,,,,,,,,,,,,,,,,,,,,,,,,,,,,,,,,,,,,,,,,,,,,,,,,,,,,,,,,,,,,,,,,,,,,,,,,,,,,7127.501000049699,,completion,,,,unhealthy,,maltesers.png,,,,,,,,,,,,,,,malteser,,,,,,,,,,,,,,,,,,,,,,,,,,,,,,,,,,,,,,,,,,,,,,,,,,,,,,,,,false,,,,,,,,,258126.71500002034,258125.9850000497,250981.858,250990.63499993645,250998.484,258131.038,,,,
fixCross,canvas.Screen,2_4_2_1_13_0,2021-01-14T21:26:05.414Z,,,,,,,,,,,,,,,,,,,,,,,,,,,,,,,,,,,,,,,,,,,,,,,,,,,,,,,,,,,,,,,,,,,,,,,,,,,,,,,,,,,,,,,,,,,,,,,,,,,,,,,,,,,,,,,,,,,498.77999999999884,,timeout,,,,unhealthy,,marshmallow.png,,,,,,,,,,,,,,,marshmallow,,,,,,,,,,,,,,,,,,,,,,,,,,,,,,,,,,,,,,,,,,,,,,,,,,,,,,,,,false,,,,,,,,,258614.9799999548,258613.192,258114.412,258126.9199999515,258131.038,258629.818,,,,
Rating,html.Form,2_4_2_1_13_1,2021-01-14T21:26:12.127Z,,,,,,,,,,,,,,,,,,,,,,,,,,,,,,,,,,,,,,,,,,,,,,,,,,,,,,,,,,,,,,,,,,,,,,,,,,,,,,,,,,,,,,,,,,,,,,,,,,,,,,,,,,,,,,,,,,,6697.846999989793,,form submission,,,,unhealthy,,marshmallow.png,,,,,,,,,,,,,,,marshmallow,,,,,,,,,,,,,,,,,,,,,,,,,,,,,,,,,,,,,,,,,,,,,,,,,,,,,,,,,false,,,,,,,,,265327.93499995023,265327.6649999898,258613.192,258615.1349999709,258629.818,265331.165,,,,92
rating_sequence,flow.Sequence,2_4_2_1_13,2021-01-14T21:26:12.127Z,,,,,,,,,,,,,,,,,,,,,,,,,,,,,,,,,,,,,,,,,,,,,,,,,,,,,,,,,,,,,,,,,,,,,,,,,,,,,,,,,,,,,,,,,,,,,,,,,,,,,,,,,,,,,,,,,,,7196.626999989792,,completion,,,,unhealthy,,marshmallow.png,,,,,,,,,,,,,,,marshmallow,,,,,,,,,,,,,,,,,,,,,,,,,,,,,,,,,,,,,,,,,,,,,,,,,,,,,,,,,false,,,,,,,,,265328.1600000337,265327.6649999898,258114.412,258126.85500003863,258131.038,265331.165,,,,
fixCross,canvas.Screen,2_4_2_1_14_0,2021-01-14T21:26:12.614Z,,,,,,,,,,,,,,,,,,,,,,,,,,,,,,,,,,,,,,,,,,,,,,,,,,,,,,,,,,,,,,,,,,,,,,,,,,,,,,,,,,,,,,,,,,,,,,,,,,,,,,,,,,,,,,,,,,,498.78000000002794,,timeout,,,,healthy,,pear.png,,,,,,,,,,,,,,,pear,,,,,,,,,,,,,,,,,,,,,,,,,,,,,,,,,,,,,,,,,,,,,,,,,,,,,,,,,false,,,,,,,,,265815.68999995943,265813.319,265314.539,265328.3250000095,265331.165,265829.945,,,,
Rating,html.Form,2_4_2_1_14_1,2021-01-14T21:26:17.069Z,,,,,,,,,,,,,,,,,,,,,,,,,,,,,,,,,,,,,,,,,,,,,,,,,,,,,,,,,,,,,,,,,,,,,,,,,,,,,,,,,,,,,,,,,,,,,,,,,,,,,,,,,,,,,,,,,,,4440.349999936589,,form submission,,,,healthy,,pear.png,,,,,,,,,,,,,,,pear,,,,,,,,,,,,,,,,,,,,,,,,,,,,,,,,,,,,,,,,,,,,,,,,,,,,,,,,,false,,,,,,,,,270270.6049999688,270270.2949999366,265813.319,265815.8350000158,265829.945,270285.713,,,,34
rating_sequence,flow.Sequence,2_4_2_1_14,2021-01-14T21:26:17.069Z,,,,,,,,,,,,,,,,,,,,,,,,,,,,,,,,,,,,,,,,,,,,,,,,,,,,,,,,,,,,,,,,,,,,,,,,,,,,,,,,,,,,,,,,,,,,,,,,,,,,,,,,,,,,,,,,,,,4939.1299999366165,,completion,,,,healthy,,pear.png,,,,,,,,,,,,,,,pear,,,,,,,,,,,,,,,,,,,,,,,,,,,,,,,,,,,,,,,,,,,,,,,,,,,,,,,,,false,,,,,,,,,270270.8349999739,270270.2949999366,265314.539,265328.274999978,265331.165,270285.713,,,,
fixCross,canvas.Screen,2_4_2_1_15_0,2021-01-14T21:26:17.568Z,,,,,,,,,,,,,,,,,,,,,,,,,,,,,,,,,,,,,,,,,,,,,,,,,,,,,,,,,,,,,,,,,,,,,,,,,,,,,,,,,,,,,,,,,,,,,,,,,,,,,,,,,,,,,,,,,,,498.78000000002794,,timeout,,,,unhealthy,,liqorice.png,,,,,,,,,,,,,,,liquorice,,,,,,,,,,,,,,,,,,,,,,,,,,,,,,,,,,,,,,,,,,,,,,,,,,,,,,,,,false,,,,,,,,,270769.0850000363,270767.867,270269.087,270270.9999999497,270285.713,270784.493,,,,
Rating,html.Form,2_4_2_1_15_1,2021-01-14T21:26:22.069Z,,,,,,,,,,,,,,,,,,,,,,,,,,,,,,,,,,,,,,,,,,,,,,,,,,,,,,,,,,,,,,,,,,,,,,,,,,,,,,,,,,,,,,,,,,,,,,,,,,,,,,,,,,,,,,,,,,,4485.357000040589,,form submission,,,,unhealthy,,liqorice.png,,,,,,,,,,,,,,,liquorice,,,,,,,,,,,,,,,,,,,,,,,,,,,,,,,,,,,,,,,,,,,,,,,,,,,,,,,,,false,,,,,,,,,275270.1299999608,275269.8500000406,270767.867,270769.2200000165,270784.493,275274.415,,,,59
rating_sequence,flow.Sequence,2_4_2_1_15,2021-01-14T21:26:22.069Z,,,,,,,,,,,,,,,,,,,,,,,,,,,,,,,,,,,,,,,,,,,,,,,,,,,,,,,,,,,,,,,,,,,,,,,,,,,,,,,,,,,,,,,,,,,,,,,,,,,,,,,,,,,,,,,,,,,4984.137000040617,,completion,,,,unhealthy,,liqorice.png,,,,,,,,,,,,,,,liquorice,,,,,,,,,,,,,,,,,,,,,,,,,,,,,,,,,,,,,,,,,,,,,,,,,,,,,,,,,false,,,,,,,,,275270.3550000442,275269.8500000406,270269.087,270270.95000003465,270285.713,275274.415,,,,
fixCross,canvas.Screen,2_4_2_1_16_0,2021-01-14T21:26:22.557Z,,,,,,,,,,,,,,,,,,,,,,,,,,,,,,,,,,,,,,,,,,,,,,,,,,,,,,,,,,,,,,,,,,,,,,,,,,,,,,,,,,,,,,,,,,,,,,,,,,,,,,,,,,,,,,,,,,,498.78000000002794,,timeout,,,,unhealthy,,chocolate.png,,,,,,,,,,,,,,,chocolate,,,,,,,,,,,,,,,,,,,,,,,,,,,,,,,,,,,,,,,,,,,,,,,,,,,,,,,,,false,,,,,,,,,275758.90499993693,275756.569,275257.789,275270.52000002004,275274.415,275773.195,,,,
Rating,html.Form,2_4_2_1_16_1,2021-01-14T21:26:26.807Z,,,,,,,,,,,,,,,,,,,,,,,,,,,,,,,,,,,,,,,,,,,,,,,,,,,,,,,,,,,,,,,,,,,,,,,,,,,,,,,,,,,,,,,,,,,,,,,,,,,,,,,,,,,,,,,,,,,4234.874999981665,,form submission,,,,unhealthy,,chocolate.png,,,,,,,,,,,,,,,chocolate,,,,,,,,,,,,,,,,,,,,,,,,,,,,,,,,,,,,,,,,,,,,,,,,,,,,,,,,,false,,,,,,,,,280008.46000004094,280008.0699999817,275756.569,275759.05500003137,275773.195,280012.825,,,,87
rating_sequence,flow.Sequence,2_4_2_1_16,2021-01-14T21:26:26.807Z,,,,,,,,,,,,,,,,,,,,,,,,,,,,,,,,,,,,,,,,,,,,,,,,,,,,,,,,,,,,,,,,,,,,,,,,,,,,,,,,,,,,,,,,,,,,,,,,,,,,,,,,,,,,,,,,,,,4733.6549999816925,,completion,,,,unhealthy,,chocolate.png,,,,,,,,,,,,,,,chocolate,,,,,,,,,,,,,,,,,,,,,,,,,,,,,,,,,,,,,,,,,,,,,,,,,,,,,,,,,false,,,,,,,,,280008.81000002846,280008.0699999817,275257.789,275270.47500002664,275274.415,280012.825,,,,
fixCross,canvas.Screen,2_4_2_1_17_0,2021-01-14T21:26:27.295Z,,,,,,,,,,,,,,,,,,,,,,,,,,,,,,,,,,,,,,,,,,,,,,,,,,,,,,,,,,,,,,,,,,,,,,,,,,,,,,,,,,,,,,,,,,,,,,,,,,,,,,,,,,,,,,,,,,,498.77999999996973,,timeout,,,,healthy,,strawberry.png,,,,,,,,,,,,,,,strawberry,,,,,,,,,,,,,,,,,,,,,,,,,,,,,,,,,,,,,,,,,,,,,,,,,,,,,,,,,false,,,,,,,,,280496.94999994244,280494.979,279996.199,280009.0149999596,280012.825,280511.605,,,,
Rating,html.Form,2_4_2_1_17_1,2021-01-14T21:26:32.463Z,,,,,,,,,,,,,,,,,,,,,,,,,,,,,,,,,,,,,,,,,,,,,,,,,,,,,,,,,,,,,,,,,,,,,,,,,,,,,,,,,,,,,,,,,,,,,,,,,,,,,,,,,,,,,,,,,,,5152.349999996368,,form submission,,,,healthy,,strawberry.png,,,,,,,,,,,,,,,strawberry,,,,,,,,,,,,,,,,,,,,,,,,,,,,,,,,,,,,,,,,,,,,,,,,,,,,,,,,,false,,,,,,,,,285664.23500003293,285663.95499999635,280494.979,280497.10499995854,280511.605,285683.212,,,,63
rating_sequence,flow.Sequence,2_4_2_1_17,2021-01-14T21:26:32.463Z,,,,,,,,,,,,,,,,,,,,,,,,,,,,,,,,,,,,,,,,,,,,,,,,,,,,,,,,,,,,,,,,,,,,,,,,,,,,,,,,,,,,,,,,,,,,,,,,,,,,,,,,,,,,,,,,,,,5651.129999996338,,completion,,,,healthy,,strawberry.png,,,,,,,,,,,,,,,strawberry,,,,,,,,,,,,,,,,,,,,,,,,,,,,,,,,,,,,,,,,,,,,,,,,,,,,,,,,,false,,,,,,,,,285664.4549999619,285663.95499999635,279996.199,280008.9549999684,280012.825,285683.212,,,,
rating_loop,flow.Loop,2_4_2_1,2021-01-14T21:26:32.463Z,,,,,,,,,,,,,,,,,,,,,,,,,,,,,,,,,,,,,,,,,,,,,,,,,,,,,,,,,,,,,,,,,,,,,,,,,,,,,,,,,,,,,,,,,,,,,,,,,,,,,,,,,,,,,,,,,,,112003.00699999635,,completion,,,,,,,,,,,,,,,,,,,,,,,,,,,,,,,,,,,,,,,,,,,,,,,,,,,,,,,,,,,,,,,,,,,,,,,,,,,,,,false,,,,,,,,,285664.72500003874,285663.95499999635,173644.322,173654.91000004113,173660.948,285683.212,,,,
data_transmission,html.Screen,2_4_2_2,2021-01-14T21:26:32.472Z,,,,,,,,,,,,,,,,,,,,,,,,,,,,,,,,,,,,,,,,,,,,,,,,,,,,,,,,,,,,,,,,,,,,,,,,,,,,,,,,,,,,,,,,,,,,,,,,,,,,,,,,,,,,,,,,,,,NaN,,no compatible backend,,,,,,,,,,,,,,,Transferring data,,,,,,,,,,,,,,,,,,,,,,,,,,,,,,,,,,,,,,,,,,,,,,,,,,,,,,,,,,,,,,,false,,,Please wait a second…,,,,,,285674.1149999434,285673.8749999786,,285664.8849999765,,285683.212,,,,
instructions,html.Screen,2_4_2_3,2021-01-14T21:29:54.446Z,,,,,,,,,,,,,,,,,,,,,,,,,,,,,,,,,,,,,,,,,,,,,,,,,,,,,,,,,,,,,,,,,,,,,,,,,,,,,,,,,,,,,,,,,,,,,,,,,,,,,,,,,,,,,,,,,,,201967.74299996096,,done,,,,,,,,,,,,,,,,,,,,,,,,,,,,,,,,,,,,,,,,,,,,,,,,,,,,,,,,,,,,,,,,,,,,,,,,,,,,,,false,,,,,,,,,487651.3000000268,487650.95499996096,285649.96,285674.31000003126,285683.212,487653.735,,,,
Q1,html.Screen,2_4_2_4_0,2021-01-14T21:30:12.305Z,,,,,,,,,,,,,,,,,,,,,,,,,,,,,,,,,,,,,,,,,,,,,,,,,,,,,,,,,,,,,,,,,,,,,,,,,,,,,,,,,,,,,,,,,,,,,,,,,,,,,,,,,,,,,,,false,input_Q1==3,,,17853.48999995028,,response,,,,,,,,,,,,,,,,,,,,,,,,,Q1_i1,Q1_i4,Q1_i2,Q1_i3,1,4,2,3,false,false,false,correct,,,,,,,,,,,,,,,,,,,,,,,,,,,,,,,,,,,,,,,,,click #Q1_i3,false,,,,,,,,,505511.5399999777,505507.22499995027,487637.109,487651.59000002313,487653.735,505514.905,,,,
Q1_correct,html.Screen,2_4_2_4_1,2021-01-14T21:30:14.635Z,,,,,,,,,,,,,,,,,,,,,,,,,,,,,,,,,,,,,,,,,,,,,,,,,,,,,,,,,,,,,,,,,,,,,,,,,,,,,,,,,,,,,,,,,,,,,,,,,,,,,,,,,,,,,,,,,,,2323.3999999829102,,response,,,,,,,,,,,,,,,,,,,,,,,,,,,,,,,,,,,,,,,,,,,,,,,,,,,,,,,,,,,,,,,,,,,,,,,,,,,,,keypress,false,,,,,,,,,507840.83999996074,507838.30499998294,505498.279,505511.7999999784,505514.905,507842.545,,,,
Q2,html.Screen,2_4_2_4_2,2021-01-14T21:30:32.277Z,,,,,,,,,,,,,,,,,,,,,,,,,,,,,,,,,,,,,,,,,,,,,,,,,,,,,,,,,,,,,,,,,,,,,,,,,,,,,,,,,,,,,,,,,,,,,,,,,,,,,,,,,,,,,,,,,,,17638.580000049376,,response,,,,,,,,,,,,,,,,,,,,,,,,,,,,,,,,,,,,,Q2_i3,Q2_i2,Q2_i1,Same amount,Option 2,Option 1,same,opt2,correct,,,,,,,,,,,,,,,,,,,,,,,,,,,,,,,,click #Q2_i1,false,,,,,,,,,525483.6450000294,525481.1250000494,507825.919,507841.0350000486,507842.545,525484.875,,,,
Q2_correct,html.Screen,2_4_2_4_3,2021-01-14T21:30:34.084Z,,,,,,,,,,,,,,,,,,,,,,,,,,,,,,,,,,,,,,,,,,,,,,,,,,,,,,,,,,,,,,,,,,,,,,,,,,,,,,,,,,,,,,,,,,,,,,,,,,,,,,,,,,,,,,,,,,,1803.2949999561533,,response,,,,,,,,,,,,,,,,,,,,,,,,,,,,,,,,,,,,,,,,,,,,,,,,,,,,,,,,,,,,,,,,,,,,,,,,,,,,,keypress,false,,,,,,,,,527290.8299999544,527288.1699999562,525468.249,525483.9099999517,525484.875,527297.109,,,,
Q4,html.Screen,2_4_2_4_4,2021-01-14T21:30:53.524Z,,,,,,,,,,,,,,,,,,,,,,,,,,,,,,,,,,,,,,,,,,,,,,,,,,,,,,,,,,,,,,,,,,,,,,,,,,,,,,,,,,,,,,,,,,,,,,,,,,,,,,,,,,,,,,,,,,,19430.960999953677,,response,,,,,,,,,,,,,,,,,,,,,,,,,,,,,,,,,,,,,,,,,,,,,,Q4_i3,Q4_i4,Q4_i1,Q4_i2,Press the arrow key that corresponds with the snack option with more food items,Press the space key,Press the arrow key that corresponds with the snack option I prefer,Indicate the number of food items in each snack option,morefood,pressspace,correct,indicate,,,,,,,,,,,,,,,,,,,,click #Q4_i1,false,,,,,,,,,546730.9850000311,546728.0699999537,527280.483,527290.9900000086,527297.109,546733.794,,,,
Q4_correct,html.Screen,2_4_2_4_5,2021-01-14T21:30:55.259Z,,,,,,,,,,,,,,,,,,,,,,,,,,,,,,,,,,,,,,,,,,,,,,,,,,,,,,,,,,,,,,,,,,,,,,,,,,,,,,,,,,,,,,,,,,,,,,,,,,,,,,,,,,,,,,,,,,,1729.2609999419656,,response,,,,,,,,,,,,,,,,,,,,,,,,,,,,,,,,,,,,,,,,,,,,,,,,,,,,,,,,,,,,,,,,,,,,,,,,,,,,,keypress,false,,,,,,,,,548465.6650000252,548463.054999942,546717.168,546731.2450000318,546733.794,548480.639,,,,
Q5,html.Screen,2_4_2_4_6,2021-01-14T21:32:10.477Z,,,,,,,,,,,,,,,,,,,,,,,,,,,,,,,,,,,,,,,,,,,,,,,,,,,,,,,,,,,,,,,,,,,,,,,,,,,,,,,,,,,,,,,,,,,,,,,,,,,,,,,,,,,,,,,,,,,75201.80600004224,,response,,,,,,,,,,,,,,,,,,,,,,,,,,,,,,,,,,,,,,,,,,,,,,,,,,,,,,,,,,Q5_i1,Q5_i2,Q5_i4,Q5_i3,Snack Option 2 has been chosen,There are more pieces of chocolate in snack Option 2,Snack Option 1 has been chosen,There are more slices of kiwi in snack Option 1,correct,morechoc2,chose1,morekiwi1,,,,,,,,click #Q5_i1,false,,,,,,,,,623685.1849999512,623682.4450000422,548464.013,548465.8200000413,548480.639,623686.075,,,,
Q5_correct,html.Screen,2_4_2_4_7,2021-01-14T21:32:13.738Z,,,,,,,,,,,,,,,,,,,,,,,,,,,,,,,,,,,,,,,,,,,,,,,,,,,,,,,,,,,,,,,,,,,,,,,,,,,,,,,,,,,,,,,,,,,,,,,,,,,,,,,,,,,,,,,,,,,3257.349999946775,,response,,,,,,,,,,,,,,,,,,,,,,,,,,,,,,,,,,,,,,,,,,,,,,,,,,,,,,,,,,,,,,,,,,,,,,,,,,,,,keypress,false,,,,,,,,,626946.5250000358,626943.4249999467,623669.449,623685.5450000148,623686.075,626961.397,,,,
practice_sequence,flow.Sequence,2_4_2_4,2021-01-14T21:32:13.738Z,,,,,,,,,,,,,,,,,,,,,,,,,,,,,,,,,,,,,,,,,,,,,,,,,,,,,,,,,,,,,,,,,,,,,,,,,,,,,,,,,,,,,,,,,,,,,,,,,,,,,,,,,,,,,,,,,,,139289.68999994674,,completion,,,,,,,,,,,,,,,,,,,,,,,,,,,,,,,,,,,,,,,,,,,,,,,,,,,,,,,,,,,,,,,,,,,,,,,,,,,,,,false,,,,,,,,,626946.809999994,626943.4249999467,487637.109,487651.53999999166,487653.735,626961.397,,,,
final_instru,html.Screen,2_4_2_5,2021-01-14T21:32:47.930Z,,,,,,,,,,,,,,,,,,,,,,,,,,,,,,,,,,,,,,,,,,,,,,,,,,,,,,,,,,,,,,,,,,,,,,,,,,,,,,,,,,,,,,,,,,,,,,,,,,,,,,,,,,,,,,,,,,,34177.84799996938,,done,,,,,,,,,,,,,,,,,,,,,,,,,,,,,,,,,,,,,,,,,,,,,,,,,,,,,,,,,,,,,,,,,,,,,,,,,,,,,,false,,,,,,,,,661139.4699999364,661139.2449999694,626944.771,626946.954999934,626961.397,661146.724,,,,
blank_screen,canvas.Screen,2_4_2_6_0,2021-01-14T21:32:49.919Z,,,,,,,,,,,,,,,,,,,,,,,,,,,,,,,,,,,,,,,,,,,,,,,,,,,,,,,,,,,,,,,,,,,,,,,,,,,,,,,,,,,,,,,,,,,,,,,,,,,,,,,,,,,,,,,,,,,2012.7739999999758,,timeout,,,,,,,,,,,,,,,,,,,,,,,,,,,,,,,,,,,,,,,,,,,,,,,,,,,,,,,,,,,,,,,,,,,,,,,,,,,,,,false,,,,,,,,,663128.3500000136,663126.246,661130.098,661139.680000022,661146.724,663159.498,,,,
fixCross,canvas.Screen,2_4_2_6_1_0_0_0_0_0_0,2021-01-14T21:32:50.334Z,,,blank.png,"[""maltesers.png""]",blank.png,blank.png,blank.png,blank.png,blank.png,blank.png,blank.png,blank.png,blank.png,blank.png,blank.png,,,,,,,,,,,,,,,,,,,,,,,,,,,,,"[""maltesers.png""]","[""grape.png""]",PB12.png,,,,,,,,,,,0,6,"[""grape.png""]","[""grape.png""]","[""grape.png""]","[""grape.png""]","[""grape.png""]","[""grape.png""]",blank.png,PB18.png,PB18.png,"[""grape.png""]","[""grape.png""]",blank.png,blank.png,blank.png,blank.png,"[""grape.png""]","[""grape.png""]","[""grape.png""]","[""grape.png""]","[""grape.png""]","[""grape.png""]",1,"[""maltesers.png""]",blank.png,blank.png,blank.png,2,"[""grape.png""]","[""grape.png""]",blank.png,blank.png,blank.png,blank.png,PB12.png,,,,,,,,,,,1,,,,,,,,,,,,681.6659999999683,,timeout,,,,,,,,,,,,,3,,,,,,,,,,,,,,,,,,,,,,,,,,,,,,,,,,,,,,,,,,,,,,,,,,,,,,,,,"[""grape.png""]","[""maltesers.png""]",,,,1,,,false,,1,,,,,,,663543.1749999989,663541.896,663126.246,663166.7649999727,663159.498,663841.164,1,,,
timeout,canvas.Screen,2_4_2_6_1_0_0_0_0_0_1,2021-01-14T21:32:51.117Z,,,blank.png,"[""maltesers.png""]",blank.png,blank.png,blank.png,blank.png,blank.png,blank.png,blank.png,blank.png,blank.png,blank.png,blank.png,,,,,,,,,,,,,,,,,,,,,,,,,,,,,"[""maltesers.png""]","[""grape.png""]",PB12.png,,,,,,,,,,,0,6,"[""grape.png""]","[""grape.png""]","[""grape.png""]","[""grape.png""]","[""grape.png""]","[""grape.png""]",blank.png,PB18.png,PB18.png,"[""grape.png""]","[""grape.png""]",blank.png,blank.png,blank.png,blank.png,"[""grape.png""]","[""grape.png""]","[""grape.png""]","[""grape.png""]","[""grape.png""]","[""grape.png""]",1,"[""maltesers.png""]",blank.png,blank.png,blank.png,2,"[""grape.png""]","[""grape.png""]",blank.png,blank.png,blank.png,blank.png,PB12.png,,,,,,,,,,,1,,,,,,,,,,,,832.1570000000065,,timeout,,,,,,,,,,,,,3,,,,,,,,,,,,,,,,,,,,,,,,,,,,,,,,,,,,,,,,,,,,,,,,,,,,,,,,,"[""grape.png""]","[""maltesers.png""]",,,,1,,,false,,1,,,,,,,664326.6549999826,664324.175,663541.896,663950.9750000434,663841.164,664673.321,,,,
choice,canvas.Screen,2_4_2_6_1_0_0_0_0_0_2,2021-01-14T21:32:56.269Z,,,blank.png,"[""maltesers.png""]",blank.png,blank.png,blank.png,blank.png,blank.png,blank.png,blank.png,blank.png,blank.png,blank.png,blank.png,,,,,,,,,,,,,,,,,,,,,,,,,,,,,"[""maltesers.png""]","[""grape.png""]",PB12.png,,,,,,,,,,,0,6,"[""grape.png""]","[""grape.png""]","[""grape.png""]","[""grape.png""]","[""grape.png""]","[""grape.png""]",blank.png,PB18.png,PB18.png,"[""grape.png""]","[""grape.png""]",blank.png,blank.png,blank.png,blank.png,"[""grape.png""]","[""grape.png""]","[""grape.png""]","[""grape.png""]","[""grape.png""]","[""grape.png""]",1,"[""maltesers.png""]",blank.png,blank.png,blank.png,2,"[""grape.png""]","[""grape.png""]",blank.png,blank.png,blank.png,blank.png,PB12.png,,,,,,,,,,,1,,,,,,,,,,,,4801.833999992814,,response,,,,,,,,,,,,,3,,,,,,,,,,,,,,,,,,,,,,,,,,,,,,,,,,,,,,,,,,,,,,,,,,,,,,,,,"[""grape.png""]","[""maltesers.png""]",,,,1,right,keydown(ArrowRight),false,,1,,,,,,,669478.5050000064,669475.1549999928,664324.175,664684.3850000296,664673.321,669794.129,,1,,
square,canvas.Screen,2_4_2_6_1_0_0_0_0_0_3,2021-01-14T21:32:57.568Z,,,blank.png,"[""maltesers.png""]",blank.png,blank.png,blank.png,blank.png,blank.png,blank.png,blank.png,blank.png,blank.png,blank.png,blank.png,,,,,,,,,,,,,,,,,,,,,,,,,,,,,"[""maltesers.png""]","[""grape.png""]",PB12.png,,,,,,,,,,,0,6,"[""grape.png""]","[""grape.png""]","[""grape.png""]","[""grape.png""]","[""grape.png""]","[""grape.png""]",blank.png,PB18.png,PB18.png,"[""grape.png""]","[""grape.png""]",blank.png,blank.png,blank.png,blank.png,"[""grape.png""]","[""grape.png""]","[""grape.png""]","[""grape.png""]","[""grape.png""]","[""grape.png""]",1,"[""maltesers.png""]",blank.png,blank.png,blank.png,2,"[""grape.png""]","[""grape.png""]",blank.png,blank.png,blank.png,blank.png,PB12.png,,,,,,,,,,,1,,#808080,#33ff3f,,,,,,,,,997.5600000000559,,timeout,,,,,,,,,,,,,3,,,,,,,,,,,,,,,,,,,,,,,,,,,,,,,,,,,,,,,,,,,,,,,,,,,,,,,,,"[""grape.png""]","[""maltesers.png""]",,,,1,,,false,,1,,,,,white,black,670777.054999955,670775.063,669777.503,669779.3999999994,669794.129,670791.689,,,,
ITI_late,canvas.Screen,2_4_2_6_1_0_0_0_0_0_4,2021-01-14T21:32:58.316Z,,,blank.png,"[""maltesers.png""]",blank.png,blank.png,blank.png,blank.png,blank.png,blank.png,blank.png,blank.png,blank.png,blank.png,blank.png,,,,,,,,,,,,,,,,,,,,,,,,,,,,,"[""maltesers.png""]","[""grape.png""]",PB12.png,,,,,,,,,,,0,6,"[""grape.png""]","[""grape.png""]","[""grape.png""]","[""grape.png""]","[""grape.png""]","[""grape.png""]",blank.png,PB18.png,PB18.png,"[""grape.png""]","[""grape.png""]",blank.png,blank.png,blank.png,blank.png,"[""grape.png""]","[""grape.png""]","[""grape.png""]","[""grape.png""]","[""grape.png""]","[""grape.png""]",1,"[""maltesers.png""]",blank.png,blank.png,blank.png,2,"[""grape.png""]","[""grape.png""]",blank.png,blank.png,blank.png,blank.png,PB12.png,,,,,,,,,,,1,,,,,,,,,,,,748.1700000000419,,timeout,,,,,,,,,,,,white,3,,,,,,,,,,,,,,,,,,,,,,,,,,,,,,,,,,,,,,,,,,,,,,,,,,,,,,,,,"[""grape.png""]","[""maltesers.png""]",,,,1,,,false,,1,,,,,,,671525.3650000086,671523.233,670775.063,670779.3949999614,670791.689,671539.859,,,,
choice_sequence,flow.Sequence,2_4_2_6_1_0_0_0_0_0,2021-01-14T21:32:58.316Z,,,blank.png,"[""maltesers.png""]",blank.png,blank.png,blank.png,blank.png,blank.png,blank.png,blank.png,blank.png,blank.png,blank.png,blank.png,,,,,,,,,,,,,,,,,,,,,,,,,,,,,"[""maltesers.png""]","[""grape.png""]",PB12.png,,,,,,,,,,,0,6,"[""grape.png""]","[""grape.png""]","[""grape.png""]","[""grape.png""]","[""grape.png""]","[""grape.png""]",blank.png,PB18.png,PB18.png,"[""grape.png""]","[""grape.png""]",blank.png,blank.png,blank.png,blank.png,"[""grape.png""]","[""grape.png""]","[""grape.png""]","[""grape.png""]","[""grape.png""]","[""grape.png""]",1,"[""maltesers.png""]",blank.png,blank.png,blank.png,2,"[""grape.png""]","[""grape.png""]",blank.png,blank.png,blank.png,blank.png,PB12.png,,,,,,,,,,,1,,,,,,,,,,,,8363.734999999986,,completion,,,,,,,,,,,,,3,,,,,,,,,,,,,,,,,,,,,,,,,,,,,,,,,,,,,,,,,,,,,,,,,,,,,,,,,"[""grape.png""]","[""maltesers.png""]",,,,1,,,false,,1,,,,,,,671525.9399999632,671523.233,663126.246,663165.2250000043,663159.498,671539.859,,,,
fixCross,canvas.Screen,2_4_2_6_1_0_0_0_0_1_0,2021-01-14T21:32:58.615Z,,,blank.png,blank.png,blank.png,blank.png,blank.png,blank.png,blank.png,"[""maltesers.png""]",blank.png,blank.png,blank.png,blank.png,blank.png,,,,,,,,,,,,,,,,,,,,,,,,,,,,,"[""maltesers.png""]","[""grape.png""]",PB18.png,,,,,,,,,,,0,6,"[""grape.png""]","[""grape.png""]","[""grape.png""]","[""grape.png""]","[""grape.png""]","[""grape.png""]",blank.png,PB18.png,PB17.png,"[""grape.png""]","[""grape.png""]","[""grape.png""]","[""grape.png""]","[""grape.png""]","[""grape.png""]","[""grape.png""]","[""grape.png""]","[""grape.png""]","[""grape.png""]","[""grape.png""]","[""grape.png""]",1,"[""maltesers.png""]",blank.png,blank.png,blank.png,6,"[""grape.png""]","[""grape.png""]","[""grape.png""]","[""grape.png""]","[""grape.png""]","[""grape.png""]",PB17.png,,,,,,,,,,,1,,,,,,,,,,,,615.1619999998948,,timeout,,,,,,,,,,,,,4,,,,,,,,,,,,,,,,,,,,,,,,,,,,,,,,,,,,,,,,,,,,,,,,,,,,,,,,,"[""grape.png""]","[""maltesers.png""]",,,,1,,,false,,1,,,,,,,671824.2399999872,671822.501,671523.233,671531.7049999721,671539.859,672155.021,2,,,
timeout,canvas.Screen,2_4_2_6_1_0_0_0_0_1_1,2021-01-14T21:32:59.430Z,,,blank.png,blank.png,blank.png,blank.png,blank.png,blank.png,blank.png,"[""maltesers.png""]",blank.png,blank.png,blank.png,blank.png,blank.png,,,,,,,,,,,,,,,,,,,,,,,,,,,,,"[""maltesers.png""]","[""grape.png""]",PB18.png,,,,,,,,,,,0,6,"[""grape.png""]","[""grape.png""]","[""grape.png""]","[""grape.png""]","[""grape.png""]","[""grape.png""]",blank.png,PB18.png,PB17.png,"[""grape.png""]","[""grape.png""]","[""grape.png""]","[""grape.png""]","[""grape.png""]","[""grape.png""]","[""grape.png""]","[""grape.png""]","[""grape.png""]","[""grape.png""]","[""grape.png""]","[""grape.png""]",1,"[""maltesers.png""]",blank.png,blank.png,blank.png,6,"[""grape.png""]","[""grape.png""]","[""grape.png""]","[""grape.png""]","[""grape.png""]","[""grape.png""]",PB17.png,,,,,,,,,,,1,,,,,,,,,,,,831.3000000000466,,timeout,,,,,,,,,,,,,4,,,,,,,,,,,,,,,,,,,,,,,,,,,,,,,,,,,,,,,,,,,,,,,,,,,,,,,,,"[""grape.png""]","[""maltesers.png""]",,,,1,,,false,,1,,,,,,,672639.199999976,672637.175,671822.501,672162.0350000449,672155.021,672986.321,,,,
choice,canvas.Screen,2_4_2_6_1_0_0_0_0_1_2,2021-01-14T21:33:03.299Z,,,blank.png,blank.png,blank.png,blank.png,blank.png,blank.png,blank.png,"[""maltesers.png""]",blank.png,blank.png,blank.png,blank.png,blank.png,,,,,,,,,,,,,,,,,,,,,,,,,,,,,"[""maltesers.png""]","[""grape.png""]",PB18.png,,,,,,,,,,,0,6,"[""grape.png""]","[""grape.png""]","[""grape.png""]","[""grape.png""]","[""grape.png""]","[""grape.png""]",blank.png,PB18.png,PB17.png,"[""grape.png""]","[""grape.png""]","[""grape.png""]","[""grape.png""]","[""grape.png""]","[""grape.png""]","[""grape.png""]","[""grape.png""]","[""grape.png""]","[""grape.png""]","[""grape.png""]","[""grape.png""]",1,"[""maltesers.png""]",blank.png,blank.png,blank.png,6,"[""grape.png""]","[""grape.png""]","[""grape.png""]","[""grape.png""]","[""grape.png""]","[""grape.png""]",PB17.png,,,,,,,,,,,1,,,,,,,,,,,,3519.034000030253,,response,,,,,,,,,,,,,4,,,,,,,,,,,,,,,,,,,,,,,,,,,,,,,,,,,,,,,,,,,,,,,,,,,,,,,,,"[""grape.png""]","[""maltesers.png""]",,,,1,right,keydown(ArrowRight),false,,1,,,,,,,676508.1599999685,676505.3550000302,672637.175,672995.3550000209,672986.321,676860.179,,2,,
square,canvas.Screen,2_4_2_6_1_0_0_0_0_1_3,2021-01-14T21:33:04.634Z,,,blank.png,blank.png,blank.png,blank.png,blank.png,blank.png,blank.png,"[""maltesers.png""]",blank.png,blank.png,blank.png,blank.png,blank.png,,,,,,,,,,,,,,,,,,,,,,,,,,,,,"[""maltesers.png""]","[""grape.png""]",PB18.png,,,,,,,,,,,0,6,"[""grape.png""]","[""grape.png""]","[""grape.png""]","[""grape.png""]","[""grape.png""]","[""grape.png""]",blank.png,PB18.png,PB17.png,"[""grape.png""]","[""grape.png""]","[""grape.png""]","[""grape.png""]","[""grape.png""]","[""grape.png""]","[""grape.png""]","[""grape.png""]","[""grape.png""]","[""grape.png""]","[""grape.png""]","[""grape.png""]",1,"[""maltesers.png""]",blank.png,blank.png,blank.png,6,"[""grape.png""]","[""grape.png""]","[""grape.png""]","[""grape.png""]","[""grape.png""]","[""grape.png""]",PB17.png,,,,,,,,,,,1,,#808080,#33ff3f,,,,,,,,,997.5599999999395,,timeout,,,,,,,,,,,,,4,,,,,,,,,,,,,,,,,,,,,,,,,,,,,,,,,,,,,,,,,,,,,,,,,,,,,,,,,"[""grape.png""]","[""maltesers.png""]",,,,1,,,false,,1,,,,,white,black,677843.600000022,677841.113,676843.553,676848.7700000405,676860.179,677857.739,,,,
ITI_late,canvas.Screen,2_4_2_6_1_0_0_0_0_1_4,2021-01-14T21:33:05.883Z,,,blank.png,blank.png,blank.png,blank.png,blank.png,blank.png,blank.png,"[""maltesers.png""]",blank.png,blank.png,blank.png,blank.png,blank.png,,,,,,,,,,,,,,,,,,,,,,,,,,,,,"[""maltesers.png""]","[""grape.png""]",PB18.png,,,,,,,,,,,0,6,"[""grape.png""]","[""grape.png""]","[""grape.png""]","[""grape.png""]","[""grape.png""]","[""grape.png""]",blank.png,PB18.png,PB17.png,"[""grape.png""]","[""grape.png""]","[""grape.png""]","[""grape.png""]","[""grape.png""]","[""grape.png""]","[""grape.png""]","[""grape.png""]","[""grape.png""]","[""grape.png""]","[""grape.png""]","[""grape.png""]",1,"[""maltesers.png""]",blank.png,blank.png,blank.png,6,"[""grape.png""]","[""grape.png""]","[""grape.png""]","[""grape.png""]","[""grape.png""]","[""grape.png""]",PB17.png,,,,,,,,,,,1,,,,,,,,,,,,1248.2080000001006,,timeout,,,,,,,,,,,,white,4,,,,,,,,,,,,,,,,,,,,,,,,,,,,,,,,,,,,,,,,,,,,,,,,,,,,,,,,,"[""grape.png""]","[""maltesers.png""]",,,,1,,,false,,1,,,,,,,679092.1999999555,679089.321,677841.113,677845.8899999969,677857.739,679105.947,,,,
choice_sequence,flow.Sequence,2_4_2_6_1_0_0_0_0_1,2021-01-14T21:33:05.883Z,,,blank.png,blank.png,blank.png,blank.png,blank.png,blank.png,blank.png,"[""maltesers.png""]",blank.png,blank.png,blank.png,blank.png,blank.png,,,,,,,,,,,,,,,,,,,,,,,,,,,,,"[""maltesers.png""]","[""grape.png""]",PB18.png,,,,,,,,,,,0,6,"[""grape.png""]","[""grape.png""]","[""grape.png""]","[""grape.png""]","[""grape.png""]","[""grape.png""]",blank.png,PB18.png,PB17.png,"[""grape.png""]","[""grape.png""]","[""grape.png""]","[""grape.png""]","[""grape.png""]","[""grape.png""]","[""grape.png""]","[""grape.png""]","[""grape.png""]","[""grape.png""]","[""grape.png""]","[""grape.png""]",1,"[""maltesers.png""]",blank.png,blank.png,blank.png,6,"[""grape.png""]","[""grape.png""]","[""grape.png""]","[""grape.png""]","[""grape.png""]","[""grape.png""]",PB17.png,,,,,,,,,,,1,,,,,,,,,,,,7549.461999999941,,completion,,,,,,,,,,,,,4,,,,,,,,,,,,,,,,,,,,,,,,,,,,,,,,,,,,,,,,,,,,,,,,,,,,,,,,,"[""grape.png""]","[""maltesers.png""]",,,,1,,,false,,1,,,,,,,679092.7649999503,679089.321,671523.233,671530.5599999847,671539.859,679105.947,,,,
fixCross,canvas.Screen,2_4_2_6_1_0_0_0_0_2_0,2021-01-14T21:33:06.331Z,,,blank.png,blank.png,blank.png,blank.png,blank.png,blank.png,blank.png,"[""maltesers.png""]",blank.png,blank.png,blank.png,blank.png,blank.png,,,,,,,,,,,,,,,,,,,,,,,,,,,,,"[""maltesers.png""]","[""grape.png""]",PB18.png,,,,,,,,,,,0,6,"[""grape.png""]","[""grape.png""]","[""grape.png""]","[""grape.png""]","[""grape.png""]","[""grape.png""]",blank.png,PB18.png,PB07.png,"[""grape.png""]","[""grape.png""]","[""grape.png""]","[""grape.png""]","[""grape.png""]","[""grape.png""]","[""grape.png""]",blank.png,blank.png,blank.png,blank.png,blank.png,1,"[""maltesers.png""]",blank.png,blank.png,blank.png,1,"[""grape.png""]",blank.png,blank.png,blank.png,blank.png,blank.png,PB07.png,,,,,,,,,,,1,,,,,,,,,,,,748.1699999999255,,timeout,,,,,,,,,,,,,4,,,,,,,,,,,,,,,,,,,,,,,,,,,,,,,,,,,,,,,,,,,,,,,,,,,,,,,,,"[""grape.png""]","[""maltesers.png""]",,,,1,,,false,,1,,,,,,,679540.8499999903,679538.223,679089.321,679099.3599999929,679105.947,679854.117,3,,,
timeout,canvas.Screen,2_4_2_6_1_0_0_0_0_2_1,2021-01-14T21:33:07.129Z,,,blank.png,blank.png,blank.png,blank.png,blank.png,blank.png,blank.png,"[""maltesers.png""]",blank.png,blank.png,blank.png,blank.png,blank.png,,,,,,,,,,,,,,,,,,,,,,,,,,,,,"[""maltesers.png""]","[""grape.png""]",PB18.png,,,,,,,,,,,0,6,"[""grape.png""]","[""grape.png""]","[""grape.png""]","[""grape.png""]","[""grape.png""]","[""grape.png""]",blank.png,PB18.png,PB07.png,"[""grape.png""]","[""grape.png""]","[""grape.png""]","[""grape.png""]","[""grape.png""]","[""grape.png""]","[""grape.png""]",blank.png,blank.png,blank.png,blank.png,blank.png,1,"[""maltesers.png""]",blank.png,blank.png,blank.png,1,"[""grape.png""]",blank.png,blank.png,blank.png,blank.png,blank.png,PB07.png,,,,,,,,,,,1,,,,,,,,,,,,798.048000000068,,timeout,,,,,,,,,,,,,4,,,,,,,,,,,,,,,,,,,,,,,,,,,,,,,,,,,,,,,,,,,,,,,,,,,,,,,,,"[""grape.png""]","[""maltesers.png""]",,,,1,,,false,,1,,,,,,,680338.9700000407,680336.271,679538.223,679864.0949999681,679854.117,680652.165,,,,
choice,canvas.Screen,2_4_2_6_1_0_0_0_0_2_2,2021-01-14T21:33:14.341Z,,,blank.png,blank.png,blank.png,blank.png,blank.png,blank.png,blank.png,"[""maltesers.png""]",blank.png,blank.png,blank.png,blank.png,blank.png,,,,,,,,,,,,,,,,,,,,,,,,,,,,,"[""maltesers.png""]","[""grape.png""]",PB18.png,,,,,,,,,,,0,6,"[""grape.png""]","[""grape.png""]","[""grape.png""]","[""grape.png""]","[""grape.png""]","[""grape.png""]",blank.png,PB18.png,PB07.png,"[""grape.png""]","[""grape.png""]","[""grape.png""]","[""grape.png""]","[""grape.png""]","[""grape.png""]","[""grape.png""]",blank.png,blank.png,blank.png,blank.png,blank.png,1,"[""maltesers.png""]",blank.png,blank.png,blank.png,1,"[""grape.png""]",blank.png,blank.png,blank.png,blank.png,blank.png,PB07.png,,,,,,,,,,,1,,,,,,,,,,,,6895.099999942817,,response,,,,,,,,,,,,,4,,,,,,,,,,,,,,,,,,,,,,,,,,,,,,,,,,,,,,,,,,,,,,,,,,,,,,,,,"[""grape.png""]","[""maltesers.png""]",,,,1,right,keydown(ArrowRight),false,,1,,,,,,,687550.4850000143,687547.2649999429,680336.271,680648.4449999407,680652.165,687867.849,,3,,
square,canvas.Screen,2_4_2_6_1_0_0_0_0_2_3,2021-01-14T21:33:15.641Z,,,blank.png,blank.png,blank.png,blank.png,blank.png,blank.png,blank.png,"[""maltesers.png""]",blank.png,blank.png,blank.png,blank.png,blank.png,,,,,,,,,,,,,,,,,,,,,,,,,,,,,"[""maltesers.png""]","[""grape.png""]",PB18.png,,,,,,,,,,,0,6,"[""grape.png""]","[""grape.png""]","[""grape.png""]","[""grape.png""]","[""grape.png""]","[""grape.png""]",blank.png,PB18.png,PB07.png,"[""grape.png""]","[""grape.png""]","[""grape.png""]","[""grape.png""]","[""grape.png""]","[""grape.png""]","[""grape.png""]",blank.png,blank.png,blank.png,blank.png,blank.png,1,"[""maltesers.png""]",blank.png,blank.png,blank.png,1,"[""grape.png""]",blank.png,blank.png,blank.png,blank.png,blank.png,PB07.png,,,,,,,,,,,1,,#808080,#33ff3f,,,,,,,,,997.5599999999395,,timeout,,,,,,,,,,,,,4,,,,,,,,,,,,,,,,,,,,,,,,,,,,,,,,,,,,,,,,,,,,,,,,,,,,,,,,,"[""grape.png""]","[""maltesers.png""]",,,,1,,,false,,1,,,,,white,black,688850.3700000001,688848.783,687851.223,687852.3499999428,687867.849,688865.409,,,,
ITI_late,canvas.Screen,2_4_2_6_1_0_0_0_0_2_4,2021-01-14T21:33:16.141Z,,,blank.png,blank.png,blank.png,blank.png,blank.png,blank.png,blank.png,"[""maltesers.png""]",blank.png,blank.png,blank.png,blank.png,blank.png,,,,,,,,,,,,,,,,,,,,,,,,,,,,,"[""maltesers.png""]","[""grape.png""]",PB18.png,,,,,,,,,,,0,6,"[""grape.png""]","[""grape.png""]","[""grape.png""]","[""grape.png""]","[""grape.png""]","[""grape.png""]",blank.png,PB18.png,PB07.png,"[""grape.png""]","[""grape.png""]","[""grape.png""]","[""grape.png""]","[""grape.png""]","[""grape.png""]","[""grape.png""]",blank.png,blank.png,blank.png,blank.png,blank.png,1,"[""maltesers.png""]",blank.png,blank.png,blank.png,1,"[""grape.png""]",blank.png,blank.png,blank.png,blank.png,blank.png,PB07.png,,,,,,,,,,,1,,,,,,,,,,,,499.8279999999795,,timeout,,,,,,,,,,,,black,4,,,,,,,,,,,,,,,,,,,,,,,,,,,,,,,,,,,,,,,,,,,,,,,,,,,,,,,,,"[""grape.png""]","[""maltesers.png""]",,,,1,,,false,,1,,,,,,,689351.2499999488,689348.611,688848.783,688852.7300000424,688865.409,689365.237,,,,
choice_sequence,flow.Sequence,2_4_2_6_1_0_0_0_0_2,2021-01-14T21:33:16.142Z,,,blank.png,blank.png,blank.png,blank.png,blank.png,blank.png,blank.png,"[""maltesers.png""]",blank.png,blank.png,blank.png,blank.png,blank.png,,,,,,,,,,,,,,,,,,,,,,,,,,,,,"[""maltesers.png""]","[""grape.png""]",PB18.png,,,,,,,,,,,0,6,"[""grape.png""]","[""grape.png""]","[""grape.png""]","[""grape.png""]","[""grape.png""]","[""grape.png""]",blank.png,PB18.png,PB07.png,"[""grape.png""]","[""grape.png""]","[""grape.png""]","[""grape.png""]","[""grape.png""]","[""grape.png""]","[""grape.png""]",blank.png,blank.png,blank.png,blank.png,blank.png,1,"[""maltesers.png""]",blank.png,blank.png,blank.png,1,"[""grape.png""]",blank.png,blank.png,blank.png,blank.png,blank.png,PB07.png,,,,,,,,,,,1,,,,,,,,,,,,10242.66399999999,,completion,,,,,,,,,,,,,4,,,,,,,,,,,,,,,,,,,,,,,,,,,,,,,,,,,,,,,,,,,,,,,,,,,,,,,,,"[""grape.png""]","[""maltesers.png""]",,,,1,,,false,,1,,,,,,,689351.7999999458,689348.611,679089.321,679098.1550000142,679105.947,689365.237,,,,
fixCross,canvas.Screen,2_4_2_6_1_0_0_0_0_3_0,2021-01-14T21:33:16.839Z,,,blank.png,blank.png,blank.png,blank.png,blank.png,blank.png,blank.png,"[""maltesers.png""]",blank.png,blank.png,blank.png,blank.png,blank.png,,,,,,,,,,,,,,,,,,,,,,,,,,,,,"[""maltesers.png""]","[""grape.png""]",PB18.png,,,,,,,,,,,0,6,"[""grape.png""]","[""grape.png""]","[""grape.png""]","[""grape.png""]","[""grape.png""]","[""grape.png""]",blank.png,PB18.png,PB01.png,"[""grape.png""]","[""grape.png""]","[""grape.png""]","[""grape.png""]","[""grape.png""]","[""grape.png""]",blank.png,blank.png,blank.png,blank.png,blank.png,blank.png,1,"[""maltesers.png""]",blank.png,blank.png,blank.png,0,blank.png,blank.png,blank.png,blank.png,blank.png,blank.png,PB01.png,,,,,,,,,,,1,,,,,,,,,,,,964.3080000000773,,timeout,,,,,,,,,,,,,4,,,,,,,,,,,,,,,,,,,,,,,,,,,,,,,,,,,,,,,,,,,,,,,,,,,,,,,,,"[""grape.png""]","[""maltesers.png""]",,,,1,,,false,,1,,,,,,,690049.2749999976,690046.903,689348.611,689358.8499999605,689365.237,690329.545,4,,,
timeout,canvas.Screen,2_4_2_6_1_0_0_0_0_3_1,2021-01-14T21:33:17.604Z,,,blank.png,blank.png,blank.png,blank.png,blank.png,blank.png,blank.png,"[""maltesers.png""]",blank.png,blank.png,blank.png,blank.png,blank.png,,,,,,,,,,,,,,,,,,,,,,,,,,,,,"[""maltesers.png""]","[""grape.png""]",PB18.png,,,,,,,,,,,0,6,"[""grape.png""]","[""grape.png""]","[""grape.png""]","[""grape.png""]","[""grape.png""]","[""grape.png""]",blank.png,PB18.png,PB01.png,"[""grape.png""]","[""grape.png""]","[""grape.png""]","[""grape.png""]","[""grape.png""]","[""grape.png""]",blank.png,blank.png,blank.png,blank.png,blank.png,blank.png,1,"[""maltesers.png""]",blank.png,blank.png,blank.png,0,blank.png,blank.png,blank.png,blank.png,blank.png,blank.png,PB01.png,,,,,,,,,,,1,,,,,,,,,,,,798.0479999999516,,timeout,,,,,,,,,,,,,4,,,,,,,,,,,,,,,,,,,,,,,,,,,,,,,,,,,,,,,,,,,,,,,,,,,,,,,,,"[""grape.png""]","[""maltesers.png""]",,,,1,,,false,,1,,,,,,,690814.325000043,690811.699,690046.903,690336.66000003,690329.545,691127.593,,,,
choice,canvas.Screen,2_4_2_6_1_0_0_0_0_3_2,2021-01-14T21:33:20.756Z,,,blank.png,blank.png,blank.png,blank.png,blank.png,blank.png,blank.png,"[""maltesers.png""]",blank.png,blank.png,blank.png,blank.png,blank.png,,,,,,,,,,,,,,,,,,,,,,,,,,,,,"[""maltesers.png""]","[""grape.png""]",PB18.png,,,,,,,,,,,0,6,"[""grape.png""]","[""grape.png""]","[""grape.png""]","[""grape.png""]","[""grape.png""]","[""grape.png""]",blank.png,PB18.png,PB01.png,"[""grape.png""]","[""grape.png""]","[""grape.png""]","[""grape.png""]","[""grape.png""]","[""grape.png""]",blank.png,blank.png,blank.png,blank.png,blank.png,blank.png,1,"[""maltesers.png""]",blank.png,blank.png,blank.png,0,blank.png,blank.png,blank.png,blank.png,blank.png,blank.png,PB01.png,,,,,,,,,,,1,,,,,,,,,,,,2835.367000033497,,response,,,,,,,,,,,,,4,,,,,,,,,,,,,,,,,,,,,,,,,,,,,,,,,,,,,,,,,,,,,,,,,,,,,,,,,"[""grape.png""]","[""maltesers.png""]",,,,1,right,keydown(ArrowRight),false,,1,,,,,,,693965.8549999585,693962.9600000335,690811.699,691127.4899999844,691127.593,694269.907,,4,,
square,canvas.Screen,2_4_2_6_1_0_0_0_0_3_3,2021-01-14T21:33:22.043Z,,,blank.png,blank.png,blank.png,blank.png,blank.png,blank.png,blank.png,"[""maltesers.png""]",blank.png,blank.png,blank.png,blank.png,blank.png,,,,,,,,,,,,,,,,,,,,,,,,,,,,,"[""maltesers.png""]","[""grape.png""]",PB18.png,,,,,,,,,,,0,6,"[""grape.png""]","[""grape.png""]","[""grape.png""]","[""grape.png""]","[""grape.png""]","[""grape.png""]",blank.png,PB18.png,PB01.png,"[""grape.png""]","[""grape.png""]","[""grape.png""]","[""grape.png""]","[""grape.png""]","[""grape.png""]",blank.png,blank.png,blank.png,blank.png,blank.png,blank.png,1,"[""maltesers.png""]",blank.png,blank.png,blank.png,0,blank.png,blank.png,blank.png,blank.png,blank.png,blank.png,PB01.png,,,,,,,,,,,1,,#808080,#33ff3f,,,,,,,,,997.5599999999395,,timeout,,,,,,,,,,,,,4,,,,,,,,,,,,,,,,,,,,,,,,,,,,,,,,,,,,,,,,,,,,,,,,,,,,,,,,,"[""grape.png""]","[""maltesers.png""]",,,,1,,,false,,1,,,,,white,black,695252.7250000276,695250.841,694253.281,694263.655000017,694269.907,695267.467,,,,
ITI_late,canvas.Screen,2_4_2_6_1_0_0_0_0_3_4,2021-01-14T21:33:22.542Z,,,blank.png,blank.png,blank.png,blank.png,blank.png,blank.png,blank.png,"[""maltesers.png""]",blank.png,blank.png,blank.png,blank.png,blank.png,,,,,,,,,,,,,,,,,,,,,,,,,,,,,"[""maltesers.png""]","[""grape.png""]",PB18.png,,,,,,,,,,,0,6,"[""grape.png""]","[""grape.png""]","[""grape.png""]","[""grape.png""]","[""grape.png""]","[""grape.png""]",blank.png,PB18.png,PB01.png,"[""grape.png""]","[""grape.png""]","[""grape.png""]","[""grape.png""]","[""grape.png""]","[""grape.png""]",blank.png,blank.png,blank.png,blank.png,blank.png,blank.png,1,"[""maltesers.png""]",blank.png,blank.png,blank.png,0,blank.png,blank.png,blank.png,blank.png,blank.png,blank.png,PB01.png,,,,,,,,,,,1,,,,,,,,,,,,498.78000000002794,,timeout,,,,,,,,,,,,white,4,,,,,,,,,,,,,,,,,,,,,,,,,,,,,,,,,,,,,,,,,,,,,,,,,,,,,,,,,"[""grape.png""]","[""maltesers.png""]",,,,1,,,false,,1,,,,,,,695751.6250000335,695749.621,695250.841,695254.889999982,695267.467,695766.247,,,,
choice_sequence,flow.Sequence,2_4_2_6_1_0_0_0_0_3,2021-01-14T21:33:22.542Z,,,blank.png,blank.png,blank.png,blank.png,blank.png,blank.png,blank.png,"[""maltesers.png""]",blank.png,blank.png,blank.png,blank.png,blank.png,,,,,,,,,,,,,,,,,,,,,,,,,,,,,"[""maltesers.png""]","[""grape.png""]",PB18.png,,,,,,,,,,,0,6,"[""grape.png""]","[""grape.png""]","[""grape.png""]","[""grape.png""]","[""grape.png""]","[""grape.png""]",blank.png,PB18.png,PB01.png,"[""grape.png""]","[""grape.png""]","[""grape.png""]","[""grape.png""]","[""grape.png""]","[""grape.png""]",blank.png,blank.png,blank.png,blank.png,blank.png,blank.png,1,"[""maltesers.png""]",blank.png,blank.png,blank.png,0,blank.png,blank.png,blank.png,blank.png,blank.png,blank.png,PB01.png,,,,,,,,,,,1,,,,,,,,,,,,6384.384000000078,,completion,,,,,,,,,,,,,4,,,,,,,,,,,,,,,,,,,,,,,,,,,,,,,,,,,,,,,,,,,,,,,,,,,,,,,,,"[""grape.png""]","[""maltesers.png""]",,,,1,,,false,,1,,,,,,,695752.1849999903,695749.621,689348.611,689356.52999999,689365.237,695766.247,,,,
fixCross,canvas.Screen,2_4_2_6_1_0_0_0_0_4_0,2021-01-14T21:33:23.190Z,,,blank.png,blank.png,blank.png,blank.png,blank.png,blank.png,blank.png,"[""maltesers.png""]",blank.png,blank.png,blank.png,blank.png,blank.png,,,,,,,,,,,,,,,,,,,,,,,,,,,,,"[""maltesers.png""]","[""grape.png""]",PB18.png,,,,,,,,,,,0,6,"[""grape.png""]","[""grape.png""]","[""grape.png""]","[""grape.png""]","[""grape.png""]","[""grape.png""]",blank.png,PB18.png,PB14.png,"[""grape.png""]","[""grape.png""]","[""grape.png""]","[""grape.png""]","[""grape.png""]","[""grape.png""]","[""grape.png""]","[""grape.png""]","[""grape.png""]",blank.png,blank.png,blank.png,1,"[""maltesers.png""]",blank.png,blank.png,blank.png,3,"[""grape.png""]","[""grape.png""]","[""grape.png""]",blank.png,blank.png,blank.png,PB14.png,,,,,,,,,,,1,,,,,,,,,,,,947.6820000000298,,timeout,,,,,,,,,,,,,4,,,,,,,,,,,,,,,,,,,,,,,,,,,,,,,,,,,,,,,,,,,,,,,,,,,,,,,,,"[""grape.png""]","[""maltesers.png""]",,,,1,,,false,,1,,,,,,,696399.8549999669,696398.035,695749.621,695757.8600000124,695766.247,696713.929,5,,,
timeout,canvas.Screen,2_4_2_6_1_0_0_0_0_4_1,2021-01-14T21:33:23.988Z,,,blank.png,blank.png,blank.png,blank.png,blank.png,blank.png,blank.png,"[""maltesers.png""]",blank.png,blank.png,blank.png,blank.png,blank.png,,,,,,,,,,,,,,,,,,,,,,,,,,,,,"[""maltesers.png""]","[""grape.png""]",PB18.png,,,,,,,,,,,0,6,"[""grape.png""]","[""grape.png""]","[""grape.png""]","[""grape.png""]","[""grape.png""]","[""grape.png""]",blank.png,PB18.png,PB14.png,"[""grape.png""]","[""grape.png""]","[""grape.png""]","[""grape.png""]","[""grape.png""]","[""grape.png""]","[""grape.png""]","[""grape.png""]","[""grape.png""]",blank.png,blank.png,blank.png,1,"[""maltesers.png""]",blank.png,blank.png,blank.png,3,"[""grape.png""]","[""grape.png""]","[""grape.png""]",blank.png,blank.png,blank.png,PB14.png,,,,,,,,,,,1,,,,,,,,,,,,798.0479999999516,,timeout,,,,,,,,,,,,,4,,,,,,,,,,,,,,,,,,,,,,,,,,,,,,,,,,,,,,,,,,,,,,,,,,,,,,,,,"[""grape.png""]","[""maltesers.png""]",,,,1,,,false,,1,,,,,,,697197.9249999858,697196.083,696398.035,696722.7949999506,696713.929,697511.977,,,,
choice,canvas.Screen,2_4_2_6_1_0_0_0_0_4_2,2021-01-14T21:33:28.618Z,,,blank.png,blank.png,blank.png,blank.png,blank.png,blank.png,blank.png,"[""maltesers.png""]",blank.png,blank.png,blank.png,blank.png,blank.png,,,,,,,,,,,,,,,,,,,,,,,,,,,,,"[""maltesers.png""]","[""grape.png""]",PB18.png,,,,,,,,,,,0,6,"[""grape.png""]","[""grape.png""]","[""grape.png""]","[""grape.png""]","[""grape.png""]","[""grape.png""]",blank.png,PB18.png,PB14.png,"[""grape.png""]","[""grape.png""]","[""grape.png""]","[""grape.png""]","[""grape.png""]","[""grape.png""]","[""grape.png""]","[""grape.png""]","[""grape.png""]",blank.png,blank.png,blank.png,1,"[""maltesers.png""]",blank.png,blank.png,blank.png,3,"[""grape.png""]","[""grape.png""]","[""grape.png""]",blank.png,blank.png,blank.png,PB14.png,,,,,,,,,,,1,,,,,,,,,,,,4312.807999946177,,response,,,,,,,,,,,,,4,,,,,,,,,,,,,,,,,,,,,,,,,,,,,,,,,,,,,,,,,,,,,,,,,,,,,,,,,"[""grape.png""]","[""maltesers.png""]",,,,1,right,keydown(ArrowRight),false,,1,,,,,,,701828.0399999348,701824.7849999461,697196.083,697515.2849999722,697511.977,702150.631,,5,,
square,canvas.Screen,2_4_2_6_1_0_0_0_0_4_3,2021-01-14T21:33:29.924Z,,,blank.png,blank.png,blank.png,blank.png,blank.png,blank.png,blank.png,"[""maltesers.png""]",blank.png,blank.png,blank.png,blank.png,blank.png,,,,,,,,,,,,,,,,,,,,,,,,,,,,,"[""maltesers.png""]","[""grape.png""]",PB18.png,,,,,,,,,,,0,6,"[""grape.png""]","[""grape.png""]","[""grape.png""]","[""grape.png""]","[""grape.png""]","[""grape.png""]",blank.png,PB18.png,PB14.png,"[""grape.png""]","[""grape.png""]","[""grape.png""]","[""grape.png""]","[""grape.png""]","[""grape.png""]","[""grape.png""]","[""grape.png""]","[""grape.png""]",blank.png,blank.png,blank.png,1,"[""maltesers.png""]",blank.png,blank.png,blank.png,3,"[""grape.png""]","[""grape.png""]","[""grape.png""]",blank.png,blank.png,blank.png,PB14.png,,,,,,,,,,,1,,#808080,#33ff3f,,,,,,,,,997.5599999999395,,timeout,,,,,,,,,,,,,4,,,,,,,,,,,,,,,,,,,,,,,,,,,,,,,,,,,,,,,,,,,,,,,,,,,,,,,,,"[""grape.png""]","[""maltesers.png""]",,,,1,,,false,,1,,,,,white,black,703134.2299999669,703131.565,702134.005,702141.5249999845,702150.631,703148.191,,,,
ITI_late,canvas.Screen,2_4_2_6_1_0_0_0_0_4_4,2021-01-14T21:33:30.174Z,,,blank.png,blank.png,blank.png,blank.png,blank.png,blank.png,blank.png,"[""maltesers.png""]",blank.png,blank.png,blank.png,blank.png,blank.png,,,,,,,,,,,,,,,,,,,,,,,,,,,,,"[""maltesers.png""]","[""grape.png""]",PB18.png,,,,,,,,,,,0,6,"[""grape.png""]","[""grape.png""]","[""grape.png""]","[""grape.png""]","[""grape.png""]","[""grape.png""]",blank.png,PB18.png,PB14.png,"[""grape.png""]","[""grape.png""]","[""grape.png""]","[""grape.png""]","[""grape.png""]","[""grape.png""]","[""grape.png""]","[""grape.png""]","[""grape.png""]",blank.png,blank.png,blank.png,1,"[""maltesers.png""]",blank.png,blank.png,blank.png,3,"[""grape.png""]","[""grape.png""]","[""grape.png""]",blank.png,blank.png,blank.png,PB14.png,,,,,,,,,,,1,,,,,,,,,,,,250.68500000005588,,timeout,,,,,,,,,,,,white,4,,,,,,,,,,,,,,,,,,,,,,,,,,,,,,,,,,,,,,,,,,,,,,,,,,,,,,,,,"[""grape.png""]","[""maltesers.png""]",,,,1,,,false,,1,,,,,,,703384.5549999969,703382.25,703131.565,703136.5849999711,703148.191,703398.876,,,,
choice_sequence,flow.Sequence,2_4_2_6_1_0_0_0_0_4,2021-01-14T21:33:30.175Z,,,blank.png,blank.png,blank.png,blank.png,blank.png,blank.png,blank.png,"[""maltesers.png""]",blank.png,blank.png,blank.png,blank.png,blank.png,,,,,,,,,,,,,,,,,,,,,,,,,,,,,"[""maltesers.png""]","[""grape.png""]",PB18.png,,,,,,,,,,,0,6,"[""grape.png""]","[""grape.png""]","[""grape.png""]","[""grape.png""]","[""grape.png""]","[""grape.png""]",blank.png,PB18.png,PB14.png,"[""grape.png""]","[""grape.png""]","[""grape.png""]","[""grape.png""]","[""grape.png""]","[""grape.png""]","[""grape.png""]","[""grape.png""]","[""grape.png""]",blank.png,blank.png,blank.png,1,"[""maltesers.png""]",blank.png,blank.png,blank.png,3,"[""grape.png""]","[""grape.png""]","[""grape.png""]",blank.png,blank.png,blank.png,PB14.png,,,,,,,,,,,1,,,,,,,,,,,,7616.003000000026,,completion,,,,,,,,,,,,,4,,,,,,,,,,,,,,,,,,,,,,,,,,,,,,,,,,,,,,,,,,,,,,,,,,,,,,,,,"[""grape.png""]","[""maltesers.png""]",,,,1,,,false,,1,,,,,,,703385.0950000342,703382.25,695749.621,695756.790000014,695766.247,703398.876,,,,
fixCross,canvas.Screen,2_4_2_6_1_0_0_0_0_5_0,2021-01-14T21:33:30.474Z,,,blank.png,"[""maltesers.png""]",blank.png,blank.png,blank.png,blank.png,blank.png,blank.png,blank.png,blank.png,blank.png,blank.png,blank.png,,,,,,,,,,,,,,,,,,,,,,,,,,,,,"[""maltesers.png""]","[""grape.png""]",PB15.png,,,,,,,,,,,0,6,"[""grape.png""]","[""grape.png""]","[""grape.png""]","[""grape.png""]","[""grape.png""]","[""grape.png""]",blank.png,PB18.png,PB18.png,"[""grape.png""]","[""grape.png""]","[""grape.png""]","[""grape.png""]",blank.png,blank.png,"[""grape.png""]","[""grape.png""]","[""grape.png""]","[""grape.png""]","[""grape.png""]","[""grape.png""]",1,"[""maltesers.png""]",blank.png,blank.png,blank.png,4,"[""grape.png""]","[""grape.png""]","[""grape.png""]","[""grape.png""]",blank.png,blank.png,PB15.png,,,,,,,,,,,1,,,,,,,,,,,,615.1619999998948,,timeout,,,,,,,,,,,,,3,,,,,,,,,,,,,,,,,,,,,,,,,,,,,,,,,,,,,,,,,,,,,,,,,,,,,,,,,"[""grape.png""]","[""maltesers.png""]",,,,1,,,false,,1,,,,,,,703683.8699999498,703681.518,703382.25,703390.5149999773,703398.876,704014.038,6,,,
timeout,canvas.Screen,2_4_2_6_1_0_0_0_0_5_1,2021-01-14T21:33:31.289Z,,,blank.png,"[""maltesers.png""]",blank.png,blank.png,blank.png,blank.png,blank.png,blank.png,blank.png,blank.png,blank.png,blank.png,blank.png,,,,,,,,,,,,,,,,,,,,,,,,,,,,,"[""maltesers.png""]","[""grape.png""]",PB15.png,,,,,,,,,,,0,6,"[""grape.png""]","[""grape.png""]","[""grape.png""]","[""grape.png""]","[""grape.png""]","[""grape.png""]",blank.png,PB18.png,PB18.png,"[""grape.png""]","[""grape.png""]","[""grape.png""]","[""grape.png""]",blank.png,blank.png,"[""grape.png""]","[""grape.png""]","[""grape.png""]","[""grape.png""]","[""grape.png""]","[""grape.png""]",1,"[""maltesers.png""]",blank.png,blank.png,blank.png,4,"[""grape.png""]","[""grape.png""]","[""grape.png""]","[""grape.png""]",blank.png,blank.png,PB15.png,,,,,,,,,,,1,,,,,,,,,,,,814.6740000001155,,timeout,,,,,,,,,,,,,3,,,,,,,,,,,,,,,,,,,,,,,,,,,,,,,,,,,,,,,,,,,,,,,,,,,,,,,,,"[""grape.png""]","[""maltesers.png""]",,,,1,,,false,,1,,,,,,,704498.8799999701,704496.192,703681.518,704023.18499994,704014.038,704828.712,,,,
choice,canvas.Screen,2_4_2_6_1_0_0_0_0_5_2,2021-01-14T21:33:33.395Z,,,blank.png,"[""maltesers.png""]",blank.png,blank.png,blank.png,blank.png,blank.png,blank.png,blank.png,blank.png,blank.png,blank.png,blank.png,,,,,,,,,,,,,,,,,,,,,,,,,,,,,"[""maltesers.png""]","[""grape.png""]",PB15.png,,,,,,,,,,,0,6,"[""grape.png""]","[""grape.png""]","[""grape.png""]","[""grape.png""]","[""grape.png""]","[""grape.png""]",blank.png,PB18.png,PB18.png,"[""grape.png""]","[""grape.png""]","[""grape.png""]","[""grape.png""]",blank.png,blank.png,"[""grape.png""]","[""grape.png""]","[""grape.png""]","[""grape.png""]","[""grape.png""]","[""grape.png""]",1,"[""maltesers.png""]",blank.png,blank.png,blank.png,4,"[""grape.png""]","[""grape.png""]","[""grape.png""]","[""grape.png""]",blank.png,blank.png,PB15.png,,,,,,,,,,,1,,,,,,,,,,,,1773.8480000284035,,response,,,,,,,,,,,,,3,,,,,,,,,,,,,,,,,,,,,,,,,,,,,,,,,,,,,,,,,,,,,,,,,,,,,,,,,"[""grape.png""]","[""maltesers.png""]",,,,1,left,keydown(ArrowLeft),false,,1,,,,,,,706605.1450000377,706602.5600000285,704496.192,704824.2849999806,704828.712,706923.588,,6,,
square,canvas.Screen,2_4_2_6_1_0_0_0_0_5_3,2021-01-14T21:33:34.697Z,,,blank.png,"[""maltesers.png""]",blank.png,blank.png,blank.png,blank.png,blank.png,blank.png,blank.png,blank.png,blank.png,blank.png,blank.png,,,,,,,,,,,,,,,,,,,,,,,,,,,,,"[""maltesers.png""]","[""grape.png""]",PB15.png,,,,,,,,,,,0,6,"[""grape.png""]","[""grape.png""]","[""grape.png""]","[""grape.png""]","[""grape.png""]","[""grape.png""]",blank.png,PB18.png,PB18.png,"[""grape.png""]","[""grape.png""]","[""grape.png""]","[""grape.png""]",blank.png,blank.png,"[""grape.png""]","[""grape.png""]","[""grape.png""]","[""grape.png""]","[""grape.png""]","[""grape.png""]",1,"[""maltesers.png""]",blank.png,blank.png,blank.png,4,"[""grape.png""]","[""grape.png""]","[""grape.png""]","[""grape.png""]",blank.png,blank.png,PB15.png,,,,,,,,,,,1,,#33ff3f,#808080,,,,,,,,,997.5600000000559,,timeout,,,,,,,,,,,,,3,,,,,,,,,,,,,,,,,,,,,,,,,,,,,,,,,,,,,,,,,,,,,,,,,,,,,,,,,"[""grape.png""]","[""maltesers.png""]",,,,1,,,false,,1,,,,,black,white,707907.2800000431,707904.522,706906.962,706922.2049999516,706923.588,707921.148,,,,
ITI_late,canvas.Screen,2_4_2_6_1_0_0_0_0_5_4,2021-01-14T21:33:35.445Z,,,blank.png,"[""maltesers.png""]",blank.png,blank.png,blank.png,blank.png,blank.png,blank.png,blank.png,blank.png,blank.png,blank.png,blank.png,,,,,,,,,,,,,,,,,,,,,,,,,,,,,"[""maltesers.png""]","[""grape.png""]",PB15.png,,,,,,,,,,,0,6,"[""grape.png""]","[""grape.png""]","[""grape.png""]","[""grape.png""]","[""grape.png""]","[""grape.png""]",blank.png,PB18.png,PB18.png,"[""grape.png""]","[""grape.png""]","[""grape.png""]","[""grape.png""]",blank.png,blank.png,"[""grape.png""]","[""grape.png""]","[""grape.png""]","[""grape.png""]","[""grape.png""]","[""grape.png""]",1,"[""maltesers.png""]",blank.png,blank.png,blank.png,4,"[""grape.png""]","[""grape.png""]","[""grape.png""]","[""grape.png""]",blank.png,blank.png,PB15.png,,,,,,,,,,,1,,,,,,,,,,,,748.1699999999255,,timeout,,,,,,,,,,,,white,3,,,,,,,,,,,,,,,,,,,,,,,,,,,,,,,,,,,,,,,,,,,,,,,,,,,,,,,,,"[""grape.png""]","[""maltesers.png""]",,,,1,,,false,,1,,,,,,,708655.2000000374,708652.692,707904.522,707909.495000029,707921.148,708669.318,,,,
choice_sequence,flow.Sequence,2_4_2_6_1_0_0_0_0_5,2021-01-14T21:33:35.446Z,,,blank.png,"[""maltesers.png""]",blank.png,blank.png,blank.png,blank.png,blank.png,blank.png,blank.png,blank.png,blank.png,blank.png,blank.png,,,,,,,,,,,,,,,,,,,,,,,,,,,,,"[""maltesers.png""]","[""grape.png""]",PB15.png,,,,,,,,,,,0,6,"[""grape.png""]","[""grape.png""]","[""grape.png""]","[""grape.png""]","[""grape.png""]","[""grape.png""]",blank.png,PB18.png,PB18.png,"[""grape.png""]","[""grape.png""]","[""grape.png""]","[""grape.png""]",blank.png,blank.png,"[""grape.png""]","[""grape.png""]","[""grape.png""]","[""grape.png""]","[""grape.png""]","[""grape.png""]",1,"[""maltesers.png""]",blank.png,blank.png,blank.png,4,"[""grape.png""]","[""grape.png""]","[""grape.png""]","[""grape.png""]",blank.png,blank.png,PB15.png,,,,,,,,,,,1,,,,,,,,,,,,5253.815999999992,,completion,,,,,,,,,,,,,3,,,,,,,,,,,,,,,,,,,,,,,,,,,,,,,,,,,,,,,,,,,,,,,,,,,,,,,,,"[""grape.png""]","[""maltesers.png""]",,,,1,,,false,,1,,,,,,,708655.7449999964,708652.692,703382.25,703389.4699999364,703398.876,708669.318,,,,
fixCross,canvas.Screen,2_4_2_6_1_0_0_0_0_6_0,2021-01-14T21:33:35.695Z,,,blank.png,blank.png,blank.png,blank.png,blank.png,blank.png,blank.png,"[""maltesers.png""]",blank.png,blank.png,blank.png,blank.png,blank.png,,,,,,,,,,,,,,,,,,,,,,,,,,,,,"[""maltesers.png""]","[""grape.png""]",PB18.png,,,,,,,,,,,0,6,"[""grape.png""]","[""grape.png""]","[""grape.png""]","[""grape.png""]","[""grape.png""]","[""grape.png""]",blank.png,PB18.png,PB16.png,"[""grape.png""]","[""grape.png""]","[""grape.png""]","[""grape.png""]","[""grape.png""]","[""grape.png""]","[""grape.png""]","[""grape.png""]","[""grape.png""]","[""grape.png""]","[""grape.png""]",blank.png,1,"[""maltesers.png""]",blank.png,blank.png,blank.png,5,"[""grape.png""]","[""grape.png""]","[""grape.png""]","[""grape.png""]","[""grape.png""]",blank.png,PB16.png,,,,,,,,,,,1,,,,,,,,,,,,548.658000000054,,timeout,,,,,,,,,,,,,4,,,,,,,,,,,,,,,,,,,,,,,,,,,,,,,,,,,,,,,,,,,,,,,,,,,,,,,,,"[""grape.png""]","[""maltesers.png""]",,,,1,,,false,,1,,,,,,,708904.749999987,708902.082,708652.692,708661.3450000295,708669.318,709217.976,7,,,
timeout,canvas.Screen,2_4_2_6_1_0_0_0_0_6_1,2021-01-14T21:33:36.492Z,,,blank.png,blank.png,blank.png,blank.png,blank.png,blank.png,blank.png,"[""maltesers.png""]",blank.png,blank.png,blank.png,blank.png,blank.png,,,,,,,,,,,,,,,,,,,,,,,,,,,,,"[""maltesers.png""]","[""grape.png""]",PB18.png,,,,,,,,,,,0,6,"[""grape.png""]","[""grape.png""]","[""grape.png""]","[""grape.png""]","[""grape.png""]","[""grape.png""]",blank.png,PB18.png,PB16.png,"[""grape.png""]","[""grape.png""]","[""grape.png""]","[""grape.png""]","[""grape.png""]","[""grape.png""]","[""grape.png""]","[""grape.png""]","[""grape.png""]","[""grape.png""]","[""grape.png""]",blank.png,1,"[""maltesers.png""]",blank.png,blank.png,blank.png,5,"[""grape.png""]","[""grape.png""]","[""grape.png""]","[""grape.png""]","[""grape.png""]",blank.png,PB16.png,,,,,,,,,,,1,,,,,,,,,,,,864.5520000000251,,timeout,,,,,,,,,,,,,4,,,,,,,,,,,,,,,,,,,,,,,,,,,,,,,,,,,,,,,,,,,,,,,,,,,,,,,,,"[""grape.png""]","[""maltesers.png""]",,,,1,,,false,,1,,,,,,,709701.9849999342,709700.13,708902.082,709224.9000000302,709217.976,710082.528,,,,
choice,canvas.Screen,2_4_2_6_1_0_0_0_0_6_2,2021-01-14T21:33:38.076Z,,,blank.png,blank.png,blank.png,blank.png,blank.png,blank.png,blank.png,"[""maltesers.png""]",blank.png,blank.png,blank.png,blank.png,blank.png,,,,,,,,,,,,,,,,,,,,,,,,,,,,,"[""maltesers.png""]","[""grape.png""]",PB18.png,,,,,,,,,,,0,6,"[""grape.png""]","[""grape.png""]","[""grape.png""]","[""grape.png""]","[""grape.png""]","[""grape.png""]",blank.png,PB18.png,PB16.png,"[""grape.png""]","[""grape.png""]","[""grape.png""]","[""grape.png""]","[""grape.png""]","[""grape.png""]","[""grape.png""]","[""grape.png""]","[""grape.png""]","[""grape.png""]","[""grape.png""]",blank.png,1,"[""maltesers.png""]",blank.png,blank.png,blank.png,5,"[""grape.png""]","[""grape.png""]","[""grape.png""]","[""grape.png""]","[""grape.png""]",blank.png,PB16.png,,,,,,,,,,,1,,,,,,,,,,,,1199.1269999406068,,response,,,,,,,,,,,,,4,,,,,,,,,,,,,,,,,,,,,,,,,,,,,,,,,,,,,,,,,,,,,,,,,,,,,,,,,"[""grape.png""]","[""maltesers.png""]",,,,1,right,keydown(ArrowRight),false,,1,,,,,,,711286.3549999893,711281.6549999407,709700.13,710057.4000000488,710082.528,711628.746,,7,,
square,canvas.Screen,2_4_2_6_1_0_0_0_0_6_3,2021-01-14T21:33:39.401Z,,,blank.png,blank.png,blank.png,blank.png,blank.png,blank.png,blank.png,"[""maltesers.png""]",blank.png,blank.png,blank.png,blank.png,blank.png,,,,,,,,,,,,,,,,,,,,,,,,,,,,,"[""maltesers.png""]","[""grape.png""]",PB18.png,,,,,,,,,,,0,6,"[""grape.png""]","[""grape.png""]","[""grape.png""]","[""grape.png""]","[""grape.png""]","[""grape.png""]",blank.png,PB18.png,PB16.png,"[""grape.png""]","[""grape.png""]","[""grape.png""]","[""grape.png""]","[""grape.png""]","[""grape.png""]","[""grape.png""]","[""grape.png""]","[""grape.png""]","[""grape.png""]","[""grape.png""]",blank.png,1,"[""maltesers.png""]",blank.png,blank.png,blank.png,5,"[""grape.png""]","[""grape.png""]","[""grape.png""]","[""grape.png""]","[""grape.png""]",blank.png,PB16.png,,,,,,,,,,,1,,#808080,#33ff3f,,,,,,,,,997.5599999999395,,timeout,,,,,,,,,,,,,4,,,,,,,,,,,,,,,,,,,,,,,,,,,,,,,,,,,,,,,,,,,,,,,,,,,,,,,,,"[""grape.png""]","[""maltesers.png""]",,,,1,,,false,,1,,,,,white,black,712611.1449999735,712609.68,711612.12,711617.4200000241,711628.746,712626.306,,,,
ITI_late,canvas.Screen,2_4_2_6_1_0_0_0_0_6_4,2021-01-14T21:33:40.398Z,,,blank.png,blank.png,blank.png,blank.png,blank.png,blank.png,blank.png,"[""maltesers.png""]",blank.png,blank.png,blank.png,blank.png,blank.png,,,,,,,,,,,,,,,,,,,,,,,,,,,,,"[""maltesers.png""]","[""grape.png""]",PB18.png,,,,,,,,,,,0,6,"[""grape.png""]","[""grape.png""]","[""grape.png""]","[""grape.png""]","[""grape.png""]","[""grape.png""]",blank.png,PB18.png,PB16.png,"[""grape.png""]","[""grape.png""]","[""grape.png""]","[""grape.png""]","[""grape.png""]","[""grape.png""]","[""grape.png""]","[""grape.png""]","[""grape.png""]","[""grape.png""]","[""grape.png""]",blank.png,1,"[""maltesers.png""]",blank.png,blank.png,blank.png,5,"[""grape.png""]","[""grape.png""]","[""grape.png""]","[""grape.png""]","[""grape.png""]",blank.png,PB16.png,,,,,,,,,,,1,,,,,,,,,,,,1014.185999999987,,timeout,,,,,,,,,,,,white,4,,,,,,,,,,,,,,,,,,,,,,,,,,,,,,,,,,,,,,,,,,,,,,,,,,,,,,,,,"[""grape.png""]","[""maltesers.png""]",,,,1,,,false,,1,,,,,,,713608.7200000184,713607.24,712609.68,712614.5249999827,712626.306,713640.492,,,,
choice_sequence,flow.Sequence,2_4_2_6_1_0_0_0_0_6,2021-01-14T21:33:40.399Z,,,blank.png,blank.png,blank.png,blank.png,blank.png,blank.png,blank.png,"[""maltesers.png""]",blank.png,blank.png,blank.png,blank.png,blank.png,,,,,,,,,,,,,,,,,,,,,,,,,,,,,"[""maltesers.png""]","[""grape.png""]",PB18.png,,,,,,,,,,,0,6,"[""grape.png""]","[""grape.png""]","[""grape.png""]","[""grape.png""]","[""grape.png""]","[""grape.png""]",blank.png,PB18.png,PB16.png,"[""grape.png""]","[""grape.png""]","[""grape.png""]","[""grape.png""]","[""grape.png""]","[""grape.png""]","[""grape.png""]","[""grape.png""]","[""grape.png""]","[""grape.png""]","[""grape.png""]",blank.png,1,"[""maltesers.png""]",blank.png,blank.png,blank.png,5,"[""grape.png""]","[""grape.png""]","[""grape.png""]","[""grape.png""]","[""grape.png""]",blank.png,PB16.png,,,,,,,,,,,1,,,,,,,,,,,,4937.9220000000205,,completion,,,,,,,,,,,,,4,,,,,,,,,,,,,,,,,,,,,,,,,,,,,,,,,,,,,,,,,,,,,,,,,,,,,,,,,"[""grape.png""]","[""maltesers.png""]",,,,1,,,false,,1,,,,,,,713609.4799999846,713607.24,708652.692,708660.3050000267,708669.318,713640.492,,,,
choice_loop,flow.Loop,2_4_2_6_1_0_0_0_0,2021-01-14T21:33:40.400Z,,,,,,,,,,,,,,,,,,,,,,,,,,,,,,,,,,,,,,,,,,,,"[""maltesers.png""]","[""grape.png""]",,,,,,,,,,,,,,,,,,,,,,,,,,,,,,,,,,,,,,,,,,,,,,,,,,,,,,,,,,,,,,,,,,,,,,50447.74199999997,,completion,,,,,,,,,,,,,,,,,,,,,,,,,,,,,,,,,,,,,,,,,,,,,,,,,,,,,,,,,,,,,,,,,,,,,,"[""grape.png""]","[""maltesers.png""]",,,,1,,,false,,,,,,,,,713609.9150000373,713607.24,663126.246,663160.3500000201,663159.498,713640.492,,,,
choice_frame,html.Frame,2_4_2_6_1_0_0_0,2021-01-14T21:33:40.400Z,,,,,,,,,,,,,,,,,,,,,,,,,,,,,,,,,,,,,,,,,,,,,,,,,,,,,,,,,,,,,,,,,,,,,,,,,,,,,,,,,,,,,,,,,,,,,,,,,,,,,,,,,,,,,,,,,,,50450.57699997502,,,,,,,,,,,,,,,,,,,,,,,,,,,,,,,,,,,,,,,,,,,,,,,,,,,,,,,,,,,,,,,,,,,,,,,,,,,,,1,,,false,,,,,,,,,713610.2800000226,713610.074999975,663126.246,663128.6799999652,663159.498,713657.118,,,,
sublock_1,flow.Sequence,2_4_2_6_1_0_0,2021-01-14T21:33:40.400Z,,,,,,,,,,,,,,,,,,,,,,,,,,,,,,,,,,,,,,,,,,,,,,,,,,,,,,,,,,,,,,,,,,,,,,,,,,,,,,,,,,,,,,,,,,,,,,,,,,,,,,,,,,,,,,,,,,,50450.57699997502,,completion,,,,,,,,,,,,,,,,,,,,,,,,,,,,,,,,,,,,,,,,,,,,,,,,,,,,,,,,,,,,,,,,,,,,,,,,,,,1,,,false,,,,,,,,,713610.469999956,713610.074999975,663126.246,663128.614999936,663159.498,713657.118,,,,
fixCross,canvas.Screen,2_4_2_6_1_0_1_0_0_0_0,2021-01-14T21:33:40.832Z,,,blank.png,blank.png,blank.png,blank.png,blank.png,blank.png,blank.png,"[""maltesers.png""]",blank.png,blank.png,blank.png,blank.png,blank.png,,,,,,,,,,,,,,,,,,,,,,,,,,,,,"[""maltesers.png""]","[""grape.png""]",PB18.png,,,,,,,,,,,0,6,"[""grape.png""]","[""grape.png""]","[""grape.png""]","[""grape.png""]","[""grape.png""]","[""grape.png""]",blank.png,PB18.png,PB12.png,"[""grape.png""]","[""grape.png""]","[""grape.png""]","[""grape.png""]","[""grape.png""]","[""grape.png""]","[""grape.png""]","[""grape.png""]",blank.png,blank.png,blank.png,blank.png,1,"[""maltesers.png""]",blank.png,blank.png,blank.png,2,"[""grape.png""]","[""grape.png""]",blank.png,blank.png,blank.png,blank.png,PB12.png,,,,,,,,,,,1,,,,,,,,,,,,682.5579999999609,,timeout,,,,,,,,,,,,,4,,,,,,,,,,,,,,,,,,,,,,,,,,,,,,,,,,,,,,,,,,,,,,,,,,,,,,,,,"[""grape.png""]","[""maltesers.png""]",,,,6,,,false,,1,,,,,,,714042.529999977,714040.408,713640.492,713643.3350000298,713657.118,714339.676,8,,,
timeout,canvas.Screen,2_4_2_6_1_0_1_0_0_0_1,2021-01-14T21:33:41.614Z,,,blank.png,blank.png,blank.png,blank.png,blank.png,blank.png,blank.png,"[""maltesers.png""]",blank.png,blank.png,blank.png,blank.png,blank.png,,,,,,,,,,,,,,,,,,,,,,,,,,,,,"[""maltesers.png""]","[""grape.png""]",PB18.png,,,,,,,,,,,0,6,"[""grape.png""]","[""grape.png""]","[""grape.png""]","[""grape.png""]","[""grape.png""]","[""grape.png""]",blank.png,PB18.png,PB12.png,"[""grape.png""]","[""grape.png""]","[""grape.png""]","[""grape.png""]","[""grape.png""]","[""grape.png""]","[""grape.png""]","[""grape.png""]",blank.png,blank.png,blank.png,blank.png,1,"[""maltesers.png""]",blank.png,blank.png,blank.png,2,"[""grape.png""]","[""grape.png""]",blank.png,blank.png,blank.png,blank.png,PB12.png,,,,,,,,,,,1,,,,,,,,,,,,814.6739999999991,,timeout,,,,,,,,,,,,,4,,,,,,,,,,,,,,,,,,,,,,,,,,,,,,,,,,,,,,,,,,,,,,,,,,,,,,,,,"[""grape.png""]","[""maltesers.png""]",,,,6,,,false,,1,,,,,,,714824.404999963,714821.83,714040.408,714350.4200000316,714339.676,715154.35,,,,
choice,canvas.Screen,2_4_2_6_1_0_1_0_0_0_2,2021-01-14T21:33:42.730Z,,,blank.png,blank.png,blank.png,blank.png,blank.png,blank.png,blank.png,"[""maltesers.png""]",blank.png,blank.png,blank.png,blank.png,blank.png,,,,,,,,,,,,,,,,,,,,,,,,,,,,,"[""maltesers.png""]","[""grape.png""]",PB18.png,,,,,,,,,,,0,6,"[""grape.png""]","[""grape.png""]","[""grape.png""]","[""grape.png""]","[""grape.png""]","[""grape.png""]",blank.png,PB18.png,PB12.png,"[""grape.png""]","[""grape.png""]","[""grape.png""]","[""grape.png""]","[""grape.png""]","[""grape.png""]","[""grape.png""]","[""grape.png""]",blank.png,blank.png,blank.png,blank.png,1,"[""maltesers.png""]",blank.png,blank.png,blank.png,2,"[""grape.png""]","[""grape.png""]",blank.png,blank.png,blank.png,blank.png,PB12.png,,,,,,,,,,,1,,,,,,,,,,,,781.9199999474222,,response,,,,,,,,,,,,,4,,,,,,,,,,,,,,,,,,,,,,,,,,,,,,,,,,,,,,,,,,,,,,,,,,,,,,,,,"[""grape.png""]","[""maltesers.png""]",,,,6,right,keydown(ArrowRight),false,,1,,,,,,,715940.01999998,715936.2699999474,714821.83,715149.1699999897,715154.35,716268.292,,8,,
square,canvas.Screen,2_4_2_6_1_0_1_0_0_0_3,2021-01-14T21:33:44.041Z,,,blank.png,blank.png,blank.png,blank.png,blank.png,blank.png,blank.png,"[""maltesers.png""]",blank.png,blank.png,blank.png,blank.png,blank.png,,,,,,,,,,,,,,,,,,,,,,,,,,,,,"[""maltesers.png""]","[""grape.png""]",PB18.png,,,,,,,,,,,0,6,"[""grape.png""]","[""grape.png""]","[""grape.png""]","[""grape.png""]","[""grape.png""]","[""grape.png""]",blank.png,PB18.png,PB12.png,"[""grape.png""]","[""grape.png""]","[""grape.png""]","[""grape.png""]","[""grape.png""]","[""grape.png""]","[""grape.png""]","[""grape.png""]",blank.png,blank.png,blank.png,blank.png,1,"[""maltesers.png""]",blank.png,blank.png,blank.png,2,"[""grape.png""]","[""grape.png""]",blank.png,blank.png,blank.png,blank.png,PB12.png,,,,,,,,,,,1,,#808080,#33ff3f,,,,,,,,,997.5599999999395,,timeout,,,,,,,,,,,,,4,,,,,,,,,,,,,,,,,,,,,,,,,,,,,,,,,,,,,,,,,,,,,,,,,,,,,,,,,"[""grape.png""]","[""maltesers.png""]",,,,6,,,false,,1,,,,,white,black,717251.7999999691,717249.226,716251.666,716258.5650000256,716268.292,717265.852,,,,
ITI_late,canvas.Screen,2_4_2_6_1_0_1_0_0_0_4,2021-01-14T21:33:44.540Z,,,blank.png,blank.png,blank.png,blank.png,blank.png,blank.png,blank.png,"[""maltesers.png""]",blank.png,blank.png,blank.png,blank.png,blank.png,,,,,,,,,,,,,,,,,,,,,,,,,,,,,"[""maltesers.png""]","[""grape.png""]",PB18.png,,,,,,,,,,,0,6,"[""grape.png""]","[""grape.png""]","[""grape.png""]","[""grape.png""]","[""grape.png""]","[""grape.png""]",blank.png,PB18.png,PB12.png,"[""grape.png""]","[""grape.png""]","[""grape.png""]","[""grape.png""]","[""grape.png""]","[""grape.png""]","[""grape.png""]","[""grape.png""]",blank.png,blank.png,blank.png,blank.png,1,"[""maltesers.png""]",blank.png,blank.png,blank.png,2,"[""grape.png""]","[""grape.png""]",blank.png,blank.png,blank.png,blank.png,PB12.png,,,,,,,,,,,1,,,,,,,,,,,,498.78000000002794,,timeout,,,,,,,,,,,,white,4,,,,,,,,,,,,,,,,,,,,,,,,,,,,,,,,,,,,,,,,,,,,,,,,,,,,,,,,,"[""grape.png""]","[""maltesers.png""]",,,,6,,,false,,1,,,,,,,717750.2650000388,717748.006,717249.226,717254.2599999579,717265.852,717764.632,,,,
choice_sequence,flow.Sequence,2_4_2_6_1_0_1_0_0_0,2021-01-14T21:33:44.541Z,,,blank.png,blank.png,blank.png,blank.png,blank.png,blank.png,blank.png,"[""maltesers.png""]",blank.png,blank.png,blank.png,blank.png,blank.png,,,,,,,,,,,,,,,,,,,,,,,,,,,,,"[""maltesers.png""]","[""grape.png""]",PB18.png,,,,,,,,,,,0,6,"[""grape.png""]","[""grape.png""]","[""grape.png""]","[""grape.png""]","[""grape.png""]","[""grape.png""]",blank.png,PB18.png,PB12.png,"[""grape.png""]","[""grape.png""]","[""grape.png""]","[""grape.png""]","[""grape.png""]","[""grape.png""]","[""grape.png""]","[""grape.png""]",blank.png,blank.png,blank.png,blank.png,1,"[""maltesers.png""]",blank.png,blank.png,blank.png,2,"[""grape.png""]","[""grape.png""]",blank.png,blank.png,blank.png,blank.png,PB12.png,,,,,,,,,,,1,,,,,,,,,,,,4090.8880000000354,,completion,,,,,,,,,,,,,4,,,,,,,,,,,,,,,,,,,,,,,,,,,,,,,,,,,,,,,,,,,,,,,,,,,,,,,,,"[""grape.png""]","[""maltesers.png""]",,,,6,,,false,,1,,,,,,,717750.9350000182,717748.006,713640.492,713642.3550000181,713657.118,717764.632,,,,
fixCross,canvas.Screen,2_4_2_6_1_0_1_0_0_1_0,2021-01-14T21:33:44.888Z,,,blank.png,"[""maltesers.png""]",blank.png,blank.png,blank.png,blank.png,blank.png,blank.png,blank.png,blank.png,blank.png,blank.png,blank.png,,,,,,,,,,,,,,,,,,,,,,,,,,,,,"[""maltesers.png""]","[""grape.png""]",PB01.png,,,,,,,,,,,0,6,"[""grape.png""]","[""grape.png""]","[""grape.png""]","[""grape.png""]","[""grape.png""]","[""grape.png""]",blank.png,PB18.png,PB18.png,blank.png,blank.png,blank.png,blank.png,blank.png,blank.png,"[""grape.png""]","[""grape.png""]","[""grape.png""]","[""grape.png""]","[""grape.png""]","[""grape.png""]",1,"[""maltesers.png""]",blank.png,blank.png,blank.png,0,blank.png,blank.png,blank.png,blank.png,blank.png,blank.png,PB01.png,,,,,,,,,,,1,,,,,,,,,,,,665.0400000000373,,timeout,,,,,,,,,,,,,3,,,,,,,,,,,,,,,,,,,,,,,,,,,,,,,,,,,,,,,,,,,,,,,,,,,,,,,,,"[""grape.png""]","[""maltesers.png""]",,,,6,,,false,,1,,,,,,,718098.7850000383,718097.152,717748.006,717757.5400000205,717764.632,718429.672,9,,,
timeout,canvas.Screen,2_4_2_6_1_0_1_0_0_1_1,2021-01-14T21:33:45.703Z,,,blank.png,"[""maltesers.png""]",blank.png,blank.png,blank.png,blank.png,blank.png,blank.png,blank.png,blank.png,blank.png,blank.png,blank.png,,,,,,,,,,,,,,,,,,,,,,,,,,,,,"[""maltesers.png""]","[""grape.png""]",PB01.png,,,,,,,,,,,0,6,"[""grape.png""]","[""grape.png""]","[""grape.png""]","[""grape.png""]","[""grape.png""]","[""grape.png""]",blank.png,PB18.png,PB18.png,blank.png,blank.png,blank.png,blank.png,blank.png,blank.png,"[""grape.png""]","[""grape.png""]","[""grape.png""]","[""grape.png""]","[""grape.png""]","[""grape.png""]",1,"[""maltesers.png""]",blank.png,blank.png,blank.png,0,blank.png,blank.png,blank.png,blank.png,blank.png,blank.png,PB01.png,,,,,,,,,,,1,,,,,,,,,,,,781.4220000000205,,timeout,,,,,,,,,,,,,3,,,,,,,,,,,,,,,,,,,,,,,,,,,,,,,,,,,,,,,,,,,,,,,,,,,,,,,,,"[""grape.png""]","[""maltesers.png""]",,,,6,,,false,,1,,,,,,,718913.6899999576,718911.826,718097.152,718391.2250000285,718429.672,719211.094,,,,
choice,canvas.Screen,2_4_2_6_1_0_1_0_0_1_2,2021-01-14T21:33:47.928Z,,,blank.png,"[""maltesers.png""]",blank.png,blank.png,blank.png,blank.png,blank.png,blank.png,blank.png,blank.png,blank.png,blank.png,blank.png,,,,,,,,,,,,,,,,,,,,,,,,,,,,,"[""maltesers.png""]","[""grape.png""]",PB01.png,,,,,,,,,,,0,6,"[""grape.png""]","[""grape.png""]","[""grape.png""]","[""grape.png""]","[""grape.png""]","[""grape.png""]",blank.png,PB18.png,PB18.png,blank.png,blank.png,blank.png,blank.png,blank.png,blank.png,"[""grape.png""]","[""grape.png""]","[""grape.png""]","[""grape.png""]","[""grape.png""]","[""grape.png""]",1,"[""maltesers.png""]",blank.png,blank.png,blank.png,0,blank.png,blank.png,blank.png,blank.png,blank.png,blank.png,PB01.png,,,,,,,,,,,1,,,,,,,,,,,,1924.4659999660216,,response,,,,,,,,,,,,,3,,,,,,,,,,,,,,,,,,,,,,,,,,,,,,,,,,,,,,,,,,,,,,,,,,,,,,,,,"[""grape.png""]","[""maltesers.png""]",,,,6,left,keydown(ArrowLeft),false,,1,,,,,,,721138.9150000177,721135.5599999661,718911.826,719219.2700000014,719211.094,721455.604,,9,,
square,canvas.Screen,2_4_2_6_1_0_1_0_0_1_3,2021-01-14T21:33:49.228Z,,,blank.png,"[""maltesers.png""]",blank.png,blank.png,blank.png,blank.png,blank.png,blank.png,blank.png,blank.png,blank.png,blank.png,blank.png,,,,,,,,,,,,,,,,,,,,,,,,,,,,,"[""maltesers.png""]","[""grape.png""]",PB01.png,,,,,,,,,,,0,6,"[""grape.png""]","[""grape.png""]","[""grape.png""]","[""grape.png""]","[""grape.png""]","[""grape.png""]",blank.png,PB18.png,PB18.png,blank.png,blank.png,blank.png,blank.png,blank.png,blank.png,"[""grape.png""]","[""grape.png""]","[""grape.png""]","[""grape.png""]","[""grape.png""]","[""grape.png""]",1,"[""maltesers.png""]",blank.png,blank.png,blank.png,0,blank.png,blank.png,blank.png,blank.png,blank.png,blank.png,PB01.png,,,,,,,,,,,1,,#33ff3f,#808080,,,,,,,,,997.5599999999395,,timeout,,,,,,,,,,,,,3,,,,,,,,,,,,,,,,,,,,,,,,,,,,,,,,,,,,,,,,,,,,,,,,,,,,,,,,,"[""grape.png""]","[""maltesers.png""]",,,,6,,,false,,1,,,,,black,white,722437.9950000439,722436.538,721422.352,721438.194999937,721455.604,722453.164,,,,
ITI_late,canvas.Screen,2_4_2_6_1_0_1_0_0_1_4,2021-01-14T21:33:49.726Z,,,blank.png,"[""maltesers.png""]",blank.png,blank.png,blank.png,blank.png,blank.png,blank.png,blank.png,blank.png,blank.png,blank.png,blank.png,,,,,,,,,,,,,,,,,,,,,,,,,,,,,"[""maltesers.png""]","[""grape.png""]",PB01.png,,,,,,,,,,,0,6,"[""grape.png""]","[""grape.png""]","[""grape.png""]","[""grape.png""]","[""grape.png""]","[""grape.png""]",blank.png,PB18.png,PB18.png,blank.png,blank.png,blank.png,blank.png,blank.png,blank.png,"[""grape.png""]","[""grape.png""]","[""grape.png""]","[""grape.png""]","[""grape.png""]","[""grape.png""]",1,"[""maltesers.png""]",blank.png,blank.png,blank.png,0,blank.png,blank.png,blank.png,blank.png,blank.png,blank.png,PB01.png,,,,,,,,,,,1,,,,,,,,,,,,498.78000000002794,,timeout,,,,,,,,,,,,white,3,,,,,,,,,,,,,,,,,,,,,,,,,,,,,,,,,,,,,,,,,,,,,,,,,,,,,,,,,"[""grape.png""]","[""maltesers.png""]",,,,6,,,false,,1,,,,,,,722936.7649999913,722935.318,722436.538,722440.7649999484,722453.164,722951.944,,,,
choice_sequence,flow.Sequence,2_4_2_6_1_0_1_0_0_1,2021-01-14T21:33:49.727Z,,,blank.png,"[""maltesers.png""]",blank.png,blank.png,blank.png,blank.png,blank.png,blank.png,blank.png,blank.png,blank.png,blank.png,blank.png,,,,,,,,,,,,,,,,,,,,,,,,,,,,,"[""maltesers.png""]","[""grape.png""]",PB01.png,,,,,,,,,,,0,6,"[""grape.png""]","[""grape.png""]","[""grape.png""]","[""grape.png""]","[""grape.png""]","[""grape.png""]",blank.png,PB18.png,PB18.png,blank.png,blank.png,blank.png,blank.png,blank.png,blank.png,"[""grape.png""]","[""grape.png""]","[""grape.png""]","[""grape.png""]","[""grape.png""]","[""grape.png""]",1,"[""maltesers.png""]",blank.png,blank.png,blank.png,0,blank.png,blank.png,blank.png,blank.png,blank.png,blank.png,PB01.png,,,,,,,,,,,1,,,,,,,,,,,,5170.685999999987,,completion,,,,,,,,,,,,,3,,,,,,,,,,,,,,,,,,,,,,,,,,,,,,,,,,,,,,,,,,,,,,,,,,,,,,,,,"[""grape.png""]","[""maltesers.png""]",,,,6,,,false,,1,,,,,,,722937.4149999348,722935.318,717748.006,717756.0049999738,717764.632,722951.944,,,,
fixCross,canvas.Screen,2_4_2_6_1_0_1_0_0_2_0,2021-01-14T21:33:49.976Z,,,blank.png,"[""maltesers.png""]",blank.png,blank.png,blank.png,blank.png,blank.png,blank.png,blank.png,blank.png,blank.png,blank.png,blank.png,,,,,,,,,,,,,,,,,,,,,,,,,,,,,"[""maltesers.png""]","[""grape.png""]",PB14.png,,,,,,,,,,,0,6,"[""grape.png""]","[""grape.png""]","[""grape.png""]","[""grape.png""]","[""grape.png""]","[""grape.png""]",blank.png,PB18.png,PB18.png,"[""grape.png""]","[""grape.png""]","[""grape.png""]",blank.png,blank.png,blank.png,"[""grape.png""]","[""grape.png""]","[""grape.png""]","[""grape.png""]","[""grape.png""]","[""grape.png""]",1,"[""maltesers.png""]",blank.png,blank.png,blank.png,3,"[""grape.png""]","[""grape.png""]","[""grape.png""]",blank.png,blank.png,blank.png,PB14.png,,,,,,,,,,,1,,,,,,,,,,,,548.6579999999376,,timeout,,,,,,,,,,,,,3,,,,,,,,,,,,,,,,,,,,,,,,,,,,,,,,,,,,,,,,,,,,,,,,,,,,,,,,,"[""grape.png""]","[""maltesers.png""]",,,,6,,,false,,1,,,,,,,723186.7799999891,723184.708,722935.318,722943.5049999738,722951.944,723500.602,10,,,
timeout,canvas.Screen,2_4_2_6_1_0_1_0_0_2_1,2021-01-14T21:33:50.776Z,,,blank.png,"[""maltesers.png""]",blank.png,blank.png,blank.png,blank.png,blank.png,blank.png,blank.png,blank.png,blank.png,blank.png,blank.png,,,,,,,,,,,,,,,,,,,,,,,,,,,,,"[""maltesers.png""]","[""grape.png""]",PB14.png,,,,,,,,,,,0,6,"[""grape.png""]","[""grape.png""]","[""grape.png""]","[""grape.png""]","[""grape.png""]","[""grape.png""]",blank.png,PB18.png,PB18.png,"[""grape.png""]","[""grape.png""]","[""grape.png""]",blank.png,blank.png,blank.png,"[""grape.png""]","[""grape.png""]","[""grape.png""]","[""grape.png""]","[""grape.png""]","[""grape.png""]",1,"[""maltesers.png""]",blank.png,blank.png,blank.png,3,"[""grape.png""]","[""grape.png""]","[""grape.png""]",blank.png,blank.png,blank.png,PB14.png,,,,,,,,,,,1,,,,,,,,,,,,832.2240000000456,,timeout,,,,,,,,,,,,,3,,,,,,,,,,,,,,,,,,,,,,,,,,,,,,,,,,,,,,,,,,,,,,,,,,,,,,,,,"[""grape.png""]","[""maltesers.png""]",,,,6,,,false,,1,,,,,,,723986.4600000437,723983.68,723184.708,723499.2599999532,723500.602,724332.826,,,,
choice,canvas.Screen,2_4_2_6_1_0_1_0_0_2_2,2021-01-14T21:33:51.700Z,,,blank.png,"[""maltesers.png""]",blank.png,blank.png,blank.png,blank.png,blank.png,blank.png,blank.png,blank.png,blank.png,blank.png,blank.png,,,,,,,,,,,,,,,,,,,,,,,,,,,,,"[""maltesers.png""]","[""grape.png""]",PB14.png,,,,,,,,,,,0,6,"[""grape.png""]","[""grape.png""]","[""grape.png""]","[""grape.png""]","[""grape.png""]","[""grape.png""]",blank.png,PB18.png,PB18.png,"[""grape.png""]","[""grape.png""]","[""grape.png""]",blank.png,blank.png,blank.png,"[""grape.png""]","[""grape.png""]","[""grape.png""]","[""grape.png""]","[""grape.png""]","[""grape.png""]",1,"[""maltesers.png""]",blank.png,blank.png,blank.png,3,"[""grape.png""]","[""grape.png""]","[""grape.png""]",blank.png,blank.png,blank.png,PB14.png,,,,,,,,,,,1,,,,,,,,,,,,575.0790000291308,,response,,,,,,,,,,,,,3,,,,,,,,,,,,,,,,,,,,,,,,,,,,,,,,,,,,,,,,,,,,,,,,,,,,,,,,,"[""grape.png""]","[""maltesers.png""]",,,,6,left,keydown(ArrowLeft),false,,1,,,,,,,724910.5699999491,724907.9050000291,723983.68,724333.0249999417,724332.826,725230.63,,10,,
square,canvas.Screen,2_4_2_6_1_0_1_0_0_2_3,2021-01-14T21:33:53.003Z,,,blank.png,"[""maltesers.png""]",blank.png,blank.png,blank.png,blank.png,blank.png,blank.png,blank.png,blank.png,blank.png,blank.png,blank.png,,,,,,,,,,,,,,,,,,,,,,,,,,,,,"[""maltesers.png""]","[""grape.png""]",PB14.png,,,,,,,,,,,0,6,"[""grape.png""]","[""grape.png""]","[""grape.png""]","[""grape.png""]","[""grape.png""]","[""grape.png""]",blank.png,PB18.png,PB18.png,"[""grape.png""]","[""grape.png""]","[""grape.png""]",blank.png,blank.png,blank.png,"[""grape.png""]","[""grape.png""]","[""grape.png""]","[""grape.png""]","[""grape.png""]","[""grape.png""]",1,"[""maltesers.png""]",blank.png,blank.png,blank.png,3,"[""grape.png""]","[""grape.png""]","[""grape.png""]",blank.png,blank.png,blank.png,PB14.png,,,,,,,,,,,1,,#33ff3f,#808080,,,,,,,,,997.5599999999395,,timeout,,,,,,,,,,,,,3,,,,,,,,,,,,,,,,,,,,,,,,,,,,,,,,,,,,,,,,,,,,,,,,,,,,,,,,,"[""grape.png""]","[""maltesers.png""]",,,,6,,,false,,1,,,,,black,white,726213.6950000422,726211.564,725214.004,725226.239999989,725230.63,726228.19,,,,
ITI_late,canvas.Screen,2_4_2_6_1_0_1_0_0_2_4,2021-01-14T21:33:54.250Z,,,blank.png,"[""maltesers.png""]",blank.png,blank.png,blank.png,blank.png,blank.png,blank.png,blank.png,blank.png,blank.png,blank.png,blank.png,,,,,,,,,,,,,,,,,,,,,,,,,,,,,"[""maltesers.png""]","[""grape.png""]",PB14.png,,,,,,,,,,,0,6,"[""grape.png""]","[""grape.png""]","[""grape.png""]","[""grape.png""]","[""grape.png""]","[""grape.png""]",blank.png,PB18.png,PB18.png,"[""grape.png""]","[""grape.png""]","[""grape.png""]",blank.png,blank.png,blank.png,"[""grape.png""]","[""grape.png""]","[""grape.png""]","[""grape.png""]","[""grape.png""]","[""grape.png""]",1,"[""maltesers.png""]",blank.png,blank.png,blank.png,3,"[""grape.png""]","[""grape.png""]","[""grape.png""]",blank.png,blank.png,blank.png,PB14.png,,,,,,,,,,,1,,,,,,,,,,,,1246.9500000000698,,timeout,,,,,,,,,,,,white,3,,,,,,,,,,,,,,,,,,,,,,,,,,,,,,,,,,,,,,,,,,,,,,,,,,,,,,,,,"[""grape.png""]","[""maltesers.png""]",,,,6,,,false,,1,,,,,,,727461.015000008,727458.514,726211.564,726215.9899999388,726228.19,727475.14,,,,
choice_sequence,flow.Sequence,2_4_2_6_1_0_1_0_0_2,2021-01-14T21:33:54.251Z,,,blank.png,"[""maltesers.png""]",blank.png,blank.png,blank.png,blank.png,blank.png,blank.png,blank.png,blank.png,blank.png,blank.png,blank.png,,,,,,,,,,,,,,,,,,,,,,,,,,,,,"[""maltesers.png""]","[""grape.png""]",PB14.png,,,,,,,,,,,0,6,"[""grape.png""]","[""grape.png""]","[""grape.png""]","[""grape.png""]","[""grape.png""]","[""grape.png""]",blank.png,PB18.png,PB18.png,"[""grape.png""]","[""grape.png""]","[""grape.png""]",blank.png,blank.png,blank.png,"[""grape.png""]","[""grape.png""]","[""grape.png""]","[""grape.png""]","[""grape.png""]","[""grape.png""]",1,"[""maltesers.png""]",blank.png,blank.png,blank.png,3,"[""grape.png""]","[""grape.png""]","[""grape.png""]",blank.png,blank.png,blank.png,PB14.png,,,,,,,,,,,1,,,,,,,,,,,,4506.569999999949,,completion,,,,,,,,,,,,,3,,,,,,,,,,,,,,,,,,,,,,,,,,,,,,,,,,,,,,,,,,,,,,,,,,,,,,,,,"[""grape.png""]","[""maltesers.png""]",,,,6,,,false,,1,,,,,,,727461.5850000409,727458.514,722935.318,722942.4349999754,722951.944,727475.14,,,,
