sender,sender_type,sender_id,timestamp,meta,,Blank,DownLeft1,DownLeft2,DownLeft3,DownLeft4,DownLeft5,DownLeft6,DownRight1,DownRight2,DownRight3,DownRight4,DownRight5,DownRight6,FoodHabits_Fru_item1,FoodHabits_Fru_item2,FoodHabits_Fru_item3,FoodHabits_Fru_item4,FoodHabits_Fru_item5,FoodHabits_Fru_item6,FoodHabits_Fru_item7,FoodHabits_Meat_item1,FoodHabits_Meat_item2,FoodHabits_Meat_item3,FoodHabits_Meat_item4,FoodHabits_Meat_item5,FoodHabits_Meat_item6,FoodHabits_Meat_item7,FoodHabits_Swe_item1,FoodHabits_Swe_item2,FoodHabits_Swe_item3,FoodHabits_Swe_item4,FoodHabits_Swe_item5,FoodHabits_Swe_item6,FoodHabits_Swe_item7,FoodHabits_Veg_item1,FoodHabits_Veg_item2,FoodHabits_Veg_item3,FoodHabits_Veg_item4,FoodHabits_Veg_item5,FoodHabits_Veg_item6,FoodHabits_Veg_item7,ImgA,ImgB,LeftBar,PSS_item01,PSS_item02,PSS_item03,PSS_item04,PSS_item05,PSS_item06,PSS_item07,PSS_item08,PSS_item09,PSS_item10,RefA,RefB,RefB1,RefB2,RefB3,RefB4,RefB5,RefB6,RefB7,Ref_PB,RightBar,UpLeft1,UpLeft2,UpLeft3,UpLeft4,UpLeft5,UpLeft6,UpRight1,UpRight2,UpRight3,UpRight4,UpRight5,UpRight6,VarA,VarA1,VarA2,VarA3,VarA4,VarB,VarB1,VarB2,VarB3,VarB4,VarB5,VarB6,Var_PB,attCheck_fileA,attCheck_fileB,attCheck_fileC,attCheck_fileD,attCheck_options,attCheck_valueA,attCheck_valueB,attCheck_valueC,attCheck_valueD,attention_check,block,break1,browser_name,choseL,choseR,consent_form1,consent_form2,consentconfirmation_form1,consentconfirmation_form2,correct,correctResponse,diet,disorder,duration,edu,ended_on,enjoy,full_version,gender,group,hunger,img,imgTask,input_age,input_meal,input_occ,input_remark,lateRespFeed,list,major_version,message,mixQ_item1,mixQ_item2,mixQ_item3,mixQ_item4,mixQ_item5,name,navigator_appName,navigator_userAgent,os,pracQ1_IDa,pracQ1_IDb,pracQ1_IDc,pracQ1_IDd,pracQ1_optionA,pracQ1_optionB,pracQ1_optionC,pracQ1_optionD,pracQ1_valueA,pracQ1_valueB,pracQ1_valueC,pracQ1_valueD,pracQ2_IDa,pracQ2_IDb,pracQ2_IDc,pracQ2_optionA,pracQ2_optionB,pracQ2_optionC,pracQ2_valueA,pracQ2_valueB,pracQ2_valueC,pracQ4_IDa,pracQ4_IDb,pracQ4_IDc,pracQ4_IDd,pracQ4_optionA,pracQ4_optionB,pracQ4_optionC,pracQ4_optionD,pracQ4_valueA,pracQ4_valueB,pracQ4_valueC,pracQ4_valueD,pracQ5_IDa,pracQ5_IDb,pracQ5_IDc,pracQ5_IDd,pracQ5_optionA,pracQ5_optionB,pracQ5_optionC,pracQ5_optionD,pracQ5_valueA,pracQ5_valueB,pracQ5_valueC,pracQ5_valueD,prefHealty,prefUnhealthy,prolific_ID,psessionID,pstudyID,rep,response,response_action,skip,snack,sublock,subtitle,task_difficulty,task_engagement,task_focus,textL,textR,time_commit,time_end,time_render,time_run,time_show,time_switch,trial_count,trial_countO,url,valence
Title,html.Page,0,2021-05-24T16:03:33.160Z,"{""labjs_version"":""20.2.2"",""labjs_build"":{""flavor"":""production"",""commit"":""a25486e0c714a0ae2ce03ff94b7bb6896854dcfa""},""location"":""https://run.pavlovia.org/E3lab/rebund/html/?PROLIFIC_PID=6071b5788876acd9bc48e028&STUDY_ID=60008f34cd719d13b0d706dd&SESSION_ID=60abcde5b1ec03be3df8ca0d"",""userAgent"":""Mozilla/5.0 (Windows NT 10.0; Win64; x64) AppleWebKit/537.36 (KHTML, like Gecko) Chrome/90.0.4430.212 Safari/537.36"",""platform"":""Win32"",""language"":""en-US"",""locale"":""en-US"",""timeZone"":""Europe/London"",""timezoneOffset"":-60,""screen_width"":1920,""screen_height"":1080,""scroll_width"":1920,""scroll_height"":921,""window_innerWidth"":1920,""window_innerHeight"":969,""devicePixelRatio"":1}",,,,,,,,,,,,,,,,,,,,,,,,,,,,,,,,,,,,,,,,,,,,,,,,,,,,,,,,,,,,,,,,,,,,,,,,,,,,,,,,,,,,,,,,,,,,,,,,,,,,,,,,,,,,,,,,,,,7736.561000002556,,form submission,,,,,,,,,,,,,,,,,,,,,,,,,,,,,,,,,,,,,,,,,,,,,,,,,,,,,,,,,,,,,,,,,,,,,,,,,,,,,,,,,,,,,,,8737.610000011045,8737.370000002556,993.908,993.5950000071898,1000.809,8743.115,,,"{""PROLIFIC_PID"":""6071b5788876acd9bc48e028"",""STUDY_ID"":""60008f34cd719d13b0d706dd"",""SESSION_ID"":""60abcde5b1ec03be3df8ca0d""}",
get_systemInfo,canvas.Screen,1,2021-05-24T16:03:33.171Z,,,,,,,,,,,,,,,,,,,,,,,,,,,,,,,,,,,,,,,,,,,,,,,,,,,,,,,,,,,,,,,,,,,,,,,,,,,,,,,,,,,,,,,,,,,,,,,,,,,,,,,,,Chrome,,,,,,,,,,,4395.32,,timeout,,90.0.4430.212,,,,,,,,,,,,90,,,,,,,,Netscape,"Mozilla/5.0 (Windows NT 10.0; Win64; x64) AppleWebKit/537.36 (KHTML, like Gecko) Chrome/90.0.4430.212 Safari/537.36",Windows,,,,,,,,,,,,,,,,,,,,,,,,,,,,,,,,,,,,,,,,,,,,,,,,6071b5788876acd9bc48e028,,60008f34cd719d13b0d706dd,,,,,,,,,,,,,8748.250000004191,8748.05500000366,8736.125,8738.355000008596,8743.115,13138.435,,,,
ConsentForm,html.Form,2_0,2021-05-24T16:04:30.387Z,,,,,,,,,,,,,,,,,,,,,,,,,,,,,,,,,,,,,,,,,,,,,,,,,,,,,,,,,,,,,,,,,,,,,,,,,,,,,,,,,,,,,,,,,,,,,,,,,,,,,,,,,,,,true,true,,,,,,,52824.65500000474,,form submission,,,,,,,,,,,,,,,,,,,,,,,,,,,,,,,,,,,,,,,,,,,,,,,,,,,,,,,,,,,,,,,,,,,,,,,,,,,,,,,,,,,,,,,65963.27500000189,65963.09000000474,8748.05500000366,13145.750000010594,13138.435,65966.224,,,,
PepTalk,html.Page,2_1,2021-05-24T16:04:46.418Z,,,,,,,,,,,,,,,,,,,,,,,,,,,,,,,,,,,,,,,,,,,,,,,,,,,,,,,,,,,,,,,,,,,,,,,,,,,,,,,,,,,,,,,,,,,,,,,,,,,,,,,,,,,,,,,,,,,,16028.256000008478,,form submission,,,,,,,,,,,,,,,,,,,,,,,,,,,,,,,,,,,,,,,,,,,,,,,,,,,,,,,,,,,,,,,,,,,,,,,,,,,,,,,,,,,,,,,81994.64499999885,81994.48000000848,65959.301,65964.24500001012,65966.224,81999.274,,,,
Demographics,html.Form,2_2,2021-05-24T16:05:16.817Z,,,,,,,,,,,,,,,,,,,,,,,,,,,,,,,,,,,,,,,,,,,,,,,,,,,,,,,,,,,,,,,,,,,,,,,,,,,,,,,,,,,,,,,,,,,,,,,,,,,,,,,,,,,,,,,,,,,,30394.86100000955,2,form submission,,,2,,,,,23,,Housekeeper,,,,,,,,,,,,,,,,,,,,,,,,,,,,,,,,,,,,,,,,,,,,,,,,,,,,,,,,,,,,,,,,,,,,,,,,,,,,,112394.29500000551,112394.13500000956,81992.325,81994.72500001139,81999.274,112398.824,,,,
InclusionCrit,html.Form,2_3,2021-05-24T16:05:34.294Z,,,,,,,,,,,,,,,,,,,,,,,,,,,,,,,,,,,,,,,,,,,,,,,,,,,,,,,,,,,,,,,,,,,,,,,,,,,,,,,,,,,,,,,,,,,,,,,,,,,,,,,,,,,,,,,,,,1,1,17472.59600001041,,form submission,1,,,,,,,,,,,,,,,,,,,,,,,,,,,,,,,,,,,,,,,,,,,,,,,,,,,,,,,,,,,,,,,,,,,,,,,,,,,,,,,,,,,,,,129871.58000000636,129871.4200000104,112391.901,112394.42500000587,112398.824,129876.173,,,,
Selection,html.Page,2_4_0,2021-05-24T16:06:01.885Z,,,,,,,,,,,,,,,,,,,,,,,,,,,,,,,,,,,,,,,,,,,,,,,,,,,,,,,,,,,,,,,,,,,,,,,,,,,,,,,,,,,,,,,,,,,,,,,,,,,,,,,,,,,,,,,,,,,,27586.12200000482,,form submission,,,,,,,,,,,,,,,,,,,,,,,,,,,,,,,,,,,,,,,,,,,,,,,,,,,,,,,,,,,,,,,,,,,,,,,,,,,,,,,1,,,,,,,,157462.49499999976,157462.29500000481,129869.238,129871.70000000333,129876.173,157463.596,,,,
Load,html.Page,2_4_1,2021-05-24T16:06:01.888Z,,,,,,,,,,,,,,,,,,,,,,,,,,,,,,,,,,,,,,,,,,,,,,,,,,,,,,,,,,,,,,,,,,,,,,,,,,,,,,,,,,,,,,,,,,,,,,,,,,,,,,,,,,,,,,,,,,,,3645.430000000022,,timeout,,,,,,,,,,,,,,,,,,,,,,,,,,,,,,,,,,,,,,,,,,,,,,,,,,,,,,,,,,,,,,,,,,,,,,,,,,,,,,,,,,,,,,,157465.56000001146,157465.37000000535,157456.603,157462.5950000045,157463.596,161109.026,,,,
SequenceSweet,flow.Sequence,2_4_2,2021-05-24T16:06:03.803Z,,,,,,,,,,,,,,,,,,,,,,,,,,,,,,,,,,,,,,,,,,,,,,,,,,,,,,,,,,,,,,,,,,,,,,,,,,,,,,,,,,,,,,,,,,,,,,,,,,,,,,,,,,,,,,,,,,,,NaN,,skipped,,,,,,,,,,,,,,,,,,,,,,,,,,,,,,,,,,,,,,,,,,,,,,,,,,,,,,,,,,,,,,,,,,,,,,,,,,,,,,true,,,,,,,,,159380.36999999895,157465.37000000535,,159380.1950000052,,161109.026,0,0,,
ratings_instructions,html.Screen,2_4_3_0,2021-05-24T16:06:29.747Z,,,,,,,,,,,,,,,,,,,,,,,,,,,,,,,,,,,,,,,,,,,,,,,,,,,,,,,,,,,,,,,,,,,,,,,,,,,,,,,,,,,,,,,,,,,,,,,,,,,,,,,,,,,,,,,,,,,,24213.989000001748,,response,,,,,,,,,,,,,,,,,,,,,,,,,,,,,,,,,,,,,,,,,,,,,,,,,,,,,,,,,,,,,,,,,,,,,,,,,,,,continue,keypress(Space),false,,,,,,,,,185324.58000000042,185323.01500000176,157465.37000000535,161120.68000000727,161109.026,185328.702,0,0,,
fixCross,canvas.Screen,2_4_3_1_0_0,2021-05-24T16:06:30.245Z,,,,,,,,,,,,,,,,,,,,,,,,,,,,,,,,,,,,,,,,,,,,,,,,,,,,,,,,,,,,,,,,,,,,,,,,,,,,,,,,,,,,,,,,,,,,,,,,,,,,,,,,,,,,,,,,,,,,499.90600000001723,,timeout,,,,unhealthy,,nacho.png,,,,,,,,,,,,,,,nacho,,,,,,,,,,,,,,,,,,,,,,,,,,,,,,,,,,,,,,,,,,,,,,,,,,,,,,,,,false,,,,,,,,,185822.17500000843,185821.691,185321.74,185324.88000000012,185328.702,185828.608,,,,
Rating,html.Form,2_4_3_1_0_1,2021-05-24T16:06:47.913Z,,,,,,,,,,,,,,,,,,,,,,,,,,,,,,,,,,,,,,,,,,,,,,,,,,,,,,,,,,,,,,,,,,,,,,,,,,,,,,,,,,,,,,,,,,,,,,,,,,,,,,,,,,,,,,,,,,,,17661.541999997804,,form submission,,,,unhealthy,,nacho.png,,,,,,,,,,,,,,,nacho,,,,,,,,,,,,,,,,,,,,,,,,,,,,,,,,,,,,,,,,,,,,,,,,,,,,,,,,,false,,,,,,,,,203490.28500000713,203490.1499999978,185821.691,185822.2550000064,185828.608,203493.421,,,,37
rating_sequence,flow.Sequence,2_4_3_1_0,2021-05-24T16:06:47.913Z,,,,,,,,,,,,,,,,,,,,,,,,,,,,,,,,,,,,,,,,,,,,,,,,,,,,,,,,,,,,,,,,,,,,,,,,,,,,,,,,,,,,,,,,,,,,,,,,,,,,,,,,,,,,,,,,,,,,18161.44799999782,,completion,,,,unhealthy,,nacho.png,,,,,,,,,,,,,,,nacho,,,,,,,,,,,,,,,,,,,,,,,,,,,,,,,,,,,,,,,,,,,,,,,,,,,,,,,,,false,,,,,,,,,203490.42500001087,203490.1499999978,185321.74,185324.85499999893,185328.702,203493.421,,,,
fixCross,canvas.Screen,2_4_3_1_1_0,2021-05-24T16:06:48.410Z,,,,,,,,,,,,,,,,,,,,,,,,,,,,,,,,,,,,,,,,,,,,,,,,,,,,,,,,,,,,,,,,,,,,,,,,,,,,,,,,,,,,,,,,,,,,,,,,,,,,,,,,,,,,,,,,,,,,499.95900000000256,,timeout,,,,healthy,,walnut.png,,,,,,,,,,,,,,,walnut,,,,,,,,,,,,,,,,,,,,,,,,,,,,,,,,,,,,,,,,,,,,,,,,,,,,,,,,,false,,,,,,,,,203986.97500000708,203986.448,203486.507,203490.49500000547,203493.421,203993.38,,,,
Rating,html.Form,2_4_3_1_1_1,2021-05-24T16:06:56.259Z,,,,,,,,,,,,,,,,,,,,,,,,,,,,,,,,,,,,,,,,,,,,,,,,,,,,,,,,,,,,,,,,,,,,,,,,,,,,,,,,,,,,,,,,,,,,,,,,,,,,,,,,,,,,,,,,,,,,7842.470000003115,,form submission,,,,healthy,,walnut.png,,,,,,,,,,,,,,,walnut,,,,,,,,,,,,,,,,,,,,,,,,,,,,,,,,,,,,,,,,,,,,,,,,,,,,,,,,,false,,,,,,,,,211836.00500000466,211835.85000000312,203986.448,203987.07000000286,203993.38,211839.778,,,,78
rating_sequence,flow.Sequence,2_4_3_1_1,2021-05-24T16:06:56.259Z,,,,,,,,,,,,,,,,,,,,,,,,,,,,,,,,,,,,,,,,,,,,,,,,,,,,,,,,,,,,,,,,,,,,,,,,,,,,,,,,,,,,,,,,,,,,,,,,,,,,,,,,,,,,,,,,,,,,8342.429000003118,,completion,,,,healthy,,walnut.png,,,,,,,,,,,,,,,walnut,,,,,,,,,,,,,,,,,,,,,,,,,,,,,,,,,,,,,,,,,,,,,,,,,,,,,,,,,false,,,,,,,,,211836.11499999824,211835.85000000312,203486.507,203490.47000000428,203493.421,211839.778,,,,
fixCross,canvas.Screen,2_4_3_1_2_0,2021-05-24T16:06:56.756Z,,,,,,,,,,,,,,,,,,,,,,,,,,,,,,,,,,,,,,,,,,,,,,,,,,,,,,,,,,,,,,,,,,,,,,,,,,,,,,,,,,,,,,,,,,,,,,,,,,,,,,,,,,,,,,,,,,,,499.9310000000114,,timeout,,,,unhealthy,,sausage.png,,,,,,,,,,,,,,,salami,,,,,,,,,,,,,,,,,,,,,,,,,,,,,,,,,,,,,,,,,,,,,,,,,,,,,,,,,false,,,,,,,,,212333.12000001024,212332.797,211832.842,211836.2000000052,211839.778,212339.709,,,,
Rating,html.Form,2_4_3_1_2_1,2021-05-24T16:06:59.865Z,,,,,,,,,,,,,,,,,,,,,,,,,,,,,,,,,,,,,,,,,,,,,,,,,,,,,,,,,,,,,,,,,,,,,,,,,,,,,,,,,,,,,,,,,,,,,,,,,,,,,,,,,,,,,,,,,,,,3102.6409999975294,,form submission,,,,unhealthy,,sausage.png,,,,,,,,,,,,,,,salami,,,,,,,,,,,,,,,,,,,,,,,,,,,,,,,,,,,,,,,,,,,,,,,,,,,,,,,,,false,,,,,,,,,215442.49000000127,215442.34999999753,212332.797,212333.23000000382,212339.709,215443.58,,,,100
rating_sequence,flow.Sequence,2_4_3_1_2,2021-05-24T16:06:59.866Z,,,,,,,,,,,,,,,,,,,,,,,,,,,,,,,,,,,,,,,,,,,,,,,,,,,,,,,,,,,,,,,,,,,,,,,,,,,,,,,,,,,,,,,,,,,,,,,,,,,,,,,,,,,,,,,,,,,,3602.571999997541,,completion,,,,unhealthy,,sausage.png,,,,,,,,,,,,,,,salami,,,,,,,,,,,,,,,,,,,,,,,,,,,,,,,,,,,,,,,,,,,,,,,,,,,,,,,,,false,,,,,,,,,215442.60999999824,215442.34999999753,211832.842,211836.1700000096,211839.778,215443.58,,,,
fixCross,canvas.Screen,2_4_3_1_3_0,2021-05-24T16:07:00.360Z,,,,,,,,,,,,,,,,,,,,,,,,,,,,,,,,,,,,,,,,,,,,,,,,,,,,,,,,,,,,,,,,,,,,,,,,,,,,,,,,,,,,,,,,,,,,,,,,,,,,,,,,,,,,,,,,,,,,499.9400000000023,,timeout,,,,unhealthy,,peanut_cracker.png,,,,,,,,,,,,,,,peanut chip,,,,,,,,,,,,,,,,,,,,,,,,,,,,,,,,,,,,,,,,,,,,,,,,,,,,,,,,,false,,,,,,,,,215936.92000000738,215936.571,215436.641,215442.69000001077,215443.58,215943.52,,,,
Rating,html.Form,2_4_3_1_3_1,2021-05-24T16:07:09.333Z,,,,,,,,,,,,,,,,,,,,,,,,,,,,,,,,,,,,,,,,,,,,,,,,,,,,,,,,,,,,,,,,,,,,,,,,,,,,,,,,,,,,,,,,,,,,,,,,,,,,,,,,,,,,,,,,,,,,8965.875000009692,,form submission,,,,unhealthy,,peanut_cracker.png,,,,,,,,,,,,,,,peanut chip,,,,,,,,,,,,,,,,,,,,,,,,,,,,,,,,,,,,,,,,,,,,,,,,,,,,,,,,,false,,,,,,,,,224909.56000000006,224909.39500000968,215936.571,215937.01500000316,215943.52,224914.783,,,,100
rating_sequence,flow.Sequence,2_4_3_1_3,2021-05-24T16:07:09.333Z,,,,,,,,,,,,,,,,,,,,,,,,,,,,,,,,,,,,,,,,,,,,,,,,,,,,,,,,,,,,,,,,,,,,,,,,,,,,,,,,,,,,,,,,,,,,,,,,,,,,,,,,,,,,,,,,,,,,9465.815000009694,,completion,,,,unhealthy,,peanut_cracker.png,,,,,,,,,,,,,,,peanut chip,,,,,,,,,,,,,,,,,,,,,,,,,,,,,,,,,,,,,,,,,,,,,,,,,,,,,,,,,false,,,,,,,,,224909.87499999756,224909.39500000968,215436.641,215442.66500000958,215443.58,224914.783,,,,
fixCross,canvas.Screen,2_4_3_1_4_0,2021-05-24T16:07:09.831Z,,,,,,,,,,,,,,,,,,,,,,,,,,,,,,,,,,,,,,,,,,,,,,,,,,,,,,,,,,,,,,,,,,,,,,,,,,,,,,,,,,,,,,,,,,,,,,,,,,,,,,,,,,,,,,,,,,,,499.945000000007,,timeout,,,,healthy,,celery.png,,,,,,,,,,,,,,,celery,,,,,,,,,,,,,,,,,,,,,,,,,,,,,,,,,,,,,,,,,,,,,,,,,,,,,,,,,false,,,,,,,,,225408.16500000074,225407.802,224907.844,224909.9600000045,224914.783,225414.728,,,,
Rating,html.Form,2_4_3_1_4_1,2021-05-24T16:07:14.133Z,,,,,,,,,,,,,,,,,,,,,,,,,,,,,,,,,,,,,,,,,,,,,,,,,,,,,,,,,,,,,,,,,,,,,,,,,,,,,,,,,,,,,,,,,,,,,,,,,,,,,,,,,,,,,,,,,,,,4295.182000005036,,form submission,,,,healthy,,celery.png,,,,,,,,,,,,,,,celery,,,,,,,,,,,,,,,,,,,,,,,,,,,,,,,,,,,,,,,,,,,,,,,,,,,,,,,,,false,,,,,,,,,229710.0599999976,229709.91000000504,225407.802,225408.25000000768,225414.728,229712.891,,,,72
rating_sequence,flow.Sequence,2_4_3_1_4,2021-05-24T16:07:14.133Z,,,,,,,,,,,,,,,,,,,,,,,,,,,,,,,,,,,,,,,,,,,,,,,,,,,,,,,,,,,,,,,,,,,,,,,,,,,,,,,,,,,,,,,,,,,,,,,,,,,,,,,,,,,,,,,,,,,,4795.127000005043,,completion,,,,healthy,,celery.png,,,,,,,,,,,,,,,celery,,,,,,,,,,,,,,,,,,,,,,,,,,,,,,,,,,,,,,,,,,,,,,,,,,,,,,,,,false,,,,,,,,,229710.17000000575,229709.91000000504,224907.844,224909.93500000332,224914.783,229712.891,,,,
fixCross,canvas.Screen,2_4_3_1_5_0,2021-05-24T16:07:14.629Z,,,,,,,,,,,,,,,,,,,,,,,,,,,,,,,,,,,,,,,,,,,,,,,,,,,,,,,,,,,,,,,,,,,,,,,,,,,,,,,,,,,,,,,,,,,,,,,,,,,,,,,,,,,,,,,,,,,,499.9400000000023,,timeout,,,,healthy,,radish.png,,,,,,,,,,,,,,,radish,,,,,,,,,,,,,,,,,,,,,,,,,,,,,,,,,,,,,,,,,,,,,,,,,,,,,,,,,false,,,,,,,,,230206.2500000029,230205.906,229705.952,229710.24000000034,229712.891,230212.831,,,,
Rating,html.Form,2_4_3_1_5_1,2021-05-24T16:07:18.311Z,,,,,,,,,,,,,,,,,,,,,,,,,,,,,,,,,,,,,,,,,,,,,,,,,,,,,,,,,,,,,,,,,,,,,,,,,,,,,,,,,,,,,,,,,,,,,,,,,,,,,,,,,,,,,,,,,,,,3675.30900001002,,form submission,,,,healthy,,radish.png,,,,,,,,,,,,,,,radish,,,,,,,,,,,,,,,,,,,,,,,,,,,,,,,,,,,,,,,,,,,,,,,,,,,,,,,,,false,,,,,,,,,233888.28500000818,233888.14000001003,230205.906,230206.34000000427,230212.831,233893.006,,,,0
rating_sequence,flow.Sequence,2_4_3_1_5,2021-05-24T16:07:18.311Z,,,,,,,,,,,,,,,,,,,,,,,,,,,,,,,,,,,,,,,,,,,,,,,,,,,,,,,,,,,,,,,,,,,,,,,,,,,,,,,,,,,,,,,,,,,,,,,,,,,,,,,,,,,,,,,,,,,,4175.249000010022,,completion,,,,healthy,,radish.png,,,,,,,,,,,,,,,radish,,,,,,,,,,,,,,,,,,,,,,,,,,,,,,,,,,,,,,,,,,,,,,,,,,,,,,,,,false,,,,,,,,,233888.38499999838,233888.14000001003,229705.952,229710.22000000812,229712.891,233893.006,,,,
fixCross,canvas.Screen,2_4_3_1_6_0,2021-05-24T16:07:18.809Z,,,,,,,,,,,,,,,,,,,,,,,,,,,,,,,,,,,,,,,,,,,,,,,,,,,,,,,,,,,,,,,,,,,,,,,,,,,,,,,,,,,,,,,,,,,,,,,,,,,,,,,,,,,,,,,,,,,,499.95000000001164,,timeout,,,,healthy,,cashew.png,,,,,,,,,,,,,,,cashew,,,,,,,,,,,,,,,,,,,,,,,,,,,,,,,,,,,,,,,,,,,,,,,,,,,,,,,,,false,,,,,,,,,234386.42000000982,234386.034,233885.376,233888.44999999856,233893.006,234392.956,,,,
Rating,html.Form,2_4_3_1_6_1,2021-05-24T16:07:21.964Z,,,,,,,,,,,,,,,,,,,,,,,,,,,,,,,,,,,,,,,,,,,,,,,,,,,,,,,,,,,,,,,,,,,,,,,,,,,,,,,,,,,,,,,,,,,,,,,,,,,,,,,,,,,,,,,,,,,,3147.5739999983925,,form submission,,,,healthy,,cashew.png,,,,,,,,,,,,,,,cashew,,,,,,,,,,,,,,,,,,,,,,,,,,,,,,,,,,,,,,,,,,,,,,,,,,,,,,,,,false,,,,,,,,,237540.65500000434,237540.5299999984,234386.034,234386.51000001119,234392.956,237545.388,,,,85
rating_sequence,flow.Sequence,2_4_3_1_6,2021-05-24T16:07:21.964Z,,,,,,,,,,,,,,,,,,,,,,,,,,,,,,,,,,,,,,,,,,,,,,,,,,,,,,,,,,,,,,,,,,,,,,,,,,,,,,,,,,,,,,,,,,,,,,,,,,,,,,,,,,,,,,,,,,,,3647.523999998404,,completion,,,,healthy,,cashew.png,,,,,,,,,,,,,,,cashew,,,,,,,,,,,,,,,,,,,,,,,,,,,,,,,,,,,,,,,,,,,,,,,,,,,,,,,,,false,,,,,,,,,237540.75000000012,237540.5299999984,233885.376,233888.43000000634,233893.006,237545.388,,,,
fixCross,canvas.Screen,2_4_3_1_7_0,2021-05-24T16:07:22.462Z,,,,,,,,,,,,,,,,,,,,,,,,,,,,,,,,,,,,,,,,,,,,,,,,,,,,,,,,,,,,,,,,,,,,,,,,,,,,,,,,,,,,,,,,,,,,,,,,,,,,,,,,,,,,,,,,,,,,499.98300000000745,,timeout,,,,healthy,,edamame.png,,,,,,,,,,,,,,,edamame,,,,,,,,,,,,,,,,,,,,,,,,,,,,,,,,,,,,,,,,,,,,,,,,,,,,,,,,,false,,,,,,,,,238039.48000000673,238038.424,237538.47,237540.82000000926,237545.388,238045.371,,,,
Rating,html.Form,2_4_3_1_7_1,2021-05-24T16:07:25.600Z,,,,,,,,,,,,,,,,,,,,,,,,,,,,,,,,,,,,,,,,,,,,,,,,,,,,,,,,,,,,,,,,,,,,,,,,,,,,,,,,,,,,,,,,,,,,,,,,,,,,,,,,,,,,,,,,,,,,3131.5390000092157,,form submission,,,,healthy,,edamame.png,,,,,,,,,,,,,,,edamame,,,,,,,,,,,,,,,,,,,,,,,,,,,,,,,,,,,,,,,,,,,,,,,,,,,,,,,,,false,,,,,,,,,241177.04999999842,241176.91000000923,238038.424,238039.57500000251,238045.371,241189.64,,,,28
rating_sequence,flow.Sequence,2_4_3_1_7,2021-05-24T16:07:25.600Z,,,,,,,,,,,,,,,,,,,,,,,,,,,,,,,,,,,,,,,,,,,,,,,,,,,,,,,,,,,,,,,,,,,,,,,,,,,,,,,,,,,,,,,,,,,,,,,,,,,,,,,,,,,,,,,,,,,,3631.522000009223,,completion,,,,healthy,,edamame.png,,,,,,,,,,,,,,,edamame,,,,,,,,,,,,,,,,,,,,,,,,,,,,,,,,,,,,,,,,,,,,,,,,,,,,,,,,,false,,,,,,,,,241177.15499999758,241176.91000000923,237538.47,237540.79500000807,237545.388,241189.64,,,,
fixCross,canvas.Screen,2_4_3_1_8_0,2021-05-24T16:07:26.107Z,,,,,,,,,,,,,,,,,,,,,,,,,,,,,,,,,,,,,,,,,,,,,,,,,,,,,,,,,,,,,,,,,,,,,,,,,,,,,,,,,,,,,,,,,,,,,,,,,,,,,,,,,,,,,,,,,,,,501.15399999998044,,timeout,,,,unhealthy,,dried_meat.png,,,,,,,,,,,,,,,dried meat,,,,,,,,,,,,,,,,,,,,,,,,,,,,,,,,,,,,,,,,,,,,,,,,,,,,,,,,,false,,,,,,,,,241684.1800000111,241683.867,241170.039,241177.21500000334,241189.64,241690.794,,,,
Rating,html.Form,2_4_3_1_8_1,2021-05-24T16:07:29.743Z,,,,,,,,,,,,,,,,,,,,,,,,,,,,,,,,,,,,,,,,,,,,,,,,,,,,,,,,,,,,,,,,,,,,,,,,,,,,,,,,,,,,,,,,,,,,,,,,,,,,,,,,,,,,,,,,,,,,3628.6310000087833,,form submission,,,,unhealthy,,dried_meat.png,,,,,,,,,,,,,,,dried meat,,,,,,,,,,,,,,,,,,,,,,,,,,,,,,,,,,,,,,,,,,,,,,,,,,,,,,,,,false,,,,,,,,,245319.58999999915,245319.42500000878,241683.867,241684.2650000035,241690.794,245322.355,,,,24
rating_sequence,flow.Sequence,2_4_3_1_8,2021-05-24T16:07:29.743Z,,,,,,,,,,,,,,,,,,,,,,,,,,,,,,,,,,,,,,,,,,,,,,,,,,,,,,,,,,,,,,,,,,,,,,,,,,,,,,,,,,,,,,,,,,,,,,,,,,,,,,,,,,,,,,,,,,,,4129.785000008764,,completion,,,,unhealthy,,dried_meat.png,,,,,,,,,,,,,,,dried meat,,,,,,,,,,,,,,,,,,,,,,,,,,,,,,,,,,,,,,,,,,,,,,,,,,,,,,,,,false,,,,,,,,,245319.7000000073,245319.42500000878,241170.039,241177.19500001112,241189.64,245322.355,,,,
fixCross,canvas.Screen,2_4_3_1_9_0,2021-05-24T16:07:30.239Z,,,,,,,,,,,,,,,,,,,,,,,,,,,,,,,,,,,,,,,,,,,,,,,,,,,,,,,,,,,,,,,,,,,,,,,,,,,,,,,,,,,,,,,,,,,,,,,,,,,,,,,,,,,,,,,,,,,,499.9459999999963,,timeout,,,,unhealthy,,ham.png,,,,,,,,,,,,,,,ham,,,,,,,,,,,,,,,,,,,,,,,,,,,,,,,,,,,,,,,,,,,,,,,,,,,,,,,,,false,,,,,,,,,245815.78499999887,245815.388,245315.435,245319.7599999985,245322.355,245822.301,,,,
Rating,html.Form,2_4_3_1_9_1,2021-05-24T16:07:36.157Z,,,,,,,,,,,,,,,,,,,,,,,,,,,,,,,,,,,,,,,,,,,,,,,,,,,,,,,,,,,,,,,,,,,,,,,,,,,,,,,,,,,,,,,,,,,,,,,,,,,,,,,,,,,,,,,,,,,,5911.734000001306,,form submission,,,,unhealthy,,ham.png,,,,,,,,,,,,,,,ham,,,,,,,,,,,,,,,,,,,,,,,,,,,,,,,,,,,,,,,,,,,,,,,,,,,,,,,,,false,,,,,,,,,251734.17500000505,251734.0350000013,245815.388,245815.87000000582,245822.301,251738.348,,,,80
rating_sequence,flow.Sequence,2_4_3_1_9,2021-05-24T16:07:36.157Z,,,,,,,,,,,,,,,,,,,,,,,,,,,,,,,,,,,,,,,,,,,,,,,,,,,,,,,,,,,,,,,,,,,,,,,,,,,,,,,,,,,,,,,,,,,,,,,,,,,,,,,,,,,,,,,,,,,,6411.680000001303,,completion,,,,unhealthy,,ham.png,,,,,,,,,,,,,,,ham,,,,,,,,,,,,,,,,,,,,,,,,,,,,,,,,,,,,,,,,,,,,,,,,,,,,,,,,,false,,,,,,,,,251734.2750000098,251734.0350000013,245315.435,245319.74000000628,245322.355,251738.348,,,,
fixCross,canvas.Screen,2_4_3_1_10_0,2021-05-24T16:07:36.655Z,,,,,,,,,,,,,,,,,,,,,,,,,,,,,,,,,,,,,,,,,,,,,,,,,,,,,,,,,,,,,,,,,,,,,,,,,,,,,,,,,,,,,,,,,,,,,,,,,,,,,,,,,,,,,,,,,,,,499.945000000007,,timeout,,,,unhealthy,,ritz.png,,,,,,,,,,,,,,,cracker,,,,,,,,,,,,,,,,,,,,,,,,,,,,,,,,,,,,,,,,,,,,,,,,,,,,,,,,,false,,,,,,,,,252231.90500000783,252231.4,251731.422,251734.335000001,251738.348,252238.293,,,,
Rating,html.Form,2_4_3_1_10_1,2021-05-24T16:07:38.975Z,,,,,,,,,,,,,,,,,,,,,,,,,,,,,,,,,,,,,,,,,,,,,,,,,,,,,,,,,,,,,,,,,,,,,,,,,,,,,,,,,,,,,,,,,,,,,,,,,,,,,,,,,,,,,,,,,,,,2314.0020000013174,,form submission,,,,unhealthy,,ritz.png,,,,,,,,,,,,,,,cracker,,,,,,,,,,,,,,,,,,,,,,,,,,,,,,,,,,,,,,,,,,,,,,,,,,,,,,,,,false,,,,,,,,,254552.42000000726,254552.29500000132,252231.4,252232.0000000036,252238.293,254557.508,,,,100
rating_sequence,flow.Sequence,2_4_3_1_10,2021-05-24T16:07:38.975Z,,,,,,,,,,,,,,,,,,,,,,,,,,,,,,,,,,,,,,,,,,,,,,,,,,,,,,,,,,,,,,,,,,,,,,,,,,,,,,,,,,,,,,,,,,,,,,,,,,,,,,,,,,,,,,,,,,,,2813.9470000013243,,completion,,,,unhealthy,,ritz.png,,,,,,,,,,,,,,,cracker,,,,,,,,,,,,,,,,,,,,,,,,,,,,,,,,,,,,,,,,,,,,,,,,,,,,,,,,,false,,,,,,,,,254552.51999999746,254552.29500000132,251731.422,251734.30999999982,251738.348,254557.508,,,,
fixCross,canvas.Screen,2_4_3_1_11_0,2021-05-24T16:07:39.474Z,,,,,,,,,,,,,,,,,,,,,,,,,,,,,,,,,,,,,,,,,,,,,,,,,,,,,,,,,,,,,,,,,,,,,,,,,,,,,,,,,,,,,,,,,,,,,,,,,,,,,,,,,,,,,,,,,,,,499.93599999998696,,timeout,,,,healthy,,cucumber.png,,,,,,,,,,,,,,,cucumber,,,,,,,,,,,,,,,,,,,,,,,,,,,,,,,,,,,,,,,,,,,,,,,,,,,,,,,,,false,,,,,,,,,255050.79500000284,255050.514,254550.566,254552.5750000088,254557.508,255057.444,,,,
Rating,html.Form,2_4_3_1_11_1,2021-05-24T16:07:44.230Z,,,,,,,,,,,,,,,,,,,,,,,,,,,,,,,,,,,,,,,,,,,,,,,,,,,,,,,,,,,,,,,,,,,,,,,,,,,,,,,,,,,,,,,,,,,,,,,,,,,,,,,,,,,,,,,,,,,,4749.411000002554,,form submission,,,,healthy,,cucumber.png,,,,,,,,,,,,,,,cucumber,,,,,,,,,,,,,,,,,,,,,,,,,,,,,,,,,,,,,,,,,,,,,,,,,,,,,,,,,false,,,,,,,,,259806.9899999973,259806.85500000254,255050.514,255050.87500000081,255057.444,259826.118,,,,100
rating_sequence,flow.Sequence,2_4_3_1_11,2021-05-24T16:07:44.230Z,,,,,,,,,,,,,,,,,,,,,,,,,,,,,,,,,,,,,,,,,,,,,,,,,,,,,,,,,,,,,,,,,,,,,,,,,,,,,,,,,,,,,,,,,,,,,,,,,,,,,,,,,,,,,,,,,,,,5249.347000002541,,completion,,,,healthy,,cucumber.png,,,,,,,,,,,,,,,cucumber,,,,,,,,,,,,,,,,,,,,,,,,,,,,,,,,,,,,,,,,,,,,,,,,,,,,,,,,,false,,,,,,,,,259807.09500001103,259806.85500000254,254550.566,254552.560000011,254557.508,259826.118,,,,
fixCross,canvas.Screen,2_4_3_1_12_0,2021-05-24T16:07:44.744Z,,,,,,,,,,,,,,,,,,,,,,,,,,,,,,,,,,,,,,,,,,,,,,,,,,,,,,,,,,,,,,,,,,,,,,,,,,,,,,,,,,,,,,,,,,,,,,,,,,,,,,,,,,,,,,,,,,,,501.6040000000212,,timeout,,,,unhealthy,,frie.png,,,,,,,,,,,,,,,frie,,,,,,,,,,,,,,,,,,,,,,,,,,,,,,,,,,,,,,,,,,,,,,,,,,,,,,,,,false,,,,,,,,,260321.30500000494,260320.809,259800.019,259807.1600000112,259826.118,260327.722,,,,
Rating,html.Form,2_4_3_1_12_1,2021-05-24T16:07:47.150Z,,,,,,,,,,,,,,,,,,,,,,,,,,,,,,,,,,,,,,,,,,,,,,,,,,,,,,,,,,,,,,,,,,,,,,,,,,,,,,,,,,,,,,,,,,,,,,,,,,,,,,,,,,,,,,,,,,,,2399.54300000862,,form submission,,,,unhealthy,,frie.png,,,,,,,,,,,,,,,frie,,,,,,,,,,,,,,,,,,,,,,,,,,,,,,,,,,,,,,,,,,,,,,,,,,,,,,,,,false,,,,,,,,,262727.395000009,262727.2650000086,260320.809,260321.38500000292,260327.722,262730.249,,,,100
rating_sequence,flow.Sequence,2_4_3_1_12,2021-05-24T16:07:47.150Z,,,,,,,,,,,,,,,,,,,,,,,,,,,,,,,,,,,,,,,,,,,,,,,,,,,,,,,,,,,,,,,,,,,,,,,,,,,,,,,,,,,,,,,,,,,,,,,,,,,,,,,,,,,,,,,,,,,,2901.147000008641,,completion,,,,unhealthy,,frie.png,,,,,,,,,,,,,,,frie,,,,,,,,,,,,,,,,,,,,,,,,,,,,,,,,,,,,,,,,,,,,,,,,,,,,,,,,,false,,,,,,,,,262727.49000000476,262727.2650000086,259800.019,259807.14000000444,259826.118,262730.249,,,,
fixCross,canvas.Screen,2_4_3_1_13_0,2021-05-24T16:07:47.647Z,,,,,,,,,,,,,,,,,,,,,,,,,,,,,,,,,,,,,,,,,,,,,,,,,,,,,,,,,,,,,,,,,,,,,,,,,,,,,,,,,,,,,,,,,,,,,,,,,,,,,,,,,,,,,,,,,,,,499.9419999999809,,timeout,,,,unhealthy,,chips.png,,,,,,,,,,,,,,,potato chip,,,,,,,,,,,,,,,,,,,,,,,,,,,,,,,,,,,,,,,,,,,,,,,,,,,,,,,,,false,,,,,,,,,263223.6200000043,263223.276,262723.324,262727.5500000105,262730.249,263230.191,,,,
Rating,html.Form,2_4_3_1_13_1,2021-05-24T16:07:49.921Z,,,,,,,,,,,,,,,,,,,,,,,,,,,,,,,,,,,,,,,,,,,,,,,,,,,,,,,,,,,,,,,,,,,,,,,,,,,,,,,,,,,,,,,,,,,,,,,,,,,,,,,,,,,,,,,,,,,,2267.2390000030864,,form submission,,,,unhealthy,,chips.png,,,,,,,,,,,,,,,potato chip,,,,,,,,,,,,,,,,,,,,,,,,,,,,,,,,,,,,,,,,,,,,,,,,,,,,,,,,,false,,,,,,,,,265497.5800000102,265497.4300000031,263223.276,263223.7549999991,263230.191,265500.79,,,,100
rating_sequence,flow.Sequence,2_4_3_1_13,2021-05-24T16:07:49.921Z,,,,,,,,,,,,,,,,,,,,,,,,,,,,,,,,,,,,,,,,,,,,,,,,,,,,,,,,,,,,,,,,,,,,,,,,,,,,,,,,,,,,,,,,,,,,,,,,,,,,,,,,,,,,,,,,,,,,2767.1810000030673,,completion,,,,unhealthy,,chips.png,,,,,,,,,,,,,,,potato chip,,,,,,,,,,,,,,,,,,,,,,,,,,,,,,,,,,,,,,,,,,,,,,,,,,,,,,,,,false,,,,,,,,,265497.675000006,265497.4300000031,262723.324,262727.53499999817,262730.249,265500.79,,,,
fixCross,canvas.Screen,2_4_3_1_14_0,2021-05-24T16:07:50.417Z,,,,,,,,,,,,,,,,,,,,,,,,,,,,,,,,,,,,,,,,,,,,,,,,,,,,,,,,,,,,,,,,,,,,,,,,,,,,,,,,,,,,,,,,,,,,,,,,,,,,,,,,,,,,,,,,,,,,500.00500000000466,,timeout,,,,healthy,,carrot.png,,,,,,,,,,,,,,,carrot,,,,,,,,,,,,,,,,,,,,,,,,,,,,,,,,,,,,,,,,,,,,,,,,,,,,,,,,,false,,,,,,,,,265994.1700000054,265993.814,265493.868,265497.7349999972,265500.79,266000.795,,,,
Rating,html.Form,2_4_3_1_14_1,2021-05-24T16:07:52.743Z,,,,,,,,,,,,,,,,,,,,,,,,,,,,,,,,,,,,,,,,,,,,,,,,,,,,,,,,,,,,,,,,,,,,,,,,,,,,,,,,,,,,,,,,,,,,,,,,,,,,,,,,,,,,,,,,,,,,2319.0049999975017,,form submission,,,,healthy,,carrot.png,,,,,,,,,,,,,,,carrot,,,,,,,,,,,,,,,,,,,,,,,,,,,,,,,,,,,,,,,,,,,,,,,,,,,,,,,,,false,,,,,,,,,268319.9350000068,268319.7999999975,265993.814,265994.2500000034,266000.795,268327.654,,,,100
rating_sequence,flow.Sequence,2_4_3_1_14,2021-05-24T16:07:52.743Z,,,,,,,,,,,,,,,,,,,,,,,,,,,,,,,,,,,,,,,,,,,,,,,,,,,,,,,,,,,,,,,,,,,,,,,,,,,,,,,,,,,,,,,,,,,,,,,,,,,,,,,,,,,,,,,,,,,,2819.0099999975064,,completion,,,,healthy,,carrot.png,,,,,,,,,,,,,,,carrot,,,,,,,,,,,,,,,,,,,,,,,,,,,,,,,,,,,,,,,,,,,,,,,,,,,,,,,,,false,,,,,,,,,268320.03500001156,268319.7999999975,265493.868,265497.715000005,265500.79,268327.654,,,,
fixCross,canvas.Screen,2_4_3_1_15_0,2021-05-24T16:07:53.243Z,,,,,,,,,,,,,,,,,,,,,,,,,,,,,,,,,,,,,,,,,,,,,,,,,,,,,,,,,,,,,,,,,,,,,,,,,,,,,,,,,,,,,,,,,,,,,,,,,,,,,,,,,,,,,,,,,,,,499.17700000002515,,timeout,,,,unhealthy,,bretzel.png,,,,,,,,,,,,,,,bretzel,,,,,,,,,,,,,,,,,,,,,,,,,,,,,,,,,,,,,,,,,,,,,,,,,,,,,,,,,false,,,,,,,,,268820.2750000055,268819.907,268313.018,268320.09500000277,268327.654,268826.831,,,,
Rating,html.Form,2_4_3_1_15_1,2021-05-24T16:07:57.421Z,,,,,,,,,,,,,,,,,,,,,,,,,,,,,,,,,,,,,,,,,,,,,,,,,,,,,,,,,,,,,,,,,,,,,,,,,,,,,,,,,,,,,,,,,,,,,,,,,,,,,,,,,,,,,,,,,,,,4171.479000009946,,form submission,,,,unhealthy,,bretzel.png,,,,,,,,,,,,,,,bretzel,,,,,,,,,,,,,,,,,,,,,,,,,,,,,,,,,,,,,,,,,,,,,,,,,,,,,,,,,false,,,,,,,,,272998.44999999914,272998.31000000995,268819.907,268820.36500000686,268826.831,273000.03,,,,79
rating_sequence,flow.Sequence,2_4_3_1_15,2021-05-24T16:07:57.422Z,,,,,,,,,,,,,,,,,,,,,,,,,,,,,,,,,,,,,,,,,,,,,,,,,,,,,,,,,,,,,,,,,,,,,,,,,,,,,,,,,,,,,,,,,,,,,,,,,,,,,,,,,,,,,,,,,,,,4670.656000009971,,completion,,,,unhealthy,,bretzel.png,,,,,,,,,,,,,,,bretzel,,,,,,,,,,,,,,,,,,,,,,,,,,,,,,,,,,,,,,,,,,,,,,,,,,,,,,,,,false,,,,,,,,,272998.5500000039,272998.31000000995,268313.018,268320.0700000016,268327.654,273000.03,,,,
fixCross,canvas.Screen,2_4_3_1_16_0,2021-05-24T16:07:57.916Z,,,,,,,,,,,,,,,,,,,,,,,,,,,,,,,,,,,,,,,,,,,,,,,,,,,,,,,,,,,,,,,,,,,,,,,,,,,,,,,,,,,,,,,,,,,,,,,,,,,,,,,,,,,,,,,,,,,,499.9219999999623,,timeout,,,,healthy,,tomato.png,,,,,,,,,,,,,,,cherry tomato,,,,,,,,,,,,,,,,,,,,,,,,,,,,,,,,,,,,,,,,,,,,,,,,,,,,,,,,,false,,,,,,,,,273493.5150000092,273493.041,272993.073,272998.63500001084,273000.03,273499.952,,,,
Rating,html.Form,2_4_3_1_16_1,2021-05-24T16:08:00.846Z,,,,,,,,,,,,,,,,,,,,,,,,,,,,,,,,,,,,,,,,,,,,,,,,,,,,,,,,,,,,,,,,,,,,,,,,,,,,,,,,,,,,,,,,,,,,,,,,,,,,,,,,,,,,,,,,,,,,2922.673000006529,,form submission,,,,healthy,,tomato.png,,,,,,,,,,,,,,,cherry tomato,,,,,,,,,,,,,,,,,,,,,,,,,,,,,,,,,,,,,,,,,,,,,,,,,,,,,,,,,false,,,,,,,,,276422.90000000503,276422.6250000065,273493.041,273493.75000000873,273499.952,276444.573,,,,19
rating_sequence,flow.Sequence,2_4_3_1_16,2021-05-24T16:08:00.846Z,,,,,,,,,,,,,,,,,,,,,,,,,,,,,,,,,,,,,,,,,,,,,,,,,,,,,,,,,,,,,,,,,,,,,,,,,,,,,,,,,,,,,,,,,,,,,,,,,,,,,,,,,,,,,,,,,,,,3422.5950000064913,,completion,,,,healthy,,tomato.png,,,,,,,,,,,,,,,cherry tomato,,,,,,,,,,,,,,,,,,,,,,,,,,,,,,,,,,,,,,,,,,,,,,,,,,,,,,,,,false,,,,,,,,,276423.0099999986,276422.6250000065,272993.073,272998.61000000965,273000.03,276444.573,,,,
fixCross,canvas.Screen,2_4_3_1_17_0,2021-05-24T16:08:01.360Z,,,,,,,,,,,,,,,,,,,,,,,,,,,,,,,,,,,,,,,,,,,,,,,,,,,,,,,,,,,,,,,,,,,,,,,,,,,,,,,,,,,,,,,,,,,,,,,,,,,,,,,,,,,,,,,,,,,,499.46000000002095,,timeout,,,,healthy,,pickle.png,,,,,,,,,,,,,,,pickle,,,,,,,,,,,,,,,,,,,,,,,,,,,,,,,,,,,,,,,,,,,,,,,,,,,,,,,,,false,,,,,,,,,276937.40999999864,276937.101,276416.332,276423.0749999988,276444.573,276944.033,,,,
Rating,html.Form,2_4_3_1_17_1,2021-05-24T16:08:03.358Z,,,,,,,,,,,,,,,,,,,,,,,,,,,,,,,,,,,,,,,,,,,,,,,,,,,,,,,,,,,,,,,,,,,,,,,,,,,,,,,,,,,,,,,,,,,,,,,,,,,,,,,,,,,,,,,,,,,,1991.0420000012382,,form submission,,,,healthy,,pickle.png,,,,,,,,,,,,,,,pickle,,,,,,,,,,,,,,,,,,,,,,,,,,,,,,,,,,,,,,,,,,,,,,,,,,,,,,,,,false,,,,,,,,,278935.215000005,278935.07500000123,276937.101,276937.4950000056,276944.033,278943.856,,,,0
rating_sequence,flow.Sequence,2_4_3_1_17,2021-05-24T16:08:03.358Z,,,,,,,,,,,,,,,,,,,,,,,,,,,,,,,,,,,,,,,,,,,,,,,,,,,,,,,,,,,,,,,,,,,,,,,,,,,,,,,,,,,,,,,,,,,,,,,,,,,,,,,,,,,,,,,,,,,,2490.502000001259,,completion,,,,healthy,,pickle.png,,,,,,,,,,,,,,,pickle,,,,,,,,,,,,,,,,,,,,,,,,,,,,,,,,,,,,,,,,,,,,,,,,,,,,,,,,,false,,,,,,,,,278935.30500000634,278935.07500000123,276416.332,276423.05500000657,276444.573,278943.856,,,,
rating_loop,flow.Loop,2_4_3_1,2021-05-24T16:08:03.358Z,,,,,,,,,,,,,,,,,,,,,,,,,,,,,,,,,,,,,,,,,,,,,,,,,,,,,,,,,,,,,,,,,,,,,,,,,,,,,,,,,,,,,,,,,,,,,,,,,,,,,,,,,,,,,,,,,,,,93606.37300000124,,completion,,,,,,,,,,,,,,,,,,,,,,,,,,,,,,,,,,,,,,,,,,,,,,,,,,,,,,,,,,,,,,,,,,,,,,,,,,,,,,false,,,,,,,,,278935.3800000099,278935.07500000123,185321.74,185324.82500000333,185328.702,278943.856,,,,
data_transmission,html.Screen,2_4_3_2,2021-05-24T16:08:03.364Z,,,,,,,,,,,,,,,,,,,,,,,,,,,,,,,,,,,,,,,,,,,,,,,,,,,,,,,,,,,,,,,,,,,,,,,,,,,,,,,,,,,,,,,,,,,,,,,,,,,,,,,,,,,,,,,,,,,,NaN,,no compatible backend,,,,,,,,,,,,,,,Transferring data,,,,,,,,,,,,,,,,,,,,,,,,,,,,,,,,,,,,,,,,,,,,,,,,,,,,,,,,,,,,,,,false,,,Please wait a second…,,,,,,278940.82000000344,278940.6350000063,,278935.4149999999,,278943.856,,,,
instructions,html.Screen,2_4_3_3,2021-05-24T16:09:58.850Z,,,,,,,,,,,,,,,,,,,,,,,,,,,,,,,,,,,,,,,,,,,,,,,,,,,,,,,,,,,,,,,,,,,,,,,,,,,,,,,,,,,,,,,,,,,,,,,,,,,,,,,,,,,,,,,,,,,,115483.0990000026,,done,,,,,,,,,,,,,,,,,,,,,,,,,,,,,,,,,,,,,,,,,,,,,,,,,,,,,,,,,,,,,,,,,,,,,,,,,,,,,,false,,,,,,,,,394427.0749999996,394426.95500000264,278929.944,278940.935000006,278943.856,394431.718,,,,
Q1,html.Screen,2_4_3_4_0,2021-05-24T16:10:10.948Z,,,,,,,,,,,,,,,,,,,,,,,,,,,,,,,,,,,,,,,,,,,,,,,,,,,,,,,,,,,,,,,,,,,,,,,,,,,,,,,,,,,,,,,,,,,,,,,,,,,,,,,,,,,,,,,,false,input_Q1==3,,,12091.90200000722,,response,,,,,,,,,,,,,,,,,,,,,,,,,Q1_i2,Q1_i3,Q1_i1,Q1_i4,2,3,1,4,false,correct,false,false,,,,,,,,,,,,,,,,,,,,,,,,,,,,,,,,,,,,,,,,,click #Q1_i3,false,,,,,,,,,406525.0550000055,406523.6200000072,394423.656,394427.1549999976,394431.718,406527.644,,,,
Q1_correct,html.Screen,2_4_3_4_1,2021-05-24T16:10:12.740Z,,,,,,,,,,,,,,,,,,,,,,,,,,,,,,,,,,,,,,,,,,,,,,,,,,,,,,,,,,,,,,,,,,,,,,,,,,,,,,,,,,,,,,,,,,,,,,,,,,,,,,,,,,,,,,,,,,,,1788.7910000006668,,response,,,,,,,,,,,,,,,,,,,,,,,,,,,,,,,,,,,,,,,,,,,,,,,,,,,,,,,,,,,,,,,,,,,,,,,,,,,,,keypress,false,,,,,,,,,408316.83000001067,408316.43500000064,406520.693,406525.1450000069,406527.644,408319.124,,,,
Q2,html.Screen,2_4_3_4_2,2021-05-24T16:10:19.687Z,,,,,,,,,,,,,,,,,,,,,,,,,,,,,,,,,,,,,,,,,,,,,,,,,,,,,,,,,,,,,,,,,,,,,,,,,,,,,,,,,,,,,,,,,,,,,,,,,,,,,,,,,,,,,,,,,,,,6943.555999999808,,response,,,,,,,,,,,,,,,,,,,,,,,,,,,,,,,,,,,,,Q2_i3,Q2_i2,Q2_i1,Same amount,Option 2,Option 1,same,opt2,correct,,,,,,,,,,,,,,,,,,,,,,,,,,,,,,,,click #Q2_i1,false,,,,,,,,,415263.254999998,415262.6799999998,408312.018,408316.90000000526,408319.124,415269.771,,,,
Q2_correct,html.Screen,2_4_3_4_3,2021-05-24T16:10:21.199Z,,,,,,,,,,,,,,,,,,,,,,,,,,,,,,,,,,,,,,,,,,,,,,,,,,,,,,,,,,,,,,,,,,,,,,,,,,,,,,,,,,,,,,,,,,,,,,,,,,,,,,,,,,,,,,,,,,,,1505.3740000068792,,response,,,,,,,,,,,,,,,,,,,,,,,,,,,,,,,,,,,,,,,,,,,,,,,,,,,,,,,,,,,,,,,,,,,,,,,,,,,,,keypress,false,,,,,,,,,416775.49500000896,416775.1450000069,415262.828,415263.3449999994,415269.771,416776.595,,,,
Q4,html.Screen,2_4_3_4_4,2021-05-24T16:10:44.087Z,,,,,,,,,,,,,,,,,,,,,,,,,,,,,,,,,,,,,,,,,,,,,,,,,,,,,,,,,,,,,,,,,,,,,,,,,,,,,,,,,,,,,,,,,,,,,,,,,,,,,,,,,,,,,,,,,,,,22886.465000006254,,response,,,,,,,,,,,,,,,,,,,,,,,,,,,,,,,,,,,,,,,,,,,,,,Q4_i1,Q4_i2,Q4_i4,Q4_i3,Press the arrow key that corresponds with the snack option I prefer,Indicate the number of food items in each snack option,Press the space key,Press the arrow key that corresponds with the snack option with more food items,correct,indicate,pressspace,morefood,,,,,,,,,,,,,,,,,,,,click #Q4_i1,false,,,,,,,,,439663.6050000088,439663.0600000062,416769.531,416775.56000000914,416776.595,439669.991,,,,
Q4_correct,html.Screen,2_4_3_4_5,2021-05-24T16:10:45.529Z,,,,,,,,,,,,,,,,,,,,,,,,,,,,,,,,,,,,,,,,,,,,,,,,,,,,,,,,,,,,,,,,,,,,,,,,,,,,,,,,,,,,,,,,,,,,,,,,,,,,,,,,,,,,,,,,,,,,1435.0290000027162,,response,,,,,,,,,,,,,,,,,,,,,,,,,,,,,,,,,,,,,,,,,,,,,,,,,,,,,,,,,,,,,,,,,,,,,,,,,,,,,keypress,false,,,,,,,,,441105.3600000014,441105.0200000027,439663.063,439663.6900000012,439669.991,441107.364,,,,
Q5,html.Screen,2_4_3_4_6,2021-05-24T16:10:57.436Z,,,,,,,,,,,,,,,,,,,,,,,,,,,,,,,,,,,,,,,,,,,,,,,,,,,,,,,,,,,,,,,,,,,,,,,,,,,,,,,,,,,,,,,,,,,,,,,,,,,,,,,,,,,,,,,,,,,,11905.086000009265,,response,,,,,,,,,,,,,,,,,,,,,,,,,,,,,,,,,,,,,,,,,,,,,,,,,,,,,,,,,,Q5_i3,Q5_i2,Q5_i4,Q5_i1,There are more slices of kiwi in snack Option 1,There are more pieces of chocolate in snack Option 2,Snack Option 1 has been chosen,Snack Option 2 has been chosen,morekiwi1,morechoc2,chose1,correct,,,,,,,,click #Q5_i1,false,,,,,,,,,453012.9600000073,453012.45000000927,441100.344,441105.42000000714,441107.364,453015.79,,,,
Q5_correct,html.Screen,2_4_3_4_7,2021-05-24T16:10:58.153Z,,,,,,,,,,,,,,,,,,,,,,,,,,,,,,,,,,,,,,,,,,,,,,,,,,,,,,,,,,,,,,,,,,,,,,,,,,,,,,,,,,,,,,,,,,,,,,,,,,,,,,,,,,,,,,,,,,,,713.4649999983958,,response,,,,,,,,,,,,,,,,,,,,,,,,,,,,,,,,,,,,,,,,,,,,,,,,,,,,,,,,,,,,,,,,,,,,,,,,,,,,,keypress,false,,,,,,,,,453729.640000005,453729.2549999984,453008.872,453013.05000000866,453015.79,453731.011,,,,
practice_sequence,flow.Sequence,2_4_3_4,2021-05-24T16:10:58.153Z,,,,,,,,,,,,,,,,,,,,,,,,,,,,,,,,,,,,,,,,,,,,,,,,,,,,,,,,,,,,,,,,,,,,,,,,,,,,,,,,,,,,,,,,,,,,,,,,,,,,,,,,,,,,,,,,,,,,59297.53699999838,,completion,,,,,,,,,,,,,,,,,,,,,,,,,,,,,,,,,,,,,,,,,,,,,,,,,,,,,,,,,,,,,,,,,,,,,,,,,,,,,,false,,,,,,,,,453729.7300000064,453729.2549999984,394423.656,394427.1399999998,394431.718,453731.011,,,,
final_instru,html.Screen,2_4_3_5,2021-05-24T16:11:30.707Z,,,,,,,,,,,,,,,,,,,,,,,,,,,,,,,,,,,,,,,,,,,,,,,,,,,,,,,,,,,,,,,,,,,,,,,,,,,,,,,,,,,,,,,,,,,,,,,,,,,,,,,,,,,,,,,,,,,,32552.709000006726,,done,,,,,,,,,,,,,,,,,,,,,,,,,,,,,,,,,,,,,,,,,,,,,,,,,,,,,,,,,,,,,,,,,,,,,,,,,,,,,,false,,,,,,,,,486283.8699999993,486283.7200000067,453724.017,453729.76500001096,453731.011,486290.074,,,,
blank_screen,canvas.Screen,2_4_3_6_0,2021-05-24T16:11:32.706Z,,,,,,,,,,,,,,,,,,,,,,,,,,,,,,,,,,,,,,,,,,,,,,,,,,,,,,,,,,,,,,,,,,,,,,,,,,,,,,,,,,,,,,,,,,,,,,,,,,,,,,,,,,,,,,,,,,,,2020.6609999999637,,timeout,,,,,,,,,,,,,,,,,,,,,,,,,,,,,,,,,,,,,,,,,,,,,,,,,,,,,,,,,,,,,,,,,,,,,,,,,,,,,,false,,,,,,,,,488283.2650000055,488282.94,486281.636,486283.97000000405,486290.074,488310.735,,,,
fixCross,canvas.Screen,2_4_3_6_1_0_0_0_0_0_0,2021-05-24T16:11:33.477Z,,,blank.png,"[""sausage.png""]",blank.png,blank.png,blank.png,blank.png,blank.png,blank.png,blank.png,blank.png,blank.png,blank.png,blank.png,,,,,,,,,,,,,,,,,,,,,,,,,,,,,"[""sausage.png""]","[""cucumber.png""]",PB17.png,,,,,,,,,,,0,6,"[""cucumber.png""]","[""cucumber.png""]","[""cucumber.png""]","[""cucumber.png""]","[""cucumber.png""]","[""cucumber.png""]",blank.png,PB18.png,PB18.png,"[""cucumber.png""]","[""cucumber.png""]","[""cucumber.png""]","[""cucumber.png""]","[""cucumber.png""]","[""cucumber.png""]","[""cucumber.png""]","[""cucumber.png""]","[""cucumber.png""]","[""cucumber.png""]","[""cucumber.png""]","[""cucumber.png""]",1,"[""sausage.png""]",blank.png,blank.png,blank.png,6,"[""cucumber.png""]","[""cucumber.png""]","[""cucumber.png""]","[""cucumber.png""]","[""cucumber.png""]","[""cucumber.png""]",PB17.png,,,,,,,,,,,1,,,,,,,,,,,,,1041.545000000042,,timeout,,,,,,,,,,,,,3,,,,,,,,,,,,,,,,,,,,,,,,,,,,,,,,,,,,,,,,,,,,,,,,,,,,,,,,,"[""cucumber.png""]","[""sausage.png""]",,,,5,,,false,,1,,,,,,,489054.0350000083,489053.688,488282.94,488309.8200000095,488310.735,489352.28,1,,,
timeout,canvas.Screen,2_4_3_6_1_0_0_0_0_0_1,2021-05-24T16:11:34.268Z,,,blank.png,"[""sausage.png""]",blank.png,blank.png,blank.png,blank.png,blank.png,blank.png,blank.png,blank.png,blank.png,blank.png,blank.png,,,,,,,,,,,,,,,,,,,,,,,,,,,,,"[""sausage.png""]","[""cucumber.png""]",PB17.png,,,,,,,,,,,0,6,"[""cucumber.png""]","[""cucumber.png""]","[""cucumber.png""]","[""cucumber.png""]","[""cucumber.png""]","[""cucumber.png""]",blank.png,PB18.png,PB18.png,"[""cucumber.png""]","[""cucumber.png""]","[""cucumber.png""]","[""cucumber.png""]","[""cucumber.png""]","[""cucumber.png""]","[""cucumber.png""]","[""cucumber.png""]","[""cucumber.png""]","[""cucumber.png""]","[""cucumber.png""]","[""cucumber.png""]",1,"[""sausage.png""]",blank.png,blank.png,blank.png,6,"[""cucumber.png""]","[""cucumber.png""]","[""cucumber.png""]","[""cucumber.png""]","[""cucumber.png""]","[""cucumber.png""]",PB17.png,,,,,,,,,,,1,,,,,,,,,,,,,861.0069999999832,,timeout,,,,,,,,,,,,,3,,,,,,,,,,,,,,,,,,,,,,,,,,,,,,,,,,,,,,,,,,,,,,,,,,,,,,,,,"[""cucumber.png""]","[""sausage.png""]",,,,5,,,false,,1,,,,,,,489845.63500000513,489845.267,489053.688,489408.2699999999,489352.28,490213.287,,,,
choice,canvas.Screen,2_4_3_6_1_0_0_0_0_0_2,2021-05-24T16:11:37.065Z,,,blank.png,"[""sausage.png""]",blank.png,blank.png,blank.png,blank.png,blank.png,blank.png,blank.png,blank.png,blank.png,blank.png,blank.png,,,,,,,,,,,,,,,,,,,,,,,,,,,,,"[""sausage.png""]","[""cucumber.png""]",PB17.png,,,,,,,,,,,0,6,"[""cucumber.png""]","[""cucumber.png""]","[""cucumber.png""]","[""cucumber.png""]","[""cucumber.png""]","[""cucumber.png""]",blank.png,PB18.png,PB18.png,"[""cucumber.png""]","[""cucumber.png""]","[""cucumber.png""]","[""cucumber.png""]","[""cucumber.png""]","[""cucumber.png""]","[""cucumber.png""]","[""cucumber.png""]","[""cucumber.png""]","[""cucumber.png""]","[""cucumber.png""]","[""cucumber.png""]",1,"[""sausage.png""]",blank.png,blank.png,blank.png,6,"[""cucumber.png""]","[""cucumber.png""]","[""cucumber.png""]","[""cucumber.png""]","[""cucumber.png""]","[""cucumber.png""]",PB17.png,,,,,,,,,,,1,,,,,,,,,,,,,2427.238000009791,,response,,,,,,,,,,,,,3,,,,,,,,,,,,,,,,,,,,,,,,,,,,,,,,,,,,,,,,,,,,,,,,,,,,,,,,,"[""cucumber.png""]","[""sausage.png""]",,,,5,left,keydown(ArrowLeft),false,,1,,,,,,,492641.91000000574,492640.5250000098,489845.267,490216.465000005,490213.287,492998.344,,1,,
square,canvas.Screen,2_4_3_6_1_0_0_0_0_0_3,2021-05-24T16:11:38.414Z,,,blank.png,"[""sausage.png""]",blank.png,blank.png,blank.png,blank.png,blank.png,blank.png,blank.png,blank.png,blank.png,blank.png,blank.png,,,,,,,,,,,,,,,,,,,,,,,,,,,,,"[""sausage.png""]","[""cucumber.png""]",PB17.png,,,,,,,,,,,0,6,"[""cucumber.png""]","[""cucumber.png""]","[""cucumber.png""]","[""cucumber.png""]","[""cucumber.png""]","[""cucumber.png""]",blank.png,PB18.png,PB18.png,"[""cucumber.png""]","[""cucumber.png""]","[""cucumber.png""]","[""cucumber.png""]","[""cucumber.png""]","[""cucumber.png""]","[""cucumber.png""]","[""cucumber.png""]","[""cucumber.png""]","[""cucumber.png""]","[""cucumber.png""]","[""cucumber.png""]",1,"[""sausage.png""]",blank.png,blank.png,blank.png,6,"[""cucumber.png""]","[""cucumber.png""]","[""cucumber.png""]","[""cucumber.png""]","[""cucumber.png""]","[""cucumber.png""]",PB17.png,,,,,,,,,,,1,,,#33ff3f,#808080,,,,,,,,,999.255999999994,,timeout,,,,,,,,,,,,,3,,,,,,,,,,,,,,,,,,,,,,,,,,,,,,,,,,,,,,,,,,,,,,,,,,,,,,,,,"[""cucumber.png""]","[""sausage.png""]",,,,5,,,false,,1,,,,,black,white,493991.13000000943,493990.669,492976.62,492982.9949999985,492998.344,493997.6,,,,
ITI_late,canvas.Screen,2_4_3_6_1_0_0_0_0_0_4,2021-05-24T16:11:38.664Z,,,blank.png,"[""sausage.png""]",blank.png,blank.png,blank.png,blank.png,blank.png,blank.png,blank.png,blank.png,blank.png,blank.png,blank.png,,,,,,,,,,,,,,,,,,,,,,,,,,,,,"[""sausage.png""]","[""cucumber.png""]",PB17.png,,,,,,,,,,,0,6,"[""cucumber.png""]","[""cucumber.png""]","[""cucumber.png""]","[""cucumber.png""]","[""cucumber.png""]","[""cucumber.png""]",blank.png,PB18.png,PB18.png,"[""cucumber.png""]","[""cucumber.png""]","[""cucumber.png""]","[""cucumber.png""]","[""cucumber.png""]","[""cucumber.png""]","[""cucumber.png""]","[""cucumber.png""]","[""cucumber.png""]","[""cucumber.png""]","[""cucumber.png""]","[""cucumber.png""]",1,"[""sausage.png""]",blank.png,blank.png,blank.png,6,"[""cucumber.png""]","[""cucumber.png""]","[""cucumber.png""]","[""cucumber.png""]","[""cucumber.png""]","[""cucumber.png""]",PB17.png,,,,,,,,,,,1,,,,,,,,,,,,,250.00800000003073,,timeout,,,,,,,,,,,,white,3,,,,,,,,,,,,,,,,,,,,,,,,,,,,,,,,,,,,,,,,,,,,,,,,,,,,,,,,,"[""cucumber.png""]","[""sausage.png""]",,,,5,,,false,,1,,,,,,,494240.9200000111,494240.641,493990.669,493992.2050000023,493997.6,494247.608,,,,
choice_sequence,flow.Sequence,2_4_3_6_1_0_0_0_0_0,2021-05-24T16:11:38.664Z,,,blank.png,"[""sausage.png""]",blank.png,blank.png,blank.png,blank.png,blank.png,blank.png,blank.png,blank.png,blank.png,blank.png,blank.png,,,,,,,,,,,,,,,,,,,,,,,,,,,,,"[""sausage.png""]","[""cucumber.png""]",PB17.png,,,,,,,,,,,0,6,"[""cucumber.png""]","[""cucumber.png""]","[""cucumber.png""]","[""cucumber.png""]","[""cucumber.png""]","[""cucumber.png""]",blank.png,PB18.png,PB18.png,"[""cucumber.png""]","[""cucumber.png""]","[""cucumber.png""]","[""cucumber.png""]","[""cucumber.png""]","[""cucumber.png""]","[""cucumber.png""]","[""cucumber.png""]","[""cucumber.png""]","[""cucumber.png""]","[""cucumber.png""]","[""cucumber.png""]",1,"[""sausage.png""]",blank.png,blank.png,blank.png,6,"[""cucumber.png""]","[""cucumber.png""]","[""cucumber.png""]","[""cucumber.png""]","[""cucumber.png""]","[""cucumber.png""]",PB17.png,,,,,,,,,,,1,,,,,,,,,,,,,5929.906000000017,,completion,,,,,,,,,,,,,3,,,,,,,,,,,,,,,,,,,,,,,,,,,,,,,,,,,,,,,,,,,,,,,,,,,,,,,,,"[""cucumber.png""]","[""sausage.png""]",,,,5,,,false,,1,,,,,,,494241.2200000108,494240.641,488282.94,488309.0550000052,488310.735,494247.608,,,,
fixCross,canvas.Screen,2_4_3_6_1_0_0_0_0_1_0,2021-05-24T16:11:39.011Z,,,blank.png,"[""sausage.png""]",blank.png,blank.png,blank.png,blank.png,blank.png,blank.png,blank.png,blank.png,blank.png,blank.png,blank.png,,,,,,,,,,,,,,,,,,,,,,,,,,,,,"[""sausage.png""]","[""cucumber.png""]",PB15.png,,,,,,,,,,,0,6,"[""cucumber.png""]","[""cucumber.png""]","[""cucumber.png""]","[""cucumber.png""]","[""cucumber.png""]","[""cucumber.png""]",blank.png,PB18.png,PB18.png,"[""cucumber.png""]","[""cucumber.png""]","[""cucumber.png""]","[""cucumber.png""]",blank.png,blank.png,"[""cucumber.png""]","[""cucumber.png""]","[""cucumber.png""]","[""cucumber.png""]","[""cucumber.png""]","[""cucumber.png""]",1,"[""sausage.png""]",blank.png,blank.png,blank.png,4,"[""cucumber.png""]","[""cucumber.png""]","[""cucumber.png""]","[""cucumber.png""]",blank.png,blank.png,PB15.png,,,,,,,,,,,1,,,,,,,,,,,,,652.7000000000116,,timeout,,,,,,,,,,,,,3,,,,,,,,,,,,,,,,,,,,,,,,,,,,,,,,,,,,,,,,,,,,,,,,,,,,,,,,,"[""cucumber.png""]","[""sausage.png""]",,,,5,,,false,,1,,,,,,,494588.14500000153,494587.831,494240.641,494243.8000000111,494247.608,494900.308,2,,,
timeout,canvas.Screen,2_4_3_6_1_0_0_0_0_1_1,2021-05-24T16:11:39.817Z,,,blank.png,"[""sausage.png""]",blank.png,blank.png,blank.png,blank.png,blank.png,blank.png,blank.png,blank.png,blank.png,blank.png,blank.png,,,,,,,,,,,,,,,,,,,,,,,,,,,,,"[""sausage.png""]","[""cucumber.png""]",PB15.png,,,,,,,,,,,0,6,"[""cucumber.png""]","[""cucumber.png""]","[""cucumber.png""]","[""cucumber.png""]","[""cucumber.png""]","[""cucumber.png""]",blank.png,PB18.png,PB18.png,"[""cucumber.png""]","[""cucumber.png""]","[""cucumber.png""]","[""cucumber.png""]",blank.png,blank.png,"[""cucumber.png""]","[""cucumber.png""]","[""cucumber.png""]","[""cucumber.png""]","[""cucumber.png""]","[""cucumber.png""]",1,"[""sausage.png""]",blank.png,blank.png,blank.png,4,"[""cucumber.png""]","[""cucumber.png""]","[""cucumber.png""]","[""cucumber.png""]",blank.png,blank.png,PB15.png,,,,,,,,,,,1,,,,,,,,,,,,,812.4089999999851,,timeout,,,,,,,,,,,,,3,,,,,,,,,,,,,,,,,,,,,,,,,,,,,,,,,,,,,,,,,,,,,,,,,,,,,,,,,"[""cucumber.png""]","[""sausage.png""]",,,,5,,,false,,1,,,,,,,495393.8250000065,495393.303,494587.831,494902.5200000033,494900.308,495712.717,,,,
choice,canvas.Screen,2_4_3_6_1_0_0_0_0_1_2,2021-05-24T16:11:44.590Z,,,blank.png,"[""sausage.png""]",blank.png,blank.png,blank.png,blank.png,blank.png,blank.png,blank.png,blank.png,blank.png,blank.png,blank.png,,,,,,,,,,,,,,,,,,,,,,,,,,,,,"[""sausage.png""]","[""cucumber.png""]",PB15.png,,,,,,,,,,,0,6,"[""cucumber.png""]","[""cucumber.png""]","[""cucumber.png""]","[""cucumber.png""]","[""cucumber.png""]","[""cucumber.png""]",blank.png,PB18.png,PB18.png,"[""cucumber.png""]","[""cucumber.png""]","[""cucumber.png""]","[""cucumber.png""]",blank.png,blank.png,"[""cucumber.png""]","[""cucumber.png""]","[""cucumber.png""]","[""cucumber.png""]","[""cucumber.png""]","[""cucumber.png""]",1,"[""sausage.png""]",blank.png,blank.png,blank.png,4,"[""cucumber.png""]","[""cucumber.png""]","[""cucumber.png""]","[""cucumber.png""]",blank.png,blank.png,PB15.png,,,,,,,,,,,1,,,,,,,,,,,,,4453.068000004685,,response,,,,,,,,,,,,,3,,,,,,,,,,,,,,,,,,,,,,,,,,,,,,,,,,,,,,,,,,,,,,,,,,,,,,,,,"[""cucumber.png""]","[""sausage.png""]",,,,5,right,keydown(ArrowRight),false,,1,,,,,,,500167.11500000383,500165.7850000047,495393.303,495706.7700000043,495712.717,500483.142,,2,,
square,canvas.Screen,2_4_3_6_1_0_0_0_0_1_3,2021-05-24T16:11:45.899Z,,,blank.png,"[""sausage.png""]",blank.png,blank.png,blank.png,blank.png,blank.png,blank.png,blank.png,blank.png,blank.png,blank.png,blank.png,,,,,,,,,,,,,,,,,,,,,,,,,,,,,"[""sausage.png""]","[""cucumber.png""]",PB15.png,,,,,,,,,,,0,6,"[""cucumber.png""]","[""cucumber.png""]","[""cucumber.png""]","[""cucumber.png""]","[""cucumber.png""]","[""cucumber.png""]",blank.png,PB18.png,PB18.png,"[""cucumber.png""]","[""cucumber.png""]","[""cucumber.png""]","[""cucumber.png""]",blank.png,blank.png,"[""cucumber.png""]","[""cucumber.png""]","[""cucumber.png""]","[""cucumber.png""]","[""cucumber.png""]","[""cucumber.png""]",1,"[""sausage.png""]",blank.png,blank.png,blank.png,4,"[""cucumber.png""]","[""cucumber.png""]","[""cucumber.png""]","[""cucumber.png""]",blank.png,blank.png,PB15.png,,,,,,,,,,,1,,,#808080,#33ff3f,,,,,,,,,999.7810000000172,,timeout,,,,,,,,,,,,,3,,,,,,,,,,,,,,,,,,,,,,,,,,,,,,,,,,,,,,,,,,,,,,,,,,,,,,,,,"[""cucumber.png""]","[""sausage.png""]",,,,5,,,false,,1,,,,,white,black,501476.39999999956,501475.989,500475.643,500477.01000000234,500483.142,501482.923,,,,
ITI_late,canvas.Screen,2_4_3_6_1_0_0_0_0_1_4,2021-05-24T16:11:46.649Z,,,blank.png,"[""sausage.png""]",blank.png,blank.png,blank.png,blank.png,blank.png,blank.png,blank.png,blank.png,blank.png,blank.png,blank.png,,,,,,,,,,,,,,,,,,,,,,,,,,,,,"[""sausage.png""]","[""cucumber.png""]",PB15.png,,,,,,,,,,,0,6,"[""cucumber.png""]","[""cucumber.png""]","[""cucumber.png""]","[""cucumber.png""]","[""cucumber.png""]","[""cucumber.png""]",blank.png,PB18.png,PB18.png,"[""cucumber.png""]","[""cucumber.png""]","[""cucumber.png""]","[""cucumber.png""]",blank.png,blank.png,"[""cucumber.png""]","[""cucumber.png""]","[""cucumber.png""]","[""cucumber.png""]","[""cucumber.png""]","[""cucumber.png""]",1,"[""sausage.png""]",blank.png,blank.png,blank.png,4,"[""cucumber.png""]","[""cucumber.png""]","[""cucumber.png""]","[""cucumber.png""]",blank.png,blank.png,PB15.png,,,,,,,,,,,1,,,,,,,,,,,,,749.9239999999991,,timeout,,,,,,,,,,,,white,3,,,,,,,,,,,,,,,,,,,,,,,,,,,,,,,,,,,,,,,,,,,,,,,,,,,,,,,,,"[""cucumber.png""]","[""sausage.png""]",,,,5,,,false,,1,,,,,,,502226.28500001156,502225.917,501475.989,501477.3700000078,501482.923,502232.847,,,,
choice_sequence,flow.Sequence,2_4_3_6_1_0_0_0_0_1,2021-05-24T16:11:46.649Z,,,blank.png,"[""sausage.png""]",blank.png,blank.png,blank.png,blank.png,blank.png,blank.png,blank.png,blank.png,blank.png,blank.png,blank.png,,,,,,,,,,,,,,,,,,,,,,,,,,,,,"[""sausage.png""]","[""cucumber.png""]",PB15.png,,,,,,,,,,,0,6,"[""cucumber.png""]","[""cucumber.png""]","[""cucumber.png""]","[""cucumber.png""]","[""cucumber.png""]","[""cucumber.png""]",blank.png,PB18.png,PB18.png,"[""cucumber.png""]","[""cucumber.png""]","[""cucumber.png""]","[""cucumber.png""]",blank.png,blank.png,"[""cucumber.png""]","[""cucumber.png""]","[""cucumber.png""]","[""cucumber.png""]","[""cucumber.png""]","[""cucumber.png""]",1,"[""sausage.png""]",blank.png,blank.png,blank.png,4,"[""cucumber.png""]","[""cucumber.png""]","[""cucumber.png""]","[""cucumber.png""]",blank.png,blank.png,PB15.png,,,,,,,,,,,1,,,,,,,,,,,,,7978.309000000008,,completion,,,,,,,,,,,,,3,,,,,,,,,,,,,,,,,,,,,,,,,,,,,,,,,,,,,,,,,,,,,,,,,,,,,,,,,"[""cucumber.png""]","[""sausage.png""]",,,,5,,,false,,1,,,,,,,502226.5699999989,502225.917,494240.641,494243.3250000031,494247.608,502232.847,,,,
fixCross,canvas.Screen,2_4_3_6_1_0_0_0_0_2_0,2021-05-24T16:11:46.948Z,,,blank.png,blank.png,blank.png,blank.png,blank.png,blank.png,blank.png,"[""sausage.png""]",blank.png,blank.png,blank.png,blank.png,blank.png,,,,,,,,,,,,,,,,,,,,,,,,,,,,,"[""sausage.png""]","[""cucumber.png""]",PB18.png,,,,,,,,,,,0,6,"[""cucumber.png""]","[""cucumber.png""]","[""cucumber.png""]","[""cucumber.png""]","[""cucumber.png""]","[""cucumber.png""]",blank.png,PB18.png,PB16.png,"[""cucumber.png""]","[""cucumber.png""]","[""cucumber.png""]","[""cucumber.png""]","[""cucumber.png""]","[""cucumber.png""]","[""cucumber.png""]","[""cucumber.png""]","[""cucumber.png""]","[""cucumber.png""]","[""cucumber.png""]",blank.png,1,"[""sausage.png""]",blank.png,blank.png,blank.png,5,"[""cucumber.png""]","[""cucumber.png""]","[""cucumber.png""]","[""cucumber.png""]","[""cucumber.png""]",blank.png,PB16.png,,,,,,,,,,,1,,,,,,,,,,,,,618.1529999999912,,timeout,,,,,,,,,,,,,4,,,,,,,,,,,,,,,,,,,,,,,,,,,,,,,,,,,,,,,,,,,,,,,,,,,,,,,,,"[""cucumber.png""]","[""sausage.png""]",,,,5,,,false,,1,,,,,,,502524.89500000956,502524.5,502225.917,502228.98500000883,502232.847,502851,3,,,
timeout,canvas.Screen,2_4_3_6_1_0_0_0_0_2_1,2021-05-24T16:11:47.767Z,,,blank.png,blank.png,blank.png,blank.png,blank.png,blank.png,blank.png,"[""sausage.png""]",blank.png,blank.png,blank.png,blank.png,blank.png,,,,,,,,,,,,,,,,,,,,,,,,,,,,,"[""sausage.png""]","[""cucumber.png""]",PB18.png,,,,,,,,,,,0,6,"[""cucumber.png""]","[""cucumber.png""]","[""cucumber.png""]","[""cucumber.png""]","[""cucumber.png""]","[""cucumber.png""]",blank.png,PB18.png,PB16.png,"[""cucumber.png""]","[""cucumber.png""]","[""cucumber.png""]","[""cucumber.png""]","[""cucumber.png""]","[""cucumber.png""]","[""cucumber.png""]","[""cucumber.png""]","[""cucumber.png""]","[""cucumber.png""]","[""cucumber.png""]",blank.png,1,"[""sausage.png""]",blank.png,blank.png,blank.png,5,"[""cucumber.png""]","[""cucumber.png""]","[""cucumber.png""]","[""cucumber.png""]","[""cucumber.png""]",blank.png,PB16.png,,,,,,,,,,,1,,,,,,,,,,,,,826.1790000000037,,timeout,,,,,,,,,,,,,4,,,,,,,,,,,,,,,,,,,,,,,,,,,,,,,,,,,,,,,,,,,,,,,,,,,,,,,,,"[""cucumber.png""]","[""sausage.png""]",,,,5,,,false,,1,,,,,,,503344.15000000445,503343.849,502524.5,502856.495,502851,503677.179,,,,
choice,canvas.Screen,2_4_3_6_1_0_0_0_0_2_2,2021-05-24T16:11:49.240Z,,,blank.png,blank.png,blank.png,blank.png,blank.png,blank.png,blank.png,"[""sausage.png""]",blank.png,blank.png,blank.png,blank.png,blank.png,,,,,,,,,,,,,,,,,,,,,,,,,,,,,"[""sausage.png""]","[""cucumber.png""]",PB18.png,,,,,,,,,,,0,6,"[""cucumber.png""]","[""cucumber.png""]","[""cucumber.png""]","[""cucumber.png""]","[""cucumber.png""]","[""cucumber.png""]",blank.png,PB18.png,PB16.png,"[""cucumber.png""]","[""cucumber.png""]","[""cucumber.png""]","[""cucumber.png""]","[""cucumber.png""]","[""cucumber.png""]","[""cucumber.png""]","[""cucumber.png""]","[""cucumber.png""]","[""cucumber.png""]","[""cucumber.png""]",blank.png,1,"[""sausage.png""]",blank.png,blank.png,blank.png,5,"[""cucumber.png""]","[""cucumber.png""]","[""cucumber.png""]","[""cucumber.png""]","[""cucumber.png""]",blank.png,PB16.png,,,,,,,,,,,1,,,,,,,,,,,,,1139.035999998916,,response,,,,,,,,,,,,,4,,,,,,,,,,,,,,,,,,,,,,,,,,,,,,,,,,,,,,,,,,,,,,,,,,,,,,,,,"[""cucumber.png""]","[""sausage.png""]",,,,5,right,keydown(ArrowRight),false,,1,,,,,,,504816.92500000645,504816.2149999989,503343.849,503672.4400000094,503677.179,505142.288,,3,,
square,canvas.Screen,2_4_3_6_1_0_0_0_0_2_3,2021-05-24T16:11:50.559Z,,,blank.png,blank.png,blank.png,blank.png,blank.png,blank.png,blank.png,"[""sausage.png""]",blank.png,blank.png,blank.png,blank.png,blank.png,,,,,,,,,,,,,,,,,,,,,,,,,,,,,"[""sausage.png""]","[""cucumber.png""]",PB18.png,,,,,,,,,,,0,6,"[""cucumber.png""]","[""cucumber.png""]","[""cucumber.png""]","[""cucumber.png""]","[""cucumber.png""]","[""cucumber.png""]",blank.png,PB18.png,PB16.png,"[""cucumber.png""]","[""cucumber.png""]","[""cucumber.png""]","[""cucumber.png""]","[""cucumber.png""]","[""cucumber.png""]","[""cucumber.png""]","[""cucumber.png""]","[""cucumber.png""]","[""cucumber.png""]","[""cucumber.png""]",blank.png,1,"[""sausage.png""]",blank.png,blank.png,blank.png,5,"[""cucumber.png""]","[""cucumber.png""]","[""cucumber.png""]","[""cucumber.png""]","[""cucumber.png""]",blank.png,PB16.png,,,,,,,,,,,1,,,#808080,#33ff3f,,,,,,,,,999.8699999999953,,timeout,,,,,,,,,,,,,4,,,,,,,,,,,,,,,,,,,,,,,,,,,,,,,,,,,,,,,,,,,,,,,,,,,,,,,,,"[""cucumber.png""]","[""sausage.png""]",,,,5,,,false,,1,,,,,white,black,506135.7649999991,506135.225,505135.199,505136.5000000078,505142.288,506142.158,,,,
ITI_late,canvas.Screen,2_4_3_6_1_0_0_0_0_2_4,2021-05-24T16:11:51.308Z,,,blank.png,blank.png,blank.png,blank.png,blank.png,blank.png,blank.png,"[""sausage.png""]",blank.png,blank.png,blank.png,blank.png,blank.png,,,,,,,,,,,,,,,,,,,,,,,,,,,,,"[""sausage.png""]","[""cucumber.png""]",PB18.png,,,,,,,,,,,0,6,"[""cucumber.png""]","[""cucumber.png""]","[""cucumber.png""]","[""cucumber.png""]","[""cucumber.png""]","[""cucumber.png""]",blank.png,PB18.png,PB16.png,"[""cucumber.png""]","[""cucumber.png""]","[""cucumber.png""]","[""cucumber.png""]","[""cucumber.png""]","[""cucumber.png""]","[""cucumber.png""]","[""cucumber.png""]","[""cucumber.png""]","[""cucumber.png""]","[""cucumber.png""]",blank.png,1,"[""sausage.png""]",blank.png,blank.png,blank.png,5,"[""cucumber.png""]","[""cucumber.png""]","[""cucumber.png""]","[""cucumber.png""]","[""cucumber.png""]",blank.png,PB16.png,,,,,,,,,,,1,,,,,,,,,,,,,749.9199999999837,,timeout,,,,,,,,,,,,white,4,,,,,,,,,,,,,,,,,,,,,,,,,,,,,,,,,,,,,,,,,,,,,,,,,,,,,,,,,"[""cucumber.png""]","[""sausage.png""]",,,,5,,,false,,1,,,,,,,506885.4649999994,506885.143,506135.225,506136.8000000075,506142.158,506892.078,,,,
choice_sequence,flow.Sequence,2_4_3_6_1_0_0_0_0_2,2021-05-24T16:11:51.309Z,,,blank.png,blank.png,blank.png,blank.png,blank.png,blank.png,blank.png,"[""sausage.png""]",blank.png,blank.png,blank.png,blank.png,blank.png,,,,,,,,,,,,,,,,,,,,,,,,,,,,,"[""sausage.png""]","[""cucumber.png""]",PB18.png,,,,,,,,,,,0,6,"[""cucumber.png""]","[""cucumber.png""]","[""cucumber.png""]","[""cucumber.png""]","[""cucumber.png""]","[""cucumber.png""]",blank.png,PB18.png,PB16.png,"[""cucumber.png""]","[""cucumber.png""]","[""cucumber.png""]","[""cucumber.png""]","[""cucumber.png""]","[""cucumber.png""]","[""cucumber.png""]","[""cucumber.png""]","[""cucumber.png""]","[""cucumber.png""]","[""cucumber.png""]",blank.png,1,"[""sausage.png""]",blank.png,blank.png,blank.png,5,"[""cucumber.png""]","[""cucumber.png""]","[""cucumber.png""]","[""cucumber.png""]","[""cucumber.png""]",blank.png,PB16.png,,,,,,,,,,,1,,,,,,,,,,,,,4652.295999999973,,completion,,,,,,,,,,,,,4,,,,,,,,,,,,,,,,,,,,,,,,,,,,,,,,,,,,,,,,,,,,,,,,,,,,,,,,,"[""cucumber.png""]","[""sausage.png""]",,,,5,,,false,,1,,,,,,,506885.78000001144,506885.143,502225.917,502228.5499999998,502232.847,506892.078,,,,
fixCross,canvas.Screen,2_4_3_6_1_0_0_0_0_3_0,2021-05-24T16:11:51.558Z,,,blank.png,"[""sausage.png""]",blank.png,blank.png,blank.png,blank.png,blank.png,blank.png,blank.png,blank.png,blank.png,blank.png,blank.png,,,,,,,,,,,,,,,,,,,,,,,,,,,,,"[""sausage.png""]","[""cucumber.png""]",PB12.png,,,,,,,,,,,0,6,"[""cucumber.png""]","[""cucumber.png""]","[""cucumber.png""]","[""cucumber.png""]","[""cucumber.png""]","[""cucumber.png""]",blank.png,PB18.png,PB18.png,"[""cucumber.png""]","[""cucumber.png""]",blank.png,blank.png,blank.png,blank.png,"[""cucumber.png""]","[""cucumber.png""]","[""cucumber.png""]","[""cucumber.png""]","[""cucumber.png""]","[""cucumber.png""]",1,"[""sausage.png""]",blank.png,blank.png,blank.png,2,"[""cucumber.png""]","[""cucumber.png""]",blank.png,blank.png,blank.png,blank.png,PB12.png,,,,,,,,,,,1,,,,,,,,,,,,,520.7950000000419,,timeout,,,,,,,,,,,,,3,,,,,,,,,,,,,,,,,,,,,,,,,,,,,,,,,,,,,,,,,,,,,,,,,,,,,,,,,"[""cucumber.png""]","[""sausage.png""]",,,,5,,,false,,1,,,,,,,507135.4050000082,507135.123,506885.143,506888.3599999972,506892.078,507412.873,4,,,
timeout,canvas.Screen,2_4_3_6_1_0_0_0_0_3_1,2021-05-24T16:11:52.329Z,,,blank.png,"[""sausage.png""]",blank.png,blank.png,blank.png,blank.png,blank.png,blank.png,blank.png,blank.png,blank.png,blank.png,blank.png,,,,,,,,,,,,,,,,,,,,,,,,,,,,,"[""sausage.png""]","[""cucumber.png""]",PB12.png,,,,,,,,,,,0,6,"[""cucumber.png""]","[""cucumber.png""]","[""cucumber.png""]","[""cucumber.png""]","[""cucumber.png""]","[""cucumber.png""]",blank.png,PB18.png,PB18.png,"[""cucumber.png""]","[""cucumber.png""]",blank.png,blank.png,blank.png,blank.png,"[""cucumber.png""]","[""cucumber.png""]","[""cucumber.png""]","[""cucumber.png""]","[""cucumber.png""]","[""cucumber.png""]",1,"[""sausage.png""]",blank.png,blank.png,blank.png,2,"[""cucumber.png""]","[""cucumber.png""]",blank.png,blank.png,blank.png,blank.png,PB12.png,,,,,,,,,,,1,,,,,,,,,,,,,791.6549999999697,,timeout,,,,,,,,,,,,,3,,,,,,,,,,,,,,,,,,,,,,,,,,,,,,,,,,,,,,,,,,,,,,,,,,,,,,,,,"[""cucumber.png""]","[""sausage.png""]",,,,5,,,false,,1,,,,,,,507906.3000000024,507905.873,507135.123,507417.2499999986,507412.873,508204.528,,,,
choice,canvas.Screen,2_4_3_6_1_0_0_0_0_3_2,2021-05-24T16:11:52.770Z,,,blank.png,"[""sausage.png""]",blank.png,blank.png,blank.png,blank.png,blank.png,blank.png,blank.png,blank.png,blank.png,blank.png,blank.png,,,,,,,,,,,,,,,,,,,,,,,,,,,,,"[""sausage.png""]","[""cucumber.png""]",PB12.png,,,,,,,,,,,0,6,"[""cucumber.png""]","[""cucumber.png""]","[""cucumber.png""]","[""cucumber.png""]","[""cucumber.png""]","[""cucumber.png""]",blank.png,PB18.png,PB18.png,"[""cucumber.png""]","[""cucumber.png""]",blank.png,blank.png,blank.png,blank.png,"[""cucumber.png""]","[""cucumber.png""]","[""cucumber.png""]","[""cucumber.png""]","[""cucumber.png""]","[""cucumber.png""]",1,"[""sausage.png""]",blank.png,blank.png,blank.png,2,"[""cucumber.png""]","[""cucumber.png""]",blank.png,blank.png,blank.png,blank.png,PB12.png,,,,,,,,,,,1,,,,,,,,,,,,,142.23700000933604,,response,,,,,,,,,,,,,3,,,,,,,,,,,,,,,,,,,,,,,,,,,,,,,,,,,,,,,,,,,,,,,,,,,,,,,,,"[""cucumber.png""]","[""sausage.png""]",,,,5,right,keydown(ArrowRight),false,,1,,,,,,,508347.38500000094,508346.7650000093,507905.873,508197.8250000102,508204.528,508641.943,,4,,
square,canvas.Screen,2_4_3_6_1_0_0_0_0_3_3,2021-05-24T16:11:54.058Z,,,blank.png,"[""sausage.png""]",blank.png,blank.png,blank.png,blank.png,blank.png,blank.png,blank.png,blank.png,blank.png,blank.png,blank.png,,,,,,,,,,,,,,,,,,,,,,,,,,,,,"[""sausage.png""]","[""cucumber.png""]",PB12.png,,,,,,,,,,,0,6,"[""cucumber.png""]","[""cucumber.png""]","[""cucumber.png""]","[""cucumber.png""]","[""cucumber.png""]","[""cucumber.png""]",blank.png,PB18.png,PB18.png,"[""cucumber.png""]","[""cucumber.png""]",blank.png,blank.png,blank.png,blank.png,"[""cucumber.png""]","[""cucumber.png""]","[""cucumber.png""]","[""cucumber.png""]","[""cucumber.png""]","[""cucumber.png""]",1,"[""sausage.png""]",blank.png,blank.png,blank.png,2,"[""cucumber.png""]","[""cucumber.png""]",blank.png,blank.png,blank.png,blank.png,PB12.png,,,,,,,,,,,1,,,#808080,#33ff3f,,,,,,,,,999.8469999999506,,timeout,,,,,,,,,,,,,3,,,,,,,,,,,,,,,,,,,,,,,,,,,,,,,,,,,,,,,,,,,,,,,,,,,,,,,,,"[""cucumber.png""]","[""sausage.png""]",,,,5,,,false,,1,,,,,white,black,509635.2900000056,509634.861,508621.055,508622.7349999972,508641.943,509641.79,,,,
ITI_late,canvas.Screen,2_4_3_6_1_0_0_0_0_3_4,2021-05-24T16:11:54.808Z,,,blank.png,"[""sausage.png""]",blank.png,blank.png,blank.png,blank.png,blank.png,blank.png,blank.png,blank.png,blank.png,blank.png,blank.png,,,,,,,,,,,,,,,,,,,,,,,,,,,,,"[""sausage.png""]","[""cucumber.png""]",PB12.png,,,,,,,,,,,0,6,"[""cucumber.png""]","[""cucumber.png""]","[""cucumber.png""]","[""cucumber.png""]","[""cucumber.png""]","[""cucumber.png""]",blank.png,PB18.png,PB18.png,"[""cucumber.png""]","[""cucumber.png""]",blank.png,blank.png,blank.png,blank.png,"[""cucumber.png""]","[""cucumber.png""]","[""cucumber.png""]","[""cucumber.png""]","[""cucumber.png""]","[""cucumber.png""]",1,"[""sausage.png""]",blank.png,blank.png,blank.png,2,"[""cucumber.png""]","[""cucumber.png""]",blank.png,blank.png,blank.png,blank.png,PB12.png,,,,,,,,,,,1,,,,,,,,,,,,,749.9980000000214,,timeout,,,,,,,,,,,,white,3,,,,,,,,,,,,,,,,,,,,,,,,,,,,,,,,,,,,,,,,,,,,,,,,,,,,,,,,,"[""cucumber.png""]","[""sausage.png""]",,,,5,,,false,,1,,,,,,,510385.1350000041,510384.781,509634.861,509636.2400000071,509641.79,510391.788,,,,
choice_sequence,flow.Sequence,2_4_3_6_1_0_0_0_0_3,2021-05-24T16:11:54.808Z,,,blank.png,"[""sausage.png""]",blank.png,blank.png,blank.png,blank.png,blank.png,blank.png,blank.png,blank.png,blank.png,blank.png,blank.png,,,,,,,,,,,,,,,,,,,,,,,,,,,,,"[""sausage.png""]","[""cucumber.png""]",PB12.png,,,,,,,,,,,0,6,"[""cucumber.png""]","[""cucumber.png""]","[""cucumber.png""]","[""cucumber.png""]","[""cucumber.png""]","[""cucumber.png""]",blank.png,PB18.png,PB18.png,"[""cucumber.png""]","[""cucumber.png""]",blank.png,blank.png,blank.png,blank.png,"[""cucumber.png""]","[""cucumber.png""]","[""cucumber.png""]","[""cucumber.png""]","[""cucumber.png""]","[""cucumber.png""]",1,"[""sausage.png""]",blank.png,blank.png,blank.png,2,"[""cucumber.png""]","[""cucumber.png""]",blank.png,blank.png,blank.png,blank.png,PB12.png,,,,,,,,,,,1,,,,,,,,,,,,,3492.7030000000377,,completion,,,,,,,,,,,,,3,,,,,,,,,,,,,,,,,,,,,,,,,,,,,,,,,,,,,,,,,,,,,,,,,,,,,,,,,"[""cucumber.png""]","[""sausage.png""]",,,,5,,,false,,1,,,,,,,510385.47500000277,510384.781,506885.143,506887.91499999934,506892.078,510391.788,,,,
fixCross,canvas.Screen,2_4_3_6_1_0_0_0_0_4_0,2021-05-24T16:11:55.509Z,,,blank.png,blank.png,blank.png,blank.png,blank.png,blank.png,blank.png,"[""sausage.png""]",blank.png,blank.png,blank.png,blank.png,blank.png,,,,,,,,,,,,,,,,,,,,,,,,,,,,,"[""sausage.png""]","[""cucumber.png""]",PB18.png,,,,,,,,,,,0,6,"[""cucumber.png""]","[""cucumber.png""]","[""cucumber.png""]","[""cucumber.png""]","[""cucumber.png""]","[""cucumber.png""]",blank.png,PB18.png,PB14.png,"[""cucumber.png""]","[""cucumber.png""]","[""cucumber.png""]","[""cucumber.png""]","[""cucumber.png""]","[""cucumber.png""]","[""cucumber.png""]","[""cucumber.png""]","[""cucumber.png""]",blank.png,blank.png,blank.png,1,"[""sausage.png""]",blank.png,blank.png,blank.png,3,"[""cucumber.png""]","[""cucumber.png""]","[""cucumber.png""]",blank.png,blank.png,blank.png,PB14.png,,,,,,,,,,,1,,,,,,,,,,,,,985.9340000000084,,timeout,,,,,,,,,,,,,4,,,,,,,,,,,,,,,,,,,,,,,,,,,,,,,,,,,,,,,,,,,,,,,,,,,,,,,,,"[""cucumber.png""]","[""sausage.png""]",,,,5,,,false,,1,,,,,,,511086.4200000069,511086.098,510384.781,510390.8800000063,510391.788,511377.722,5,,,
timeout,canvas.Screen,2_4_3_6_1_0_0_0_0_4_1,2021-05-24T16:11:56.294Z,,,blank.png,blank.png,blank.png,blank.png,blank.png,blank.png,blank.png,"[""sausage.png""]",blank.png,blank.png,blank.png,blank.png,blank.png,,,,,,,,,,,,,,,,,,,,,,,,,,,,,"[""sausage.png""]","[""cucumber.png""]",PB18.png,,,,,,,,,,,0,6,"[""cucumber.png""]","[""cucumber.png""]","[""cucumber.png""]","[""cucumber.png""]","[""cucumber.png""]","[""cucumber.png""]",blank.png,PB18.png,PB14.png,"[""cucumber.png""]","[""cucumber.png""]","[""cucumber.png""]","[""cucumber.png""]","[""cucumber.png""]","[""cucumber.png""]","[""cucumber.png""]","[""cucumber.png""]","[""cucumber.png""]",blank.png,blank.png,blank.png,1,"[""sausage.png""]",blank.png,blank.png,blank.png,3,"[""cucumber.png""]","[""cucumber.png""]","[""cucumber.png""]",blank.png,blank.png,blank.png,PB14.png,,,,,,,,,,,1,,,,,,,,,,,,,805.4639999999781,,timeout,,,,,,,,,,,,,4,,,,,,,,,,,,,,,,,,,,,,,,,,,,,,,,,,,,,,,,,,,,,,,,,,,,,,,,,"[""cucumber.png""]","[""sausage.png""]",,,,5,,,false,,1,,,,,,,511871.1100000073,511870.73,511086.098,511380.1550000062,511377.722,512183.186,,,,
choice,canvas.Screen,2_4_3_6_1_0_0_0_0_4_2,2021-05-24T16:11:57.624Z,,,blank.png,blank.png,blank.png,blank.png,blank.png,blank.png,blank.png,"[""sausage.png""]",blank.png,blank.png,blank.png,blank.png,blank.png,,,,,,,,,,,,,,,,,,,,,,,,,,,,,"[""sausage.png""]","[""cucumber.png""]",PB18.png,,,,,,,,,,,0,6,"[""cucumber.png""]","[""cucumber.png""]","[""cucumber.png""]","[""cucumber.png""]","[""cucumber.png""]","[""cucumber.png""]",blank.png,PB18.png,PB14.png,"[""cucumber.png""]","[""cucumber.png""]","[""cucumber.png""]","[""cucumber.png""]","[""cucumber.png""]","[""cucumber.png""]","[""cucumber.png""]","[""cucumber.png""]","[""cucumber.png""]",blank.png,blank.png,blank.png,1,"[""sausage.png""]",blank.png,blank.png,blank.png,3,"[""cucumber.png""]","[""cucumber.png""]","[""cucumber.png""]",blank.png,blank.png,blank.png,PB14.png,,,,,,,,,,,1,,,,,,,,,,,,,1016.903999998467,,response,,,,,,,,,,,,,4,,,,,,,,,,,,,,,,,,,,,,,,,,,,,,,,,,,,,,,,,,,,,,,,,,,,,,,,,"[""cucumber.png""]","[""sausage.png""]",,,,5,left,keydown(ArrowLeft),false,,1,,,,,,,513200.8050000004,513200.08999999845,511870.73,512174.62000000523,512183.186,513502.529,,5,,
square,canvas.Screen,2_4_3_6_1_0_0_0_0_4_3,2021-05-24T16:11:58.919Z,,,blank.png,blank.png,blank.png,blank.png,blank.png,blank.png,blank.png,"[""sausage.png""]",blank.png,blank.png,blank.png,blank.png,blank.png,,,,,,,,,,,,,,,,,,,,,,,,,,,,,"[""sausage.png""]","[""cucumber.png""]",PB18.png,,,,,,,,,,,0,6,"[""cucumber.png""]","[""cucumber.png""]","[""cucumber.png""]","[""cucumber.png""]","[""cucumber.png""]","[""cucumber.png""]",blank.png,PB18.png,PB14.png,"[""cucumber.png""]","[""cucumber.png""]","[""cucumber.png""]","[""cucumber.png""]","[""cucumber.png""]","[""cucumber.png""]","[""cucumber.png""]","[""cucumber.png""]","[""cucumber.png""]",blank.png,blank.png,blank.png,1,"[""sausage.png""]",blank.png,blank.png,blank.png,3,"[""cucumber.png""]","[""cucumber.png""]","[""cucumber.png""]",blank.png,blank.png,blank.png,PB14.png,,,,,,,,,,,1,,,#33ff3f,#808080,,,,,,,,,999.8740000000107,,timeout,,,,,,,,,,,,,4,,,,,,,,,,,,,,,,,,,,,,,,,,,,,,,,,,,,,,,,,,,,,,,,,,,,,,,,,"[""cucumber.png""]","[""sausage.png""]",,,,5,,,false,,1,,,,,black,white,514495.79000000085,514495.455,513495.442,513497.80500000634,513502.529,514502.403,,,,
ITI_late,canvas.Screen,2_4_3_6_1_0_0_0_0_4_4,2021-05-24T16:11:59.919Z,,,blank.png,blank.png,blank.png,blank.png,blank.png,blank.png,blank.png,"[""sausage.png""]",blank.png,blank.png,blank.png,blank.png,blank.png,,,,,,,,,,,,,,,,,,,,,,,,,,,,,"[""sausage.png""]","[""cucumber.png""]",PB18.png,,,,,,,,,,,0,6,"[""cucumber.png""]","[""cucumber.png""]","[""cucumber.png""]","[""cucumber.png""]","[""cucumber.png""]","[""cucumber.png""]",blank.png,PB18.png,PB14.png,"[""cucumber.png""]","[""cucumber.png""]","[""cucumber.png""]","[""cucumber.png""]","[""cucumber.png""]","[""cucumber.png""]","[""cucumber.png""]","[""cucumber.png""]","[""cucumber.png""]",blank.png,blank.png,blank.png,1,"[""sausage.png""]",blank.png,blank.png,blank.png,3,"[""cucumber.png""]","[""cucumber.png""]","[""cucumber.png""]",blank.png,blank.png,blank.png,PB14.png,,,,,,,,,,,1,,,,,,,,,,,,,999.880999999994,,timeout,,,,,,,,,,,,white,4,,,,,,,,,,,,,,,,,,,,,,,,,,,,,,,,,,,,,,,,,,,,,,,,,,,,,,,,,"[""cucumber.png""]","[""sausage.png""]",,,,5,,,false,,1,,,,,,,515495.77000000863,515495.347,514495.455,514496.7550000001,514502.403,515502.284,,,,
choice_sequence,flow.Sequence,2_4_3_6_1_0_0_0_0_4,2021-05-24T16:11:59.919Z,,,blank.png,blank.png,blank.png,blank.png,blank.png,blank.png,blank.png,"[""sausage.png""]",blank.png,blank.png,blank.png,blank.png,blank.png,,,,,,,,,,,,,,,,,,,,,,,,,,,,,"[""sausage.png""]","[""cucumber.png""]",PB18.png,,,,,,,,,,,0,6,"[""cucumber.png""]","[""cucumber.png""]","[""cucumber.png""]","[""cucumber.png""]","[""cucumber.png""]","[""cucumber.png""]",blank.png,PB18.png,PB14.png,"[""cucumber.png""]","[""cucumber.png""]","[""cucumber.png""]","[""cucumber.png""]","[""cucumber.png""]","[""cucumber.png""]","[""cucumber.png""]","[""cucumber.png""]","[""cucumber.png""]",blank.png,blank.png,blank.png,1,"[""sausage.png""]",blank.png,blank.png,blank.png,3,"[""cucumber.png""]","[""cucumber.png""]","[""cucumber.png""]",blank.png,blank.png,blank.png,PB14.png,,,,,,,,,,,1,,,,,,,,,,,,,5103.559000000008,,completion,,,,,,,,,,,,,4,,,,,,,,,,,,,,,,,,,,,,,,,,,,,,,,,,,,,,,,,,,,,,,,,,,,,,,,,"[""cucumber.png""]","[""sausage.png""]",,,,5,,,false,,1,,,,,,,515496.0550000105,515495.347,510384.781,510389.60999999836,510391.788,515502.284,,,,
fixCross,canvas.Screen,2_4_3_6_1_0_0_0_0_5_0,2021-05-24T16:12:00.467Z,,,blank.png,blank.png,blank.png,blank.png,blank.png,blank.png,blank.png,"[""sausage.png""]",blank.png,blank.png,blank.png,blank.png,blank.png,,,,,,,,,,,,,,,,,,,,,,,,,,,,,"[""sausage.png""]","[""cucumber.png""]",PB18.png,,,,,,,,,,,0,6,"[""cucumber.png""]","[""cucumber.png""]","[""cucumber.png""]","[""cucumber.png""]","[""cucumber.png""]","[""cucumber.png""]",blank.png,PB18.png,PB07.png,"[""cucumber.png""]","[""cucumber.png""]","[""cucumber.png""]","[""cucumber.png""]","[""cucumber.png""]","[""cucumber.png""]","[""cucumber.png""]",blank.png,blank.png,blank.png,blank.png,blank.png,1,"[""sausage.png""]",blank.png,blank.png,blank.png,1,"[""cucumber.png""]",blank.png,blank.png,blank.png,blank.png,blank.png,PB07.png,,,,,,,,,,,1,,,,,,,,,,,,,812.4700000000303,,timeout,,,,,,,,,,,,,4,,,,,,,,,,,,,,,,,,,,,,,,,,,,,,,,,,,,,,,,,,,,,,,,,,,,,,,,,"[""cucumber.png""]","[""sausage.png""]",,,,5,,,false,,1,,,,,,,516044.2650000041,516043.911,515495.347,515498.38000000454,515502.284,516314.754,6,,,
timeout,canvas.Screen,2_4_3_6_1_0_0_0_0_5_1,2021-05-24T16:12:01.231Z,,,blank.png,blank.png,blank.png,blank.png,blank.png,blank.png,blank.png,"[""sausage.png""]",blank.png,blank.png,blank.png,blank.png,blank.png,,,,,,,,,,,,,,,,,,,,,,,,,,,,,"[""sausage.png""]","[""cucumber.png""]",PB18.png,,,,,,,,,,,0,6,"[""cucumber.png""]","[""cucumber.png""]","[""cucumber.png""]","[""cucumber.png""]","[""cucumber.png""]","[""cucumber.png""]",blank.png,PB18.png,PB07.png,"[""cucumber.png""]","[""cucumber.png""]","[""cucumber.png""]","[""cucumber.png""]","[""cucumber.png""]","[""cucumber.png""]","[""cucumber.png""]",blank.png,blank.png,blank.png,blank.png,blank.png,1,"[""sausage.png""]",blank.png,blank.png,blank.png,1,"[""cucumber.png""]",blank.png,blank.png,blank.png,blank.png,blank.png,PB07.png,,,,,,,,,,,1,,,,,,,,,,,,,756.8369999999995,,timeout,,,,,,,,,,,,,4,,,,,,,,,,,,,,,,,,,,,,,,,,,,,,,,,,,,,,,,,,,,,,,,,,,,,,,,,"[""cucumber.png""]","[""sausage.png""]",,,,5,,,false,,1,,,,,,,516808.04000000353,516807.716,516043.911,516318.815000006,516314.754,517071.591,,,,
choice,canvas.Screen,2_4_3_6_1_0_0_0_0_5_2,2021-05-24T16:12:01.650Z,,,blank.png,blank.png,blank.png,blank.png,blank.png,blank.png,blank.png,"[""sausage.png""]",blank.png,blank.png,blank.png,blank.png,blank.png,,,,,,,,,,,,,,,,,,,,,,,,,,,,,"[""sausage.png""]","[""cucumber.png""]",PB18.png,,,,,,,,,,,0,6,"[""cucumber.png""]","[""cucumber.png""]","[""cucumber.png""]","[""cucumber.png""]","[""cucumber.png""]","[""cucumber.png""]",blank.png,PB18.png,PB07.png,"[""cucumber.png""]","[""cucumber.png""]","[""cucumber.png""]","[""cucumber.png""]","[""cucumber.png""]","[""cucumber.png""]","[""cucumber.png""]",blank.png,blank.png,blank.png,blank.png,blank.png,1,"[""sausage.png""]",blank.png,blank.png,blank.png,1,"[""cucumber.png""]",blank.png,blank.png,blank.png,blank.png,blank.png,PB07.png,,,,,,,,,,,1,,,,,,,,,,,,,155.2840000075521,,response,,,,,,,,,,,,,4,,,,,,,,,,,,,,,,,,,,,,,,,,,,,,,,,,,,,,,,,,,,,,,,,,,,,,,,,"[""cucumber.png""]","[""sausage.png""]",,,,5,left,keydown(ArrowLeft),false,,1,,,,,,,517227.53499999817,517226.87500000757,516807.716,517067.73000000976,517071.591,517488.201,,6,,
square,canvas.Screen,2_4_3_6_1_0_0_0_0_5_3,2021-05-24T16:12:02.904Z,,,blank.png,blank.png,blank.png,blank.png,blank.png,blank.png,blank.png,"[""sausage.png""]",blank.png,blank.png,blank.png,blank.png,blank.png,,,,,,,,,,,,,,,,,,,,,,,,,,,,,"[""sausage.png""]","[""cucumber.png""]",PB18.png,,,,,,,,,,,0,6,"[""cucumber.png""]","[""cucumber.png""]","[""cucumber.png""]","[""cucumber.png""]","[""cucumber.png""]","[""cucumber.png""]",blank.png,PB18.png,PB07.png,"[""cucumber.png""]","[""cucumber.png""]","[""cucumber.png""]","[""cucumber.png""]","[""cucumber.png""]","[""cucumber.png""]","[""cucumber.png""]",blank.png,blank.png,blank.png,blank.png,blank.png,1,"[""sausage.png""]",blank.png,blank.png,blank.png,1,"[""cucumber.png""]",blank.png,blank.png,blank.png,blank.png,blank.png,PB07.png,,,,,,,,,,,1,,,#33ff3f,#808080,,,,,,,,,999.8780000000261,,timeout,,,,,,,,,,,,,4,,,,,,,,,,,,,,,,,,,,,,,,,,,,,,,,,,,,,,,,,,,,,,,,,,,,,,,,,"[""cucumber.png""]","[""sausage.png""]",,,,5,,,false,,1,,,,,black,white,518481.63500000373,518481.154,517481.235,517482.8850000049,517488.201,518488.079,,,,
ITI_late,canvas.Screen,2_4_3_6_1_0_0_0_0_5_4,2021-05-24T16:12:03.904Z,,,blank.png,blank.png,blank.png,blank.png,blank.png,blank.png,blank.png,"[""sausage.png""]",blank.png,blank.png,blank.png,blank.png,blank.png,,,,,,,,,,,,,,,,,,,,,,,,,,,,,"[""sausage.png""]","[""cucumber.png""]",PB18.png,,,,,,,,,,,0,6,"[""cucumber.png""]","[""cucumber.png""]","[""cucumber.png""]","[""cucumber.png""]","[""cucumber.png""]","[""cucumber.png""]",blank.png,PB18.png,PB07.png,"[""cucumber.png""]","[""cucumber.png""]","[""cucumber.png""]","[""cucumber.png""]","[""cucumber.png""]","[""cucumber.png""]","[""cucumber.png""]",blank.png,blank.png,blank.png,blank.png,blank.png,1,"[""sausage.png""]",blank.png,blank.png,blank.png,1,"[""cucumber.png""]",blank.png,blank.png,blank.png,blank.png,blank.png,PB07.png,,,,,,,,,,,1,,,,,,,,,,,,,999.8919999999925,,timeout,,,,,,,,,,,,white,4,,,,,,,,,,,,,,,,,,,,,,,,,,,,,,,,,,,,,,,,,,,,,,,,,,,,,,,,,"[""cucumber.png""]","[""sausage.png""]",,,,5,,,false,,1,,,,,,,519481.3550000108,519481.047,518481.154,518483.2500000048,518488.079,519487.971,,,,
choice_sequence,flow.Sequence,2_4_3_6_1_0_0_0_0_5,2021-05-24T16:12:03.904Z,,,blank.png,blank.png,blank.png,blank.png,blank.png,blank.png,blank.png,"[""sausage.png""]",blank.png,blank.png,blank.png,blank.png,blank.png,,,,,,,,,,,,,,,,,,,,,,,,,,,,,"[""sausage.png""]","[""cucumber.png""]",PB18.png,,,,,,,,,,,0,6,"[""cucumber.png""]","[""cucumber.png""]","[""cucumber.png""]","[""cucumber.png""]","[""cucumber.png""]","[""cucumber.png""]",blank.png,PB18.png,PB07.png,"[""cucumber.png""]","[""cucumber.png""]","[""cucumber.png""]","[""cucumber.png""]","[""cucumber.png""]","[""cucumber.png""]","[""cucumber.png""]",blank.png,blank.png,blank.png,blank.png,blank.png,1,"[""sausage.png""]",blank.png,blank.png,blank.png,1,"[""cucumber.png""]",blank.png,blank.png,blank.png,blank.png,blank.png,PB07.png,,,,,,,,,,,1,,,,,,,,,,,,,3978.7630000000354,,completion,,,,,,,,,,,,,4,,,,,,,,,,,,,,,,,,,,,,,,,,,,,,,,,,,,,,,,,,,,,,,,,,,,,,,,,"[""cucumber.png""]","[""sausage.png""]",,,,5,,,false,,1,,,,,,,519481.62000000593,519481.047,515495.347,515497.9549999989,515502.284,519487.971,,,,
fixCross,canvas.Screen,2_4_3_6_1_0_0_0_0_6_0,2021-05-24T16:12:04.307Z,,,blank.png,"[""sausage.png""]",blank.png,blank.png,blank.png,blank.png,blank.png,blank.png,blank.png,blank.png,blank.png,blank.png,blank.png,,,,,,,,,,,,,,,,,,,,,,,,,,,,,"[""sausage.png""]","[""cucumber.png""]",PB01.png,,,,,,,,,,,0,6,"[""cucumber.png""]","[""cucumber.png""]","[""cucumber.png""]","[""cucumber.png""]","[""cucumber.png""]","[""cucumber.png""]",blank.png,PB18.png,PB18.png,blank.png,blank.png,blank.png,blank.png,blank.png,blank.png,"[""cucumber.png""]","[""cucumber.png""]","[""cucumber.png""]","[""cucumber.png""]","[""cucumber.png""]","[""cucumber.png""]",1,"[""sausage.png""]",blank.png,blank.png,blank.png,0,blank.png,blank.png,blank.png,blank.png,blank.png,blank.png,PB01.png,,,,,,,,,,,1,,,,,,,,,,,,,659.6909999999916,,timeout,,,,,,,,,,,,,3,,,,,,,,,,,,,,,,,,,,,,,,,,,,,,,,,,,,,,,,,,,,,,,,,,,,,,,,,"[""cucumber.png""]","[""sausage.png""]",,,,5,,,false,,1,,,,,,,519884.09000000684,519883.775,519481.047,519484.0100000001,519487.971,520147.662,7,,,
timeout,canvas.Screen,2_4_3_6_1_0_0_0_0_6_1,2021-05-24T16:12:05.064Z,,,blank.png,"[""sausage.png""]",blank.png,blank.png,blank.png,blank.png,blank.png,blank.png,blank.png,blank.png,blank.png,blank.png,blank.png,,,,,,,,,,,,,,,,,,,,,,,,,,,,,"[""sausage.png""]","[""cucumber.png""]",PB01.png,,,,,,,,,,,0,6,"[""cucumber.png""]","[""cucumber.png""]","[""cucumber.png""]","[""cucumber.png""]","[""cucumber.png""]","[""cucumber.png""]",blank.png,PB18.png,PB18.png,blank.png,blank.png,blank.png,blank.png,blank.png,blank.png,"[""cucumber.png""]","[""cucumber.png""]","[""cucumber.png""]","[""cucumber.png""]","[""cucumber.png""]","[""cucumber.png""]",1,"[""sausage.png""]",blank.png,blank.png,blank.png,0,blank.png,blank.png,blank.png,blank.png,blank.png,blank.png,PB01.png,,,,,,,,,,,1,,,,,,,,,,,,,742.9799999999814,,timeout,,,,,,,,,,,,,3,,,,,,,,,,,,,,,,,,,,,,,,,,,,,,,,,,,,,,,,,,,,,,,,,,,,,,,,,"[""cucumber.png""]","[""sausage.png""]",,,,5,,,false,,1,,,,,,,520640.9750000021,520640.646,519883.775,520149.70500000345,520147.662,520890.642,,,,
choice,canvas.Screen,2_4_3_6_1_0_0_0_0_6_2,2021-05-24T16:12:05.634Z,,,blank.png,"[""sausage.png""]",blank.png,blank.png,blank.png,blank.png,blank.png,blank.png,blank.png,blank.png,blank.png,blank.png,blank.png,,,,,,,,,,,,,,,,,,,,,,,,,,,,,"[""sausage.png""]","[""cucumber.png""]",PB01.png,,,,,,,,,,,0,6,"[""cucumber.png""]","[""cucumber.png""]","[""cucumber.png""]","[""cucumber.png""]","[""cucumber.png""]","[""cucumber.png""]",blank.png,PB18.png,PB18.png,blank.png,blank.png,blank.png,blank.png,blank.png,blank.png,"[""cucumber.png""]","[""cucumber.png""]","[""cucumber.png""]","[""cucumber.png""]","[""cucumber.png""]","[""cucumber.png""]",1,"[""sausage.png""]",blank.png,blank.png,blank.png,0,blank.png,blank.png,blank.png,blank.png,blank.png,blank.png,PB01.png,,,,,,,,,,,1,,,,,,,,,,,,,320.18300000193994,,response,,,,,,,,,,,,,3,,,,,,,,,,,,,,,,,,,,,,,,,,,,,,,,,,,,,,,,,,,,,,,,,,,,,,,,,"[""cucumber.png""]","[""sausage.png""]",,,,5,right,keydown(ArrowRight),false,,1,,,,,,,521211.5449999983,521210.82500000193,520640.646,520884.69000000623,520890.642,521460.073,,7,,
square,canvas.Screen,2_4_3_6_1_0_0_0_0_6_3,2021-05-24T16:12:06.876Z,,,blank.png,"[""sausage.png""]",blank.png,blank.png,blank.png,blank.png,blank.png,blank.png,blank.png,blank.png,blank.png,blank.png,blank.png,,,,,,,,,,,,,,,,,,,,,,,,,,,,,"[""sausage.png""]","[""cucumber.png""]",PB01.png,,,,,,,,,,,0,6,"[""cucumber.png""]","[""cucumber.png""]","[""cucumber.png""]","[""cucumber.png""]","[""cucumber.png""]","[""cucumber.png""]",blank.png,PB18.png,PB18.png,blank.png,blank.png,blank.png,blank.png,blank.png,blank.png,"[""cucumber.png""]","[""cucumber.png""]","[""cucumber.png""]","[""cucumber.png""]","[""cucumber.png""]","[""cucumber.png""]",1,"[""sausage.png""]",blank.png,blank.png,blank.png,0,blank.png,blank.png,blank.png,blank.png,blank.png,blank.png,PB01.png,,,,,,,,,,,1,,,#808080,#33ff3f,,,,,,,,,999.8090000000084,,timeout,,,,,,,,,,,,,3,,,,,,,,,,,,,,,,,,,,,,,,,,,,,,,,,,,,,,,,,,,,,,,,,,,,,,,,,"[""cucumber.png""]","[""sausage.png""]",,,,5,,,false,,1,,,,,white,black,522453.3850000007,522452.949,521453.009,521457.03499999945,521460.073,522459.882,,,,
ITI_late,canvas.Screen,2_4_3_6_1_0_0_0_0_6_4,2021-05-24T16:12:07.876Z,,,blank.png,"[""sausage.png""]",blank.png,blank.png,blank.png,blank.png,blank.png,blank.png,blank.png,blank.png,blank.png,blank.png,blank.png,,,,,,,,,,,,,,,,,,,,,,,,,,,,,"[""sausage.png""]","[""cucumber.png""]",PB01.png,,,,,,,,,,,0,6,"[""cucumber.png""]","[""cucumber.png""]","[""cucumber.png""]","[""cucumber.png""]","[""cucumber.png""]","[""cucumber.png""]",blank.png,PB18.png,PB18.png,blank.png,blank.png,blank.png,blank.png,blank.png,blank.png,"[""cucumber.png""]","[""cucumber.png""]","[""cucumber.png""]","[""cucumber.png""]","[""cucumber.png""]","[""cucumber.png""]",1,"[""sausage.png""]",blank.png,blank.png,blank.png,0,blank.png,blank.png,blank.png,blank.png,blank.png,blank.png,PB01.png,,,,,,,,,,,1,,,,,,,,,,,,,1013.8130000000237,,timeout,,,,,,,,,,,,white,3,,,,,,,,,,,,,,,,,,,,,,,,,,,,,,,,,,,,,,,,,,,,,,,,,,,,,,,,,"[""cucumber.png""]","[""sausage.png""]",,,,5,,,false,,1,,,,,,,523453.1750000024,523452.848,522452.949,522454.35,522459.882,523473.695,,,,
choice_sequence,flow.Sequence,2_4_3_6_1_0_0_0_0_6,2021-05-24T16:12:07.876Z,,,blank.png,"[""sausage.png""]",blank.png,blank.png,blank.png,blank.png,blank.png,blank.png,blank.png,blank.png,blank.png,blank.png,blank.png,,,,,,,,,,,,,,,,,,,,,,,,,,,,,"[""sausage.png""]","[""cucumber.png""]",PB01.png,,,,,,,,,,,0,6,"[""cucumber.png""]","[""cucumber.png""]","[""cucumber.png""]","[""cucumber.png""]","[""cucumber.png""]","[""cucumber.png""]",blank.png,PB18.png,PB18.png,blank.png,blank.png,blank.png,blank.png,blank.png,blank.png,"[""cucumber.png""]","[""cucumber.png""]","[""cucumber.png""]","[""cucumber.png""]","[""cucumber.png""]","[""cucumber.png""]",1,"[""sausage.png""]",blank.png,blank.png,blank.png,0,blank.png,blank.png,blank.png,blank.png,blank.png,blank.png,PB01.png,,,,,,,,,,,1,,,,,,,,,,,,,3964.8769999999786,,completion,,,,,,,,,,,,,3,,,,,,,,,,,,,,,,,,,,,,,,,,,,,,,,,,,,,,,,,,,,,,,,,,,,,,,,,"[""cucumber.png""]","[""sausage.png""]",,,,5,,,false,,1,,,,,,,523453.4500000009,523452.848,519481.047,519483.58500000904,519487.971,523473.695,,,,
choice_loop,flow.Loop,2_4_3_6_1_0_0_0_0,2021-05-24T16:12:07.876Z,,,,,,,,,,,,,,,,,,,,,,,,,,,,,,,,,,,,,,,,,,,,"[""sausage.png""]","[""cucumber.png""]",,,,,,,,,,,,,,,,,,,,,,,,,,,,,,,,,,,,,,,,,,,,,,,,,,,,,,,,,,,,,,,,,,,,,,,35142.11300000001,,completion,,,,,,,,,,,,,,,,,,,,,,,,,,,,,,,,,,,,,,,,,,,,,,,,,,,,,,,,,,,,,,,,,,,,,,"[""cucumber.png""]","[""sausage.png""]",,,,5,,,false,,,,,,,,,523453.6050000024,523452.848,488282.94,488306.3950000069,488310.735,523473.695,,,,
choice_frame,html.Frame,2_4_3_6_1_0_0_0,2021-05-24T16:12:07.877Z,,,,,,,,,,,,,,,,,,,,,,,,,,,,,,,,,,,,,,,,,,,,,,,,,,,,,,,,,,,,,,,,,,,,,,,,,,,,,,,,,,,,,,,,,,,,,,,,,,,,,,,,,,,,,,,,,,,,35142.91000000143,,,,,,,,,,,,,,,,,,,,,,,,,,,,,,,,,,,,,,,,,,,,,,,,,,,,,,,,,,,,,,,,,,,,,,,,,,,,,5,,,false,,,,,,,,,523453.7350000028,523453.6450000014,488282.94,488283.41000000364,488310.735,523480.616,,,,
sublock_1,flow.Sequence,2_4_3_6_1_0_0,2021-05-24T16:12:07.877Z,,,,,,,,,,,,,,,,,,,,,,,,,,,,,,,,,,,,,,,,,,,,,,,,,,,,,,,,,,,,,,,,,,,,,,,,,,,,,,,,,,,,,,,,,,,,,,,,,,,,,,,,,,,,,,,,,,,,35142.91000000143,,completion,,,,,,,,,,,,,,,,,,,,,,,,,,,,,,,,,,,,,,,,,,,,,,,,,,,,,,,,,,,,,,,,,,,,,,,,,,,5,,,false,,,,,,,,,523453.81000000634,523453.6450000014,488282.94,488283.38500000245,488310.735,523480.616,,,,
fixCross,canvas.Screen,2_4_3_6_1_0_1_0_0_0_0,2021-05-24T16:12:08.300Z,,,blank.png,"[""sausage.png""]",blank.png,blank.png,blank.png,blank.png,blank.png,blank.png,blank.png,blank.png,blank.png,blank.png,blank.png,,,,,,,,,,,,,,,,,,,,,,,,,,,,,"[""sausage.png""]","[""cucumber.png""]",PB16.png,,,,,,,,,,,0,6,"[""cucumber.png""]","[""cucumber.png""]","[""cucumber.png""]","[""cucumber.png""]","[""cucumber.png""]","[""cucumber.png""]",blank.png,PB18.png,PB18.png,"[""cucumber.png""]","[""cucumber.png""]","[""cucumber.png""]","[""cucumber.png""]","[""cucumber.png""]",blank.png,"[""cucumber.png""]","[""cucumber.png""]","[""cucumber.png""]","[""cucumber.png""]","[""cucumber.png""]","[""cucumber.png""]",1,"[""sausage.png""]",blank.png,blank.png,blank.png,5,"[""cucumber.png""]","[""cucumber.png""]","[""cucumber.png""]","[""cucumber.png""]","[""cucumber.png""]",blank.png,PB16.png,,,,,,,,,,,1,,,,,,,,,,,,,722.1650000000373,,timeout,,,,,,,,,,,,,3,,,,,,,,,,,,,,,,,,,,,,,,,,,,,,,,,,,,,,,,,,,,,,,,,,,,,,,,,"[""cucumber.png""]","[""sausage.png""]",,,,1,,,false,,1,,,,,,,523876.76500000816,523876.414,523473.695,523475.4450000037,523480.616,524202.781,8,,,
timeout,canvas.Screen,2_4_3_6_1_0_1_0_0_0_1,2021-05-24T16:12:09.119Z,,,blank.png,"[""sausage.png""]",blank.png,blank.png,blank.png,blank.png,blank.png,blank.png,blank.png,blank.png,blank.png,blank.png,blank.png,,,,,,,,,,,,,,,,,,,,,,,,,,,,,"[""sausage.png""]","[""cucumber.png""]",PB16.png,,,,,,,,,,,0,6,"[""cucumber.png""]","[""cucumber.png""]","[""cucumber.png""]","[""cucumber.png""]","[""cucumber.png""]","[""cucumber.png""]",blank.png,PB18.png,PB18.png,"[""cucumber.png""]","[""cucumber.png""]","[""cucumber.png""]","[""cucumber.png""]","[""cucumber.png""]",blank.png,"[""cucumber.png""]","[""cucumber.png""]","[""cucumber.png""]","[""cucumber.png""]","[""cucumber.png""]","[""cucumber.png""]",1,"[""sausage.png""]",blank.png,blank.png,blank.png,5,"[""cucumber.png""]","[""cucumber.png""]","[""cucumber.png""]","[""cucumber.png""]","[""cucumber.png""]",blank.png,PB16.png,,,,,,,,,,,1,,,,,,,,,,,,,819.3670000000275,,timeout,,,,,,,,,,,,,3,,,,,,,,,,,,,,,,,,,,,,,,,,,,,,,,,,,,,,,,,,,,,,,,,,,,,,,,,"[""cucumber.png""]","[""sausage.png""]",,,,1,,,false,,1,,,,,,,524696.1600000068,524695.787,523876.414,524193.59000000986,524202.781,525022.148,,,,
choice,canvas.Screen,2_4_3_6_1_0_1_0_0_0_2,2021-05-24T16:12:10.845Z,,,blank.png,"[""sausage.png""]",blank.png,blank.png,blank.png,blank.png,blank.png,blank.png,blank.png,blank.png,blank.png,blank.png,blank.png,,,,,,,,,,,,,,,,,,,,,,,,,,,,,"[""sausage.png""]","[""cucumber.png""]",PB16.png,,,,,,,,,,,0,6,"[""cucumber.png""]","[""cucumber.png""]","[""cucumber.png""]","[""cucumber.png""]","[""cucumber.png""]","[""cucumber.png""]",blank.png,PB18.png,PB18.png,"[""cucumber.png""]","[""cucumber.png""]","[""cucumber.png""]","[""cucumber.png""]","[""cucumber.png""]",blank.png,"[""cucumber.png""]","[""cucumber.png""]","[""cucumber.png""]","[""cucumber.png""]","[""cucumber.png""]","[""cucumber.png""]",1,"[""sausage.png""]",blank.png,blank.png,blank.png,5,"[""cucumber.png""]","[""cucumber.png""]","[""cucumber.png""]","[""cucumber.png""]","[""cucumber.png""]",blank.png,PB16.png,,,,,,,,,,,1,,,,,,,,,,,,,1398.927000005613,,response,,,,,,,,,,,,,3,,,,,,,,,,,,,,,,,,,,,,,,,,,,,,,,,,,,,,,,,,,,,,,,,,,,,,,,,"[""cucumber.png""]","[""sausage.png""]",,,,1,left,keydown(ArrowLeft),false,,1,,,,,,,526421.8499999988,526421.0750000057,524695.787,525016.9400000013,525022.148,526756.712,,8,,
square,canvas.Screen,2_4_3_6_1_0_1_0_0_0_3,2021-05-24T16:12:12.174Z,,,blank.png,"[""sausage.png""]",blank.png,blank.png,blank.png,blank.png,blank.png,blank.png,blank.png,blank.png,blank.png,blank.png,blank.png,,,,,,,,,,,,,,,,,,,,,,,,,,,,,"[""sausage.png""]","[""cucumber.png""]",PB16.png,,,,,,,,,,,0,6,"[""cucumber.png""]","[""cucumber.png""]","[""cucumber.png""]","[""cucumber.png""]","[""cucumber.png""]","[""cucumber.png""]",blank.png,PB18.png,PB18.png,"[""cucumber.png""]","[""cucumber.png""]","[""cucumber.png""]","[""cucumber.png""]","[""cucumber.png""]",blank.png,"[""cucumber.png""]","[""cucumber.png""]","[""cucumber.png""]","[""cucumber.png""]","[""cucumber.png""]","[""cucumber.png""]",1,"[""sausage.png""]",blank.png,blank.png,blank.png,5,"[""cucumber.png""]","[""cucumber.png""]","[""cucumber.png""]","[""cucumber.png""]","[""cucumber.png""]",blank.png,PB16.png,,,,,,,,,,,1,,,#33ff3f,#808080,,,,,,,,,1001.2339999999385,,timeout,,,,,,,,,,,,,3,,,,,,,,,,,,,,,,,,,,,,,,,,,,,,,,,,,,,,,,,,,,,,,,,,,,,,,,,"[""cucumber.png""]","[""sausage.png""]",,,,1,,,false,,1,,,,,black,white,527751.5300000086,527751.008,526730.129,526736.3000000041,526756.712,527757.946,,,,
ITI_late,canvas.Screen,2_4_3_6_1_0_1_0_0_0_4,2021-05-24T16:12:12.424Z,,,blank.png,"[""sausage.png""]",blank.png,blank.png,blank.png,blank.png,blank.png,blank.png,blank.png,blank.png,blank.png,blank.png,blank.png,,,,,,,,,,,,,,,,,,,,,,,,,,,,,"[""sausage.png""]","[""cucumber.png""]",PB16.png,,,,,,,,,,,0,6,"[""cucumber.png""]","[""cucumber.png""]","[""cucumber.png""]","[""cucumber.png""]","[""cucumber.png""]","[""cucumber.png""]",blank.png,PB18.png,PB18.png,"[""cucumber.png""]","[""cucumber.png""]","[""cucumber.png""]","[""cucumber.png""]","[""cucumber.png""]",blank.png,"[""cucumber.png""]","[""cucumber.png""]","[""cucumber.png""]","[""cucumber.png""]","[""cucumber.png""]","[""cucumber.png""]",1,"[""sausage.png""]",blank.png,blank.png,blank.png,5,"[""cucumber.png""]","[""cucumber.png""]","[""cucumber.png""]","[""cucumber.png""]","[""cucumber.png""]",blank.png,PB16.png,,,,,,,,,,,1,,,,,,,,,,,,,249.97999999998137,,timeout,,,,,,,,,,,,white,3,,,,,,,,,,,,,,,,,,,,,,,,,,,,,,,,,,,,,,,,,,,,,,,,,,,,,,,,,"[""cucumber.png""]","[""sausage.png""]",,,,1,,,false,,1,,,,,,,528001.304999998,528000.993,527751.008,527752.4649999978,527757.946,528007.926,,,,
choice_sequence,flow.Sequence,2_4_3_6_1_0_1_0_0_0,2021-05-24T16:12:12.424Z,,,blank.png,"[""sausage.png""]",blank.png,blank.png,blank.png,blank.png,blank.png,blank.png,blank.png,blank.png,blank.png,blank.png,blank.png,,,,,,,,,,,,,,,,,,,,,,,,,,,,,"[""sausage.png""]","[""cucumber.png""]",PB16.png,,,,,,,,,,,0,6,"[""cucumber.png""]","[""cucumber.png""]","[""cucumber.png""]","[""cucumber.png""]","[""cucumber.png""]","[""cucumber.png""]",blank.png,PB18.png,PB18.png,"[""cucumber.png""]","[""cucumber.png""]","[""cucumber.png""]","[""cucumber.png""]","[""cucumber.png""]",blank.png,"[""cucumber.png""]","[""cucumber.png""]","[""cucumber.png""]","[""cucumber.png""]","[""cucumber.png""]","[""cucumber.png""]",1,"[""sausage.png""]",blank.png,blank.png,blank.png,5,"[""cucumber.png""]","[""cucumber.png""]","[""cucumber.png""]","[""cucumber.png""]","[""cucumber.png""]",blank.png,PB16.png,,,,,,,,,,,1,,,,,,,,,,,,,4520.377000000037,,completion,,,,,,,,,,,,,3,,,,,,,,,,,,,,,,,,,,,,,,,,,,,,,,,,,,,,,,,,,,,,,,,,,,,,,,,"[""cucumber.png""]","[""sausage.png""]",,,,1,,,false,,1,,,,,,,528001.6400000022,528000.993,523473.695,523474.95499999786,523480.616,528007.926,,,,
fixCross,canvas.Screen,2_4_3_6_1_0_1_0_0_1_0,2021-05-24T16:12:12.875Z,,,blank.png,blank.png,blank.png,blank.png,blank.png,blank.png,blank.png,"[""sausage.png""]",blank.png,blank.png,blank.png,blank.png,blank.png,,,,,,,,,,,,,,,,,,,,,,,,,,,,,"[""sausage.png""]","[""cucumber.png""]",PB18.png,,,,,,,,,,,0,6,"[""cucumber.png""]","[""cucumber.png""]","[""cucumber.png""]","[""cucumber.png""]","[""cucumber.png""]","[""cucumber.png""]",blank.png,PB18.png,PB01.png,"[""cucumber.png""]","[""cucumber.png""]","[""cucumber.png""]","[""cucumber.png""]","[""cucumber.png""]","[""cucumber.png""]",blank.png,blank.png,blank.png,blank.png,blank.png,blank.png,1,"[""sausage.png""]",blank.png,blank.png,blank.png,0,blank.png,blank.png,blank.png,blank.png,blank.png,blank.png,PB01.png,,,,,,,,,,,1,,,,,,,,,,,,,687.4350000000559,,timeout,,,,,,,,,,,,,4,,,,,,,,,,,,,,,,,,,,,,,,,,,,,,,,,,,,,,,,,,,,,,,,,,,,,,,,,"[""cucumber.png""]","[""sausage.png""]",,,,1,,,false,,1,,,,,,,528452.5950000098,528452.323,528000.993,528004.3149999983,528007.926,528695.361,9,,,
timeout,canvas.Screen,2_4_3_6_1_0_1_0_0_1_1,2021-05-24T16:12:13.611Z,,,blank.png,blank.png,blank.png,blank.png,blank.png,blank.png,blank.png,"[""sausage.png""]",blank.png,blank.png,blank.png,blank.png,blank.png,,,,,,,,,,,,,,,,,,,,,,,,,,,,,"[""sausage.png""]","[""cucumber.png""]",PB18.png,,,,,,,,,,,0,6,"[""cucumber.png""]","[""cucumber.png""]","[""cucumber.png""]","[""cucumber.png""]","[""cucumber.png""]","[""cucumber.png""]",blank.png,PB18.png,PB01.png,"[""cucumber.png""]","[""cucumber.png""]","[""cucumber.png""]","[""cucumber.png""]","[""cucumber.png""]","[""cucumber.png""]",blank.png,blank.png,blank.png,blank.png,blank.png,blank.png,1,"[""sausage.png""]",blank.png,blank.png,blank.png,0,blank.png,blank.png,blank.png,blank.png,blank.png,blank.png,PB01.png,,,,,,,,,,,1,,,,,,,,,,,,,749.9139999999898,,timeout,,,,,,,,,,,,,4,,,,,,,,,,,,,,,,,,,,,,,,,,,,,,,,,,,,,,,,,,,,,,,,,,,,,,,,,"[""cucumber.png""]","[""sausage.png""]",,,,1,,,false,,1,,,,,,,529188.6950000044,529188.359,528452.323,528692.0600000012,528695.361,529445.275,,,,
choice,canvas.Screen,2_4_3_6_1_0_1_0_0_1_2,2021-05-24T16:12:14.701Z,,,blank.png,blank.png,blank.png,blank.png,blank.png,blank.png,blank.png,"[""sausage.png""]",blank.png,blank.png,blank.png,blank.png,blank.png,,,,,,,,,,,,,,,,,,,,,,,,,,,,,"[""sausage.png""]","[""cucumber.png""]",PB18.png,,,,,,,,,,,0,6,"[""cucumber.png""]","[""cucumber.png""]","[""cucumber.png""]","[""cucumber.png""]","[""cucumber.png""]","[""cucumber.png""]",blank.png,PB18.png,PB01.png,"[""cucumber.png""]","[""cucumber.png""]","[""cucumber.png""]","[""cucumber.png""]","[""cucumber.png""]","[""cucumber.png""]",blank.png,blank.png,blank.png,blank.png,blank.png,blank.png,1,"[""sausage.png""]",blank.png,blank.png,blank.png,0,blank.png,blank.png,blank.png,blank.png,blank.png,blank.png,PB01.png,,,,,,,,,,,1,,,,,,,,,,,,,832.1600000108592,,response,,,,,,,,,,,,,4,,,,,,,,,,,,,,,,,,,,,,,,,,,,,,,,,,,,,,,,,,,,,,,,,,,,,,,,,"[""cucumber.png""]","[""sausage.png""]",,,,1,left,keydown(ArrowLeft),false,,1,,,,,,,530278.0750000093,530277.4350000109,529188.359,529438.5350000084,529445.275,530542.407,,9,,
square,canvas.Screen,2_4_3_6_1_0_1_0_0_1_3,2021-05-24T16:12:15.958Z,,,blank.png,blank.png,blank.png,blank.png,blank.png,blank.png,blank.png,"[""sausage.png""]",blank.png,blank.png,blank.png,blank.png,blank.png,,,,,,,,,,,,,,,,,,,,,,,,,,,,,"[""sausage.png""]","[""cucumber.png""]",PB18.png,,,,,,,,,,,0,6,"[""cucumber.png""]","[""cucumber.png""]","[""cucumber.png""]","[""cucumber.png""]","[""cucumber.png""]","[""cucumber.png""]",blank.png,PB18.png,PB01.png,"[""cucumber.png""]","[""cucumber.png""]","[""cucumber.png""]","[""cucumber.png""]","[""cucumber.png""]","[""cucumber.png""]",blank.png,blank.png,blank.png,blank.png,blank.png,blank.png,1,"[""sausage.png""]",blank.png,blank.png,blank.png,0,blank.png,blank.png,blank.png,blank.png,blank.png,blank.png,PB01.png,,,,,,,,,,,1,,,#33ff3f,#808080,,,,,,,,,999.859999999986,,timeout,,,,,,,,,,,,,4,,,,,,,,,,,,,,,,,,,,,,,,,,,,,,,,,,,,,,,,,,,,,,,,,,,,,,,,,"[""cucumber.png""]","[""sausage.png""]",,,,1,,,false,,1,,,,,black,white,531535.705000002,531535.332,530521.45,530524.1749999986,530542.407,531542.267,,,,
ITI_late,canvas.Screen,2_4_3_6_1_0_1_0_0_1_4,2021-05-24T16:12:16.459Z,,,blank.png,blank.png,blank.png,blank.png,blank.png,blank.png,blank.png,"[""sausage.png""]",blank.png,blank.png,blank.png,blank.png,blank.png,,,,,,,,,,,,,,,,,,,,,,,,,,,,,"[""sausage.png""]","[""cucumber.png""]",PB18.png,,,,,,,,,,,0,6,"[""cucumber.png""]","[""cucumber.png""]","[""cucumber.png""]","[""cucumber.png""]","[""cucumber.png""]","[""cucumber.png""]",blank.png,PB18.png,PB01.png,"[""cucumber.png""]","[""cucumber.png""]","[""cucumber.png""]","[""cucumber.png""]","[""cucumber.png""]","[""cucumber.png""]",blank.png,blank.png,blank.png,blank.png,blank.png,blank.png,1,"[""sausage.png""]",blank.png,blank.png,blank.png,0,blank.png,blank.png,blank.png,blank.png,blank.png,blank.png,PB01.png,,,,,,,,,,,1,,,,,,,,,,,,,499.94000000006054,,timeout,,,,,,,,,,,,white,4,,,,,,,,,,,,,,,,,,,,,,,,,,,,,,,,,,,,,,,,,,,,,,,,,,,,,,,,,"[""cucumber.png""]","[""sausage.png""]",,,,1,,,false,,1,,,,,,,532035.6250000041,532035.284,531535.332,531536.7000000115,531542.267,532042.207,,,,
choice_sequence,flow.Sequence,2_4_3_6_1_0_1_0_0_1,2021-05-24T16:12:16.459Z,,,blank.png,blank.png,blank.png,blank.png,blank.png,blank.png,blank.png,"[""sausage.png""]",blank.png,blank.png,blank.png,blank.png,blank.png,,,,,,,,,,,,,,,,,,,,,,,,,,,,,"[""sausage.png""]","[""cucumber.png""]",PB18.png,,,,,,,,,,,0,6,"[""cucumber.png""]","[""cucumber.png""]","[""cucumber.png""]","[""cucumber.png""]","[""cucumber.png""]","[""cucumber.png""]",blank.png,PB18.png,PB01.png,"[""cucumber.png""]","[""cucumber.png""]","[""cucumber.png""]","[""cucumber.png""]","[""cucumber.png""]","[""cucumber.png""]",blank.png,blank.png,blank.png,blank.png,blank.png,blank.png,1,"[""sausage.png""]",blank.png,blank.png,blank.png,0,blank.png,blank.png,blank.png,blank.png,blank.png,blank.png,PB01.png,,,,,,,,,,,1,,,,,,,,,,,,,4027.3580000000075,,completion,,,,,,,,,,,,,4,,,,,,,,,,,,,,,,,,,,,,,,,,,,,,,,,,,,,,,,,,,,,,,,,,,,,,,,,"[""cucumber.png""]","[""sausage.png""]",,,,1,,,false,,1,,,,,,,532035.8850000048,532035.284,528000.993,528003.8449999993,528007.926,532042.207,,,,
fixCross,canvas.Screen,2_4_3_6_1_0_1_0_0_2_0,2021-05-24T16:12:16.911Z,,,blank.png,"[""sausage.png""]",blank.png,blank.png,blank.png,blank.png,blank.png,blank.png,blank.png,blank.png,blank.png,blank.png,blank.png,,,,,,,,,,,,,,,,,,,,,,,,,,,,,"[""sausage.png""]","[""cucumber.png""]",PB12.png,,,,,,,,,,,0,6,"[""cucumber.png""]","[""cucumber.png""]","[""cucumber.png""]","[""cucumber.png""]","[""cucumber.png""]","[""cucumber.png""]",blank.png,PB18.png,PB18.png,"[""cucumber.png""]","[""cucumber.png""]",blank.png,blank.png,blank.png,blank.png,"[""cucumber.png""]","[""cucumber.png""]","[""cucumber.png""]","[""cucumber.png""]","[""cucumber.png""]","[""cucumber.png""]",1,"[""sausage.png""]",blank.png,blank.png,blank.png,2,"[""cucumber.png""]","[""cucumber.png""]",blank.png,blank.png,blank.png,blank.png,PB12.png,,,,,,,,,,,1,,,,,,,,,,,,,722.1829999999609,,timeout,,,,,,,,,,,,,3,,,,,,,,,,,,,,,,,,,,,,,,,,,,,,,,,,,,,,,,,,,,,,,,,,,,,,,,,"[""cucumber.png""]","[""sausage.png""]",,,,1,,,false,,1,,,,,,,532486.9600000093,532486.67,532035.284,532038.5000000097,532042.207,532764.39,10,,,
timeout,canvas.Screen,2_4_3_6_1_0_1_0_0_2_1,2021-05-24T16:12:17.681Z,,,blank.png,"[""sausage.png""]",blank.png,blank.png,blank.png,blank.png,blank.png,blank.png,blank.png,blank.png,blank.png,blank.png,blank.png,,,,,,,,,,,,,,,,,,,,,,,,,,,,,"[""sausage.png""]","[""cucumber.png""]",PB12.png,,,,,,,,,,,0,6,"[""cucumber.png""]","[""cucumber.png""]","[""cucumber.png""]","[""cucumber.png""]","[""cucumber.png""]","[""cucumber.png""]",blank.png,PB18.png,PB18.png,"[""cucumber.png""]","[""cucumber.png""]",blank.png,blank.png,blank.png,blank.png,"[""cucumber.png""]","[""cucumber.png""]","[""cucumber.png""]","[""cucumber.png""]","[""cucumber.png""]","[""cucumber.png""]",1,"[""sausage.png""]",blank.png,blank.png,blank.png,2,"[""cucumber.png""]","[""cucumber.png""]",blank.png,blank.png,blank.png,blank.png,PB12.png,,,,,,,,,,,1,,,,,,,,,,,,,777.6929999999702,,timeout,,,,,,,,,,,,,3,,,,,,,,,,,,,,,,,,,,,,,,,,,,,,,,,,,,,,,,,,,,,,,,,,,,,,,,,"[""cucumber.png""]","[""sausage.png""]",,,,1,,,false,,1,,,,,,,533257.6950000075,533257.369,532486.67,532755.6699999986,532764.39,533542.083,,,,
