sender,sender_type,sender_id,timestamp,meta,,Blank,DownLeft1,DownLeft2,DownLeft3,DownLeft4,DownLeft5,DownLeft6,DownRight1,DownRight2,DownRight3,DownRight4,DownRight5,DownRight6,FoodHabits_Fru_item1,FoodHabits_Fru_item2,FoodHabits_Fru_item3,FoodHabits_Fru_item4,FoodHabits_Fru_item5,FoodHabits_Fru_item6,FoodHabits_Fru_item7,FoodHabits_Meat_item1,FoodHabits_Meat_item2,FoodHabits_Meat_item3,FoodHabits_Meat_item4,FoodHabits_Meat_item5,FoodHabits_Meat_item6,FoodHabits_Meat_item7,FoodHabits_Swe_item1,FoodHabits_Swe_item2,FoodHabits_Swe_item3,FoodHabits_Swe_item4,FoodHabits_Swe_item5,FoodHabits_Swe_item6,FoodHabits_Swe_item7,FoodHabits_Veg_item1,FoodHabits_Veg_item2,FoodHabits_Veg_item3,FoodHabits_Veg_item4,FoodHabits_Veg_item5,FoodHabits_Veg_item6,FoodHabits_Veg_item7,ImgA,ImgB,LeftBar,PSS_item01,PSS_item02,PSS_item03,PSS_item04,PSS_item05,PSS_item06,PSS_item07,PSS_item08,PSS_item09,PSS_item10,RefA,RefB,RefB1,RefB2,RefB3,RefB4,RefB5,RefB6,RefB7,Ref_PB,RightBar,UpLeft1,UpLeft2,UpLeft3,UpLeft4,UpLeft5,UpLeft6,UpRight1,UpRight2,UpRight3,UpRight4,UpRight5,UpRight6,VarA,VarA1,VarA2,VarA3,VarA4,VarB,VarB1,VarB2,VarB3,VarB4,VarB5,VarB6,Var_PB,attCheck_fileA,attCheck_fileB,attCheck_fileC,attCheck_fileD,attCheck_options,attCheck_valueA,attCheck_valueB,attCheck_valueC,attCheck_valueD,attention_check,block,break1,browser_name,choseL,choseR,consent_form1,consent_form2,consentconfirmation_form1,consentconfirmation_form2,correct,correctResponse,diet,disorder,duration,edu,ended_on,enjoy,full_version,gender,group,hunger,img,imgTask,input_age,input_meal,input_occ,input_remark,lateRespFeed,list,major_version,message,mixQ_item1,mixQ_item2,mixQ_item3,mixQ_item4,mixQ_item5,name,navigator_appName,navigator_userAgent,os,pracQ1_IDa,pracQ1_IDb,pracQ1_IDc,pracQ1_IDd,pracQ1_optionA,pracQ1_optionB,pracQ1_optionC,pracQ1_optionD,pracQ1_valueA,pracQ1_valueB,pracQ1_valueC,pracQ1_valueD,pracQ2_IDa,pracQ2_IDb,pracQ2_IDc,pracQ2_optionA,pracQ2_optionB,pracQ2_optionC,pracQ2_valueA,pracQ2_valueB,pracQ2_valueC,pracQ4_IDa,pracQ4_IDb,pracQ4_IDc,pracQ4_IDd,pracQ4_optionA,pracQ4_optionB,pracQ4_optionC,pracQ4_optionD,pracQ4_valueA,pracQ4_valueB,pracQ4_valueC,pracQ4_valueD,pracQ5_IDa,pracQ5_IDb,pracQ5_IDc,pracQ5_IDd,pracQ5_optionA,pracQ5_optionB,pracQ5_optionC,pracQ5_optionD,pracQ5_valueA,pracQ5_valueB,pracQ5_valueC,pracQ5_valueD,prefHealty,prefUnhealthy,prolific_ID,psessionID,pstudyID,rep,response,response_action,skip,snack,sublock,subtitle,task_difficulty,task_engagement,task_focus,textL,textR,time_commit,time_end,time_render,time_run,time_show,time_switch,trial_count,trial_countO,url,valence
Title,html.Page,0,2021-05-24T16:07:38.123Z,"{""labjs_version"":""20.2.2"",""labjs_build"":{""flavor"":""production"",""commit"":""a25486e0c714a0ae2ce03ff94b7bb6896854dcfa""},""location"":""https://run.pavlovia.org/E3lab/rebund/html/?PROLIFIC_PID=5c9d4168368fa2001578c7a6&STUDY_ID=60008f34cd719d13b0d706dd&SESSION_ID=60abce112496cfb0f4b9c6da"",""userAgent"":""Mozilla/5.0 (Windows NT 10.0; Win64; x64) AppleWebKit/537.36 (KHTML, like Gecko) Chrome/90.0.4430.212 Safari/537.36"",""platform"":""Win32"",""language"":""lv"",""locale"":""en-US"",""timeZone"":""Europe/Riga"",""timezoneOffset"":-180,""screen_width"":1920,""screen_height"":1080,""scroll_width"":1920,""scroll_height"":889,""window_innerWidth"":1920,""window_innerHeight"":937,""devicePixelRatio"":1}",,,,,,,,,,,,,,,,,,,,,,,,,,,,,,,,,,,,,,,,,,,,,,,,,,,,,,,,,,,,,,,,,,,,,,,,,,,,,,,,,,,,,,,,,,,,,,,,,,,,,,,,,,,,,,,,,,,8622.139000006566,,form submission,,,,,,,,,,,,,,,,,,,,,,,,,,,,,,,,,,,,,,,,,,,,,,,,,,,,,,,,,,,,,,,,,,,,,,,,,,,,,,,,,,,,,,,10498.709999985294,10498.300000006566,1859.507,1845.6000000005588,1876.161,10510.055,,,"{""PROLIFIC_PID"":""5c9d4168368fa2001578c7a6"",""STUDY_ID"":""60008f34cd719d13b0d706dd"",""SESSION_ID"":""60abce112496cfb0f4b9c6da""}",
get_systemInfo,canvas.Screen,1,2021-05-24T16:07:38.140Z,,,,,,,,,,,,,,,,,,,,,,,,,,,,,,,,,,,,,,,,,,,,,,,,,,,,,,,,,,,,,,,,,,,,,,,,,,,,,,,,,,,,,,,,,,,,,,,,,,,,,,,,,Chrome,,,,,,,,,,,4666.985999999999,,timeout,,90.0.4430.212,,,,,,,,,,,,90,,,,,,,,Netscape,"Mozilla/5.0 (Windows NT 10.0; Win64; x64) AppleWebKit/537.36 (KHTML, like Gecko) Chrome/90.0.4430.212 Safari/537.36",Windows,,,,,,,,,,,,,,,,,,,,,,,,,,,,,,,,,,,,,,,,,,,,,,,,5c9d4168368fa2001578c7a6,,60008f34cd719d13b0d706dd,,,,,,,,,,,,,10516.009999992093,10515.459999995073,10493.37,10499.649999983376,10510.055,15177.041,,,,
ConsentForm,html.Form,2_0,2021-05-24T16:10:27.291Z,,,,,,,,,,,,,,,,,,,,,,,,,,,,,,,,,,,,,,,,,,,,,,,,,,,,,,,,,,,,,,,,,,,,,,,,,,,,,,,,,,,,,,,,,,,,,,,,,,,,,,,,,,,,true,true,,,,,,,164489.45399998312,,form submission,,,,,,,,,,,,,,,,,,,,,,,,,,,,,,,,,,,,,,,,,,,,,,,,,,,,,,,,,,,,,,,,,,,,,,,,,,,,,,,,,,,,,,,179666.75499998382,179666.49499998312,10515.459999995073,15182.830000005197,15177.041,179670.999,,,,
PepTalk,html.Page,2_1,2021-05-24T16:10:45.641Z,,,,,,,,,,,,,,,,,,,,,,,,,,,,,,,,,,,,,,,,,,,,,,,,,,,,,,,,,,,,,,,,,,,,,,,,,,,,,,,,,,,,,,,,,,,,,,,,,,,,,,,,,,,,,,,,,,,,18345.755999989633,,form submission,,,,,,,,,,,,,,,,,,,,,,,,,,,,,,,,,,,,,,,,,,,,,,,,,,,,,,,,,,,,,,,,,,,,,,,,,,,,,,,,,,,,,,,198017.01499999035,198016.75499998964,179654.312,179666.89999998198,179670.999,198022.19,,,,
Demographics,html.Form,2_2,2021-05-24T16:11:39.914Z,,,,,,,,,,,,,,,,,,,,,,,,,,,,,,,,,,,,,,,,,,,,,,,,,,,,,,,,,,,,,,,,,,,,,,,,,,,,,,,,,,,,,,,,,,,,,,,,,,,,,,,,,,,,,,,,,,,,54267.65499999205,3,form submission,,,2,,,,,30,,Process Engineer,,,,,,,,,,,,,,,,,,,,,,,,,,,,,,,,,,,,,,,,,,,,,,,,,,,,,,,,,,,,,,,,,,,,,,,,,,,,,252290.0699999882,252289.84499999206,198005.483,198017.14999999967,198022.19,252292.378,,,,
InclusionCrit,html.Form,2_3,2021-05-24T16:12:07.851Z,,,,,,,,,,,,,,,,,,,,,,,,,,,,,,,,,,,,,,,,,,,,,,,,,,,,,,,,,,,,,,,,,,,,,,,,,,,,,,,,,,,,,,,,,,,,,,,,,,,,,,,,,,,,,,,,,,1,1,27933.551999985968,,form submission,1,,,,,,,,,,,,,,,,,,,,,,,,,,,,,,,,,,,,,,,,,,,,,,,,,,,,,,,,,,,,,,,,,,,,,,,,,,,,,,,,,,,,,,280226.170000009,280225.92999998596,252275.652,252290.19999998854,252292.378,280227.424,,,,
Selection,html.Page,2_4_0,2021-05-24T16:12:32.378Z,,,,,,,,,,,,,,,,,,,,,,,,,,,,,,,,,,,,,,,,,,,,,,,,,,,,,,,,,,,,,,,,,,,,,,,,,,,,,,,,,,,,,,,,,,,,,,,,,,,,,,,,,,,,,,,,,,,,24525.315999996266,,form submission,,,,,,,,,,,,,,,,,,,,,,,,,,,,,,,,,,,,,,,,,,,,,,,,,,,,,,,,,,,,,,,,,,,,,,,,,,,,,,,1,,,,,,,,304752.9799999902,304752.73999999627,280210.764,280226.37499999837,280227.424,304762.329,,,,
Load,html.Page,2_4_1,2021-05-24T16:12:32.389Z,,,,,,,,,,,,,,,,,,,,,,,,,,,,,,,,,,,,,,,,,,,,,,,,,,,,,,,,,,,,,,,,,,,,,,,,,,,,,,,,,,,,,,,,,,,,,,,,,,,,,,,,,,,,,,,,,,,,4450.326000000001,,timeout,,,,,,,,,,,,,,,,,,,,,,,,,,,,,,,,,,,,,,,,,,,,,,,,,,,,,,,,,,,,,,,,,,,,,,,,,,,,,,,,,,,,,,,304764.3000000098,304763.95999998203,304745.663,304753.1049999816,304762.329,309212.655,,,,
SequenceSweet,flow.Sequence,2_4_2,2021-05-24T16:12:34.429Z,,,,,,,,,,,,,,,,,,,,,,,,,,,,,,,,,,,,,,,,,,,,,,,,,,,,,,,,,,,,,,,,,,,,,,,,,,,,,,,,,,,,,,,,,,,,,,,,,,,,,,,,,,,,,,,,,,,,NaN,,skipped,,,,,,,,,,,,,,,,,,,,,,,,,,,,,,,,,,,,,,,,,,,,,,,,,,,,,,,,,,,,,,,,,,,,,,,,,,,,,,true,,,,,,,,,306804.2049999931,304763.95999998203,,306803.8850000012,,309212.655,0,0,,
ratings_instructions,html.Screen,2_4_3_0,2021-05-24T16:13:24.205Z,,,,,,,,,,,,,,,,,,,,,,,,,,,,,,,,,,,,,,,,,,,,,,,,,,,,,,,,,,,,,,,,,,,,,,,,,,,,,,,,,,,,,,,,,,,,,,,,,,,,,,,,,,,,,,,,,,,,47365.949999987846,,response,,,,,,,,,,,,,,,,,,,,,,,,,,,,,,,,,,,,,,,,,,,,,,,,,,,,,,,,,,,,,,,,,,,,,,,,,,,,continue,keypress(Space),false,,,,,,,,,356580.82000000286,356578.6049999879,304763.95999998203,309238.5049999866,309212.655,356582.317,0,0,,
fixCross,canvas.Screen,2_4_3_1_0_0,2021-05-24T16:13:24.690Z,,,,,,,,,,,,,,,,,,,,,,,,,,,,,,,,,,,,,,,,,,,,,,,,,,,,,,,,,,,,,,,,,,,,,,,,,,,,,,,,,,,,,,,,,,,,,,,,,,,,,,,,,,,,,,,,,,,,500.05200000002515,,timeout,,,,healthy,,radish.png,,,,,,,,,,,,,,,radish,,,,,,,,,,,,,,,,,,,,,,,,,,,,,,,,,,,,,,,,,,,,,,,,,,,,,,,,,false,,,,,,,,,357066.2000000011,357065.637,356565.517,356581.3799999887,356582.317,357082.369,,,,
Rating,html.Form,2_4_3_1_0_1,2021-05-24T16:13:41.642Z,,,,,,,,,,,,,,,,,,,,,,,,,,,,,,,,,,,,,,,,,,,,,,,,,,,,,,,,,,,,,,,,,,,,,,,,,,,,,,,,,,,,,,,,,,,,,,,,,,,,,,,,,,,,,,,,,,,,16934.77099998173,,form submission,,,,healthy,,radish.png,,,,,,,,,,,,,,,radish,,,,,,,,,,,,,,,,,,,,,,,,,,,,,,,,,,,,,,,,,,,,,,,,,,,,,,,,,false,,,,,,,,,374017.3950000026,374017.13999998174,357065.637,357066.31999998353,357082.369,374016.742,,,,34
rating_sequence,flow.Sequence,2_4_3_1_0,2021-05-24T16:13:41.642Z,,,,,,,,,,,,,,,,,,,,,,,,,,,,,,,,,,,,,,,,,,,,,,,,,,,,,,,,,,,,,,,,,,,,,,,,,,,,,,,,,,,,,,,,,,,,,,,,,,,,,,,,,,,,,,,,,,,,17434.822999981756,,completion,,,,healthy,,radish.png,,,,,,,,,,,,,,,radish,,,,,,,,,,,,,,,,,,,,,,,,,,,,,,,,,,,,,,,,,,,,,,,,,,,,,,,,,false,,,,,,,,,374017.6999999967,374017.13999998174,356565.517,356581.3349999953,356582.317,374016.742,,,,
fixCross,canvas.Screen,2_4_3_1_1_0,2021-05-24T16:13:42.125Z,,,,,,,,,,,,,,,,,,,,,,,,,,,,,,,,,,,,,,,,,,,,,,,,,,,,,,,,,,,,,,,,,,,,,,,,,,,,,,,,,,,,,,,,,,,,,,,,,,,,,,,,,,,,,,,,,,,,500.04999999998836,,timeout,,,,unhealthy,,sausage.png,,,,,,,,,,,,,,,salami,,,,,,,,,,,,,,,,,,,,,,,,,,,,,,,,,,,,,,,,,,,,,,,,,,,,,,,,,false,,,,,,,,,374500.5200000014,374500.1,374000.06,374017.87499999045,374016.742,374516.792,,,,
Rating,html.Form,2_4_3_1_1_1,2021-05-24T16:13:53.918Z,,,,,,,,,,,,,,,,,,,,,,,,,,,,,,,,,,,,,,,,,,,,,,,,,,,,,,,,,,,,,,,,,,,,,,,,,,,,,,,,,,,,,,,,,,,,,,,,,,,,,,,,,,,,,,,,,,,,11776.88800000248,,form submission,,,,unhealthy,,sausage.png,,,,,,,,,,,,,,,salami,,,,,,,,,,,,,,,,,,,,,,,,,,,,,,,,,,,,,,,,,,,,,,,,,,,,,,,,,false,,,,,,,,,386293.85499999626,386293.6800000025,374500.1,374500.6649999996,374516.792,386300.84,,,,94
rating_sequence,flow.Sequence,2_4_3_1_1,2021-05-24T16:13:53.918Z,,,,,,,,,,,,,,,,,,,,,,,,,,,,,,,,,,,,,,,,,,,,,,,,,,,,,,,,,,,,,,,,,,,,,,,,,,,,,,,,,,,,,,,,,,,,,,,,,,,,,,,,,,,,,,,,,,,,12276.938000002468,,completion,,,,unhealthy,,sausage.png,,,,,,,,,,,,,,,salami,,,,,,,,,,,,,,,,,,,,,,,,,,,,,,,,,,,,,,,,,,,,,,,,,,,,,,,,,false,,,,,,,,,386294.02999999,386293.6800000025,374000.06,374017.835000006,374016.742,386300.84,,,,
fixCross,canvas.Screen,2_4_3_1_2_0,2021-05-24T16:13:54.409Z,,,,,,,,,,,,,,,,,,,,,,,,,,,,,,,,,,,,,,,,,,,,,,,,,,,,,,,,,,,,,,,,,,,,,,,,,,,,,,,,,,,,,,,,,,,,,,,,,,,,,,,,,,,,,,,,,,,,500.03699999995297,,timeout,,,,unhealthy,,ritz.png,,,,,,,,,,,,,,,cracker,,,,,,,,,,,,,,,,,,,,,,,,,,,,,,,,,,,,,,,,,,,,,,,,,,,,,,,,,false,,,,,,,,,386784.63499998907,386784.208,386284.164,386294.15999999037,386300.84,386800.877,,,,
Rating,html.Form,2_4_3_1_2_1,2021-05-24T16:14:12.562Z,,,,,,,,,,,,,,,,,,,,,,,,,,,,,,,,,,,,,,,,,,,,,,,,,,,,,,,,,,,,,,,,,,,,,,,,,,,,,,,,,,,,,,,,,,,,,,,,,,,,,,,,,,,,,,,,,,,,18136.23299999896,,form submission,,,,unhealthy,,ritz.png,,,,,,,,,,,,,,,cracker,,,,,,,,,,,,,,,,,,,,,,,,,,,,,,,,,,,,,,,,,,,,,,,,,,,,,,,,,false,,,,,,,,,404937.29500001064,404937.10999999894,386784.208,386784.7849999962,386800.877,404952.023,,,,79
rating_sequence,flow.Sequence,2_4_3_1_2,2021-05-24T16:14:12.562Z,,,,,,,,,,,,,,,,,,,,,,,,,,,,,,,,,,,,,,,,,,,,,,,,,,,,,,,,,,,,,,,,,,,,,,,,,,,,,,,,,,,,,,,,,,,,,,,,,,,,,,,,,,,,,,,,,,,,18636.269999998913,,completion,,,,unhealthy,,ritz.png,,,,,,,,,,,,,,,cracker,,,,,,,,,,,,,,,,,,,,,,,,,,,,,,,,,,,,,,,,,,,,,,,,,,,,,,,,,false,,,,,,,,,404937.4850000022,404937.10999999894,386284.164,386294.11499999696,386300.84,404952.023,,,,
fixCross,canvas.Screen,2_4_3_1_3_0,2021-05-24T16:14:13.060Z,,,,,,,,,,,,,,,,,,,,,,,,,,,,,,,,,,,,,,,,,,,,,,,,,,,,,,,,,,,,,,,,,,,,,,,,,,,,,,,,,,,,,,,,,,,,,,,,,,,,,,,,,,,,,,,,,,,,500.04200000001583,,timeout,,,,healthy,,pickle.png,,,,,,,,,,,,,,,pickle,,,,,,,,,,,,,,,,,,,,,,,,,,,,,,,,,,,,,,,,,,,,,,,,,,,,,,,,,false,,,,,,,,,405435.80499998643,405435.388,404935.347,404937.6099999936,404952.023,405452.065,,,,
Rating,html.Form,2_4_3_1_3_1,2021-05-24T16:14:17.257Z,,,,,,,,,,,,,,,,,,,,,,,,,,,,,,,,,,,,,,,,,,,,,,,,,,,,,,,,,,,,,,,,,,,,,,,,,,,,,,,,,,,,,,,,,,,,,,,,,,,,,,,,,,,,,,,,,,,,4180.604999991774,,form submission,,,,healthy,,pickle.png,,,,,,,,,,,,,,,pickle,,,,,,,,,,,,,,,,,,,,,,,,,,,,,,,,,,,,,,,,,,,,,,,,,,,,,,,,,false,,,,,,,,,409632.89000000805,409632.6699999918,405435.388,405435.9300000069,405452.065,409635.687,,,,95
rating_sequence,flow.Sequence,2_4_3_1_3,2021-05-24T16:14:17.257Z,,,,,,,,,,,,,,,,,,,,,,,,,,,,,,,,,,,,,,,,,,,,,,,,,,,,,,,,,,,,,,,,,,,,,,,,,,,,,,,,,,,,,,,,,,,,,,,,,,,,,,,,,,,,,,,,,,,,4680.64699999179,,completion,,,,healthy,,pickle.png,,,,,,,,,,,,,,,pickle,,,,,,,,,,,,,,,,,,,,,,,,,,,,,,,,,,,,,,,,,,,,,,,,,,,,,,,,,false,,,,,,,,,409633.08999998844,409632.6699999918,404935.347,404937.574999989,404952.023,409635.687,,,,
fixCross,canvas.Screen,2_4_3_1_4_0,2021-05-24T16:14:17.744Z,,,,,,,,,,,,,,,,,,,,,,,,,,,,,,,,,,,,,,,,,,,,,,,,,,,,,,,,,,,,,,,,,,,,,,,,,,,,,,,,,,,,,,,,,,,,,,,,,,,,,,,,,,,,,,,,,,,,500.02800000004936,,timeout,,,,unhealthy,,ham.png,,,,,,,,,,,,,,,ham,,,,,,,,,,,,,,,,,,,,,,,,,,,,,,,,,,,,,,,,,,,,,,,,,,,,,,,,,false,,,,,,,,,410119.55499998294,410119.029,409618.988,409633.22499999776,409635.687,410135.715,,,,
Rating,html.Form,2_4_3_1_4_1,2021-05-24T16:14:22.680Z,,,,,,,,,,,,,,,,,,,,,,,,,,,,,,,,,,,,,,,,,,,,,,,,,,,,,,,,,,,,,,,,,,,,,,,,,,,,,,,,,,,,,,,,,,,,,,,,,,,,,,,,,,,,,,,,,,,,4920.274999993446,,form submission,,,,unhealthy,,ham.png,,,,,,,,,,,,,,,ham,,,,,,,,,,,,,,,,,,,,,,,,,,,,,,,,,,,,,,,,,,,,,,,,,,,,,,,,,false,,,,,,,,,415056.1699999962,415055.9899999935,410119.029,410119.69500000123,410135.715,415069.359,,,,61
rating_sequence,flow.Sequence,2_4_3_1_4,2021-05-24T16:14:22.680Z,,,,,,,,,,,,,,,,,,,,,,,,,,,,,,,,,,,,,,,,,,,,,,,,,,,,,,,,,,,,,,,,,,,,,,,,,,,,,,,,,,,,,,,,,,,,,,,,,,,,,,,,,,,,,,,,,,,,5420.302999993495,,completion,,,,unhealthy,,ham.png,,,,,,,,,,,,,,,ham,,,,,,,,,,,,,,,,,,,,,,,,,,,,,,,,,,,,,,,,,,,,,,,,,,,,,,,,,false,,,,,,,,,415056.34499998996,415055.9899999935,409618.988,409633.19500000216,409635.687,415069.359,,,,
fixCross,canvas.Screen,2_4_3_1_5_0,2021-05-24T16:14:23.177Z,,,,,,,,,,,,,,,,,,,,,,,,,,,,,,,,,,,,,,,,,,,,,,,,,,,,,,,,,,,,,,,,,,,,,,,,,,,,,,,,,,,,,,,,,,,,,,,,,,,,,,,,,,,,,,,,,,,,500.0360000000219,,timeout,,,,healthy,,cucumber.png,,,,,,,,,,,,,,,cucumber,,,,,,,,,,,,,,,,,,,,,,,,,,,,,,,,,,,,,,,,,,,,,,,,,,,,,,,,,false,,,,,,,,,415553.0549999967,415552.687,415052.655,415056.4799999993,415069.359,415569.395,,,,
Rating,html.Form,2_4_3_1_5_1,2021-05-24T16:14:27.573Z,,,,,,,,,,,,,,,,,,,,,,,,,,,,,,,,,,,,,,,,,,,,,,,,,,,,,,,,,,,,,,,,,,,,,,,,,,,,,,,,,,,,,,,,,,,,,,,,,,,,,,,,,,,,,,,,,,,,4379.69999998901,,form submission,,,,healthy,,cucumber.png,,,,,,,,,,,,,,,cucumber,,,,,,,,,,,,,,,,,,,,,,,,,,,,,,,,,,,,,,,,,,,,,,,,,,,,,,,,,false,,,,,,,,,419949.2949999985,419949.094999989,415552.687,415553.1550000014,415569.395,419953.015,,,,83
rating_sequence,flow.Sequence,2_4_3_1_5,2021-05-24T16:14:27.574Z,,,,,,,,,,,,,,,,,,,,,,,,,,,,,,,,,,,,,,,,,,,,,,,,,,,,,,,,,,,,,,,,,,,,,,,,,,,,,,,,,,,,,,,,,,,,,,,,,,,,,,,,,,,,,,,,,,,,4879.735999989032,,completion,,,,healthy,,cucumber.png,,,,,,,,,,,,,,,cucumber,,,,,,,,,,,,,,,,,,,,,,,,,,,,,,,,,,,,,,,,,,,,,,,,,,,,,,,,,false,,,,,,,,,419949.495000008,419949.094999989,415052.655,415056.43999998574,415069.359,419953.015,,,,
fixCross,canvas.Screen,2_4_3_1_6_0,2021-05-24T16:14:28.061Z,,,,,,,,,,,,,,,,,,,,,,,,,,,,,,,,,,,,,,,,,,,,,,,,,,,,,,,,,,,,,,,,,,,,,,,,,,,,,,,,,,,,,,,,,,,,,,,,,,,,,,,,,,,,,,,,,,,,500.00500000000466,,timeout,,,,unhealthy,,frie.png,,,,,,,,,,,,,,,frie,,,,,,,,,,,,,,,,,,,,,,,,,,,,,,,,,,,,,,,,,,,,,,,,,,,,,,,,,false,,,,,,,,,420436.97000000975,420436.337,419936.297,419949.62999998825,419953.015,420453.02,,,,
Rating,html.Form,2_4_3_1_6_1,2021-05-24T16:14:33.032Z,,,,,,,,,,,,,,,,,,,,,,,,,,,,,,,,,,,,,,,,,,,,,,,,,,,,,,,,,,,,,,,,,,,,,,,,,,,,,,,,,,,,,,,,,,,,,,,,,,,,,,,,,,,,,,,,,,,,4954.444999996573,,form submission,,,,unhealthy,,frie.png,,,,,,,,,,,,,,,frie,,,,,,,,,,,,,,,,,,,,,,,,,,,,,,,,,,,,,,,,,,,,,,,,,,,,,,,,,false,,,,,,,,,425407.6350000105,425407.4649999966,420436.337,420437.10999999894,420453.02,425419.997,,,,60
rating_sequence,flow.Sequence,2_4_3_1_6,2021-05-24T16:14:33.032Z,,,,,,,,,,,,,,,,,,,,,,,,,,,,,,,,,,,,,,,,,,,,,,,,,,,,,,,,,,,,,,,,,,,,,,,,,,,,,,,,,,,,,,,,,,,,,,,,,,,,,,,,,,,,,,,,,,,,5454.449999996577,,completion,,,,unhealthy,,frie.png,,,,,,,,,,,,,,,frie,,,,,,,,,,,,,,,,,,,,,,,,,,,,,,,,,,,,,,,,,,,,,,,,,,,,,,,,,false,,,,,,,,,425407.8049999953,425407.4649999966,419936.297,419949.5900000038,419953.015,425419.997,,,,
fixCross,canvas.Screen,2_4_3_1_7_0,2021-05-24T16:14:33.529Z,,,,,,,,,,,,,,,,,,,,,,,,,,,,,,,,,,,,,,,,,,,,,,,,,,,,,,,,,,,,,,,,,,,,,,,,,,,,,,,,,,,,,,,,,,,,,,,,,,,,,,,,,,,,,,,,,,,,500.05200000002515,,timeout,,,,healthy,,carrot.png,,,,,,,,,,,,,,,carrot,,,,,,,,,,,,,,,,,,,,,,,,,,,,,,,,,,,,,,,,,,,,,,,,,,,,,,,,,false,,,,,,,,,425904.6800000069,425903.366,425403.315,425407.9250000068,425419.997,425920.049,,,,
Rating,html.Form,2_4_3_1_7_1,2021-05-24T16:14:35.795Z,,,,,,,,,,,,,,,,,,,,,,,,,,,,,,,,,,,,,,,,,,,,,,,,,,,,,,,,,,,,,,,,,,,,,,,,,,,,,,,,,,,,,,,,,,,,,,,,,,,,,,,,,,,,,,,,,,,,2251.036000009044,,form submission,,,,healthy,,carrot.png,,,,,,,,,,,,,,,carrot,,,,,,,,,,,,,,,,,,,,,,,,,,,,,,,,,,,,,,,,,,,,,,,,,,,,,,,,,false,,,,,,,,,428171.2950000074,428171.08500000904,425903.366,425904.8049999983,425920.049,428186.836,,,,50
rating_sequence,flow.Sequence,2_4_3_1_7,2021-05-24T16:14:35.796Z,,,,,,,,,,,,,,,,,,,,,,,,,,,,,,,,,,,,,,,,,,,,,,,,,,,,,,,,,,,,,,,,,,,,,,,,,,,,,,,,,,,,,,,,,,,,,,,,,,,,,,,,,,,,,,,,,,,,2751.088000009069,,completion,,,,healthy,,carrot.png,,,,,,,,,,,,,,,carrot,,,,,,,,,,,,,,,,,,,,,,,,,,,,,,,,,,,,,,,,,,,,,,,,,,,,,,,,,false,,,,,,,,,428171.4949999878,428171.08500000904,425403.315,425407.88499999326,425419.997,428186.836,,,,
fixCross,canvas.Screen,2_4_3_1_8_0,2021-05-24T16:14:36.295Z,,,,,,,,,,,,,,,,,,,,,,,,,,,,,,,,,,,,,,,,,,,,,,,,,,,,,,,,,,,,,,,,,,,,,,,,,,,,,,,,,,,,,,,,,,,,,,,,,,,,,,,,,,,,,,,,,,,,500.0679999999702,,timeout,,,,healthy,,edamame.png,,,,,,,,,,,,,,,edamame,,,,,,,,,,,,,,,,,,,,,,,,,,,,,,,,,,,,,,,,,,,,,,,,,,,,,,,,,false,,,,,,,,,428670.5349999829,428670.184,428170.158,428171.6149999993,428186.836,428686.904,,,,
Rating,html.Form,2_4_3_1_8_1,2021-05-24T16:14:43.077Z,,,,,,,,,,,,,,,,,,,,,,,,,,,,,,,,,,,,,,,,,,,,,,,,,,,,,,,,,,,,,,,,,,,,,,,,,,,,,,,,,,,,,,,,,,,,,,,,,,,,,,,,,,,,,,,,,,,,6765.340999993146,,form submission,,,,healthy,,edamame.png,,,,,,,,,,,,,,,edamame,,,,,,,,,,,,,,,,,,,,,,,,,,,,,,,,,,,,,,,,,,,,,,,,,,,,,,,,,false,,,,,,,,,435452.45499999146,435452.2449999931,428670.184,428670.63499998767,428686.904,435453.972,,,,67
rating_sequence,flow.Sequence,2_4_3_1_8,2021-05-24T16:14:43.077Z,,,,,,,,,,,,,,,,,,,,,,,,,,,,,,,,,,,,,,,,,,,,,,,,,,,,,,,,,,,,,,,,,,,,,,,,,,,,,,,,,,,,,,,,,,,,,,,,,,,,,,,,,,,,,,,,,,,,7265.408999993117,,completion,,,,healthy,,edamame.png,,,,,,,,,,,,,,,edamame,,,,,,,,,,,,,,,,,,,,,,,,,,,,,,,,,,,,,,,,,,,,,,,,,,,,,,,,,false,,,,,,,,,435452.644999983,435452.2449999931,428170.158,428171.5799999947,428186.836,435453.972,,,,
fixCross,canvas.Screen,2_4_3_1_9_0,2021-05-24T16:14:43.562Z,,,,,,,,,,,,,,,,,,,,,,,,,,,,,,,,,,,,,,,,,,,,,,,,,,,,,,,,,,,,,,,,,,,,,,,,,,,,,,,,,,,,,,,,,,,,,,,,,,,,,,,,,,,,,,,,,,,,500.0339999999851,,timeout,,,,unhealthy,,nacho.png,,,,,,,,,,,,,,,nacho,,,,,,,,,,,,,,,,,,,,,,,,,,,,,,,,,,,,,,,,,,,,,,,,,,,,,,,,,false,,,,,,,,,435937.6849999826,435937.323,435437.269,435452.7700000035,435453.972,435954.006,,,,
Rating,html.Form,2_4_3_1_9_1,2021-05-24T16:14:49.732Z,,,,,,,,,,,,,,,,,,,,,,,,,,,,,,,,,,,,,,,,,,,,,,,,,,,,,,,,,,,,,,,,,,,,,,,,,,,,,,,,,,,,,,,,,,,,,,,,,,,,,,,,,,,,,,,,,,,,6153.1939999985625,,form submission,,,,unhealthy,,nacho.png,,,,,,,,,,,,,,,nacho,,,,,,,,,,,,,,,,,,,,,,,,,,,,,,,,,,,,,,,,,,,,,,,,,,,,,,,,,false,,,,,,,,,442107.4049999879,442107.19999999856,435937.323,435937.78499998734,435954.006,442121.056,,,,16
rating_sequence,flow.Sequence,2_4_3_1_9,2021-05-24T16:14:49.732Z,,,,,,,,,,,,,,,,,,,,,,,,,,,,,,,,,,,,,,,,,,,,,,,,,,,,,,,,,,,,,,,,,,,,,,,,,,,,,,,,,,,,,,,,,,,,,,,,,,,,,,,,,,,,,,,,,,,,6653.227999998548,,completion,,,,unhealthy,,nacho.png,,,,,,,,,,,,,,,nacho,,,,,,,,,,,,,,,,,,,,,,,,,,,,,,,,,,,,,,,,,,,,,,,,,,,,,,,,,false,,,,,,,,,442107.5950000086,442107.19999999856,435437.269,435452.73499999894,435453.972,442121.056,,,,
fixCross,canvas.Screen,2_4_3_1_10_0,2021-05-24T16:14:50.229Z,,,,,,,,,,,,,,,,,,,,,,,,,,,,,,,,,,,,,,,,,,,,,,,,,,,,,,,,,,,,,,,,,,,,,,,,,,,,,,,,,,,,,,,,,,,,,,,,,,,,,,,,,,,,,,,,,,,,500.03800000000047,,timeout,,,,healthy,,cashew.png,,,,,,,,,,,,,,,cashew,,,,,,,,,,,,,,,,,,,,,,,,,,,,,,,,,,,,,,,,,,,,,,,,,,,,,,,,,false,,,,,,,,,442605.00499999034,442604.451,442104.374,442107.714999991,442121.056,442621.094,,,,
Rating,html.Form,2_4_3_1_10_1,2021-05-24T16:14:58.623Z,,,,,,,,,,,,,,,,,,,,,,,,,,,,,,,,,,,,,,,,,,,,,,,,,,,,,,,,,,,,,,,,,,,,,,,,,,,,,,,,,,,,,,,,,,,,,,,,,,,,,,,,,,,,,,,,,,,,8377.79599998804,,form submission,,,,healthy,,cashew.png,,,,,,,,,,,,,,,cashew,,,,,,,,,,,,,,,,,,,,,,,,,,,,,,,,,,,,,,,,,,,,,,,,,,,,,,,,,false,,,,,,,,,450999.05499999295,450998.889999988,442604.451,442605.1299999817,442621.094,451004.94,,,,55
rating_sequence,flow.Sequence,2_4_3_1_10,2021-05-24T16:14:58.623Z,,,,,,,,,,,,,,,,,,,,,,,,,,,,,,,,,,,,,,,,,,,,,,,,,,,,,,,,,,,,,,,,,,,,,,,,,,,,,,,,,,,,,,,,,,,,,,,,,,,,,,,,,,,,,,,,,,,,8877.83399998804,,completion,,,,healthy,,cashew.png,,,,,,,,,,,,,,,cashew,,,,,,,,,,,,,,,,,,,,,,,,,,,,,,,,,,,,,,,,,,,,,,,,,,,,,,,,,false,,,,,,,,,450999.2149999889,450998.889999988,442104.374,442107.6849999954,442121.056,451004.94,,,,
fixCross,canvas.Screen,2_4_3_1_11_0,2021-05-24T16:14:59.113Z,,,,,,,,,,,,,,,,,,,,,,,,,,,,,,,,,,,,,,,,,,,,,,,,,,,,,,,,,,,,,,,,,,,,,,,,,,,,,,,,,,,,,,,,,,,,,,,,,,,,,,,,,,,,,,,,,,,,500.045999999973,,timeout,,,,healthy,,celery.png,,,,,,,,,,,,,,,celery,,,,,,,,,,,,,,,,,,,,,,,,,,,,,,,,,,,,,,,,,,,,,,,,,,,,,,,,,false,,,,,,,,,451488.69999998715,451488.309,450988.305,450999.32999999146,451004.94,451504.986,,,,
Rating,html.Form,2_4_3_1_11_1,2021-05-24T16:15:05.888Z,,,,,,,,,,,,,,,,,,,,,,,,,,,,,,,,,,,,,,,,,,,,,,,,,,,,,,,,,,,,,,,,,,,,,,,,,,,,,,,,,,,,,,,,,,,,,,,,,,,,,,,,,,,,,,,,,,,,6758.983999999997,,form submission,,,,healthy,,celery.png,,,,,,,,,,,,,,,celery,,,,,,,,,,,,,,,,,,,,,,,,,,,,,,,,,,,,,,,,,,,,,,,,,,,,,,,,,false,,,,,,,,,458264.1700000095,458263.97,451488.309,451488.7999999919,451504.986,458272.083,,,,0
rating_sequence,flow.Sequence,2_4_3_1_11,2021-05-24T16:15:05.888Z,,,,,,,,,,,,,,,,,,,,,,,,,,,,,,,,,,,,,,,,,,,,,,,,,,,,,,,,,,,,,,,,,,,,,,,,,,,,,,,,,,,,,,,,,,,,,,,,,,,,,,,,,,,,,,,,,,,,7259.02999999997,,completion,,,,healthy,,celery.png,,,,,,,,,,,,,,,celery,,,,,,,,,,,,,,,,,,,,,,,,,,,,,,,,,,,,,,,,,,,,,,,,,,,,,,,,,false,,,,,,,,,458264.36999998987,458263.97,450988.305,450999.2949999869,451004.94,458272.083,,,,
fixCross,canvas.Screen,2_4_3_1_12_0,2021-05-24T16:15:06.380Z,,,,,,,,,,,,,,,,,,,,,,,,,,,,,,,,,,,,,,,,,,,,,,,,,,,,,,,,,,,,,,,,,,,,,,,,,,,,,,,,,,,,,,,,,,,,,,,,,,,,,,,,,,,,,,,,,,,,500.03800000000047,,timeout,,,,healthy,,walnut.png,,,,,,,,,,,,,,,walnut,,,,,,,,,,,,,,,,,,,,,,,,,,,,,,,,,,,,,,,,,,,,,,,,,,,,,,,,,false,,,,,,,,,458755.81499998225,458755.423,458255.398,458264.49500001036,458272.083,458772.121,,,,
Rating,html.Form,2_4_3_1_12_1,2021-05-24T16:15:09.945Z,,,,,,,,,,,,,,,,,,,,,,,,,,,,,,,,,,,,,,,,,,,,,,,,,,,,,,,,,,,,,,,,,,,,,,,,,,,,,,,,,,,,,,,,,,,,,,,,,,,,,,,,,,,,,,,,,,,,3548.433999983885,,form submission,,,,healthy,,walnut.png,,,,,,,,,,,,,,,walnut,,,,,,,,,,,,,,,,,,,,,,,,,,,,,,,,,,,,,,,,,,,,,,,,,,,,,,,,,false,,,,,,,,,462320.76000000234,462320.55499998387,458755.423,458755.9499999916,458772.121,462322.33,,,,59
rating_sequence,flow.Sequence,2_4_3_1_12,2021-05-24T16:15:09.945Z,,,,,,,,,,,,,,,,,,,,,,,,,,,,,,,,,,,,,,,,,,,,,,,,,,,,,,,,,,,,,,,,,,,,,,,,,,,,,,,,,,,,,,,,,,,,,,,,,,,,,,,,,,,,,,,,,,,,4048.4719999838853,,completion,,,,healthy,,walnut.png,,,,,,,,,,,,,,,walnut,,,,,,,,,,,,,,,,,,,,,,,,,,,,,,,,,,,,,,,,,,,,,,,,,,,,,,,,,false,,,,,,,,,462320.9199999983,462320.55499998387,458255.398,458264.4549999968,458272.083,462322.33,,,,
fixCross,canvas.Screen,2_4_3_1_13_0,2021-05-24T16:15:10.430Z,,,,,,,,,,,,,,,,,,,,,,,,,,,,,,,,,,,,,,,,,,,,,,,,,,,,,,,,,,,,,,,,,,,,,,,,,,,,,,,,,,,,,,,,,,,,,,,,,,,,,,,,,,,,,,,,,,,,500.0439999999944,,timeout,,,,healthy,,tomato.png,,,,,,,,,,,,,,,cherry tomato,,,,,,,,,,,,,,,,,,,,,,,,,,,,,,,,,,,,,,,,,,,,,,,,,,,,,,,,,false,,,,,,,,,462806.0499999847,462805.685,462305.676,462321.03500000085,462322.33,462822.374,,,,
Rating,html.Form,2_4_3_1_13_1,2021-05-24T16:15:14.255Z,,,,,,,,,,,,,,,,,,,,,,,,,,,,,,,,,,,,,,,,,,,,,,,,,,,,,,,,,,,,,,,,,,,,,,,,,,,,,,,,,,,,,,,,,,,,,,,,,,,,,,,,,,,,,,,,,,,,3808.6759999963106,,form submission,,,,healthy,,tomato.png,,,,,,,,,,,,,,,cherry tomato,,,,,,,,,,,,,,,,,,,,,,,,,,,,,,,,,,,,,,,,,,,,,,,,,,,,,,,,,false,,,,,,,,,466631.24499999685,466631.0499999963,462805.685,462806.14999998943,462822.374,466639.279,,,,65
rating_sequence,flow.Sequence,2_4_3_1_13,2021-05-24T16:15:14.256Z,,,,,,,,,,,,,,,,,,,,,,,,,,,,,,,,,,,,,,,,,,,,,,,,,,,,,,,,,,,,,,,,,,,,,,,,,,,,,,,,,,,,,,,,,,,,,,,,,,,,,,,,,,,,,,,,,,,,4308.719999996305,,completion,,,,healthy,,tomato.png,,,,,,,,,,,,,,,cherry tomato,,,,,,,,,,,,,,,,,,,,,,,,,,,,,,,,,,,,,,,,,,,,,,,,,,,,,,,,,false,,,,,,,,,466631.43000000855,466631.0499999963,462305.676,462320.9999999963,462322.33,466639.279,,,,
fixCross,canvas.Screen,2_4_3_1_14_0,2021-05-24T16:15:14.747Z,,,,,,,,,,,,,,,,,,,,,,,,,,,,,,,,,,,,,,,,,,,,,,,,,,,,,,,,,,,,,,,,,,,,,,,,,,,,,,,,,,,,,,,,,,,,,,,,,,,,,,,,,,,,,,,,,,,,500.0360000000219,,timeout,,,,unhealthy,,chips.png,,,,,,,,,,,,,,,potato chip,,,,,,,,,,,,,,,,,,,,,,,,,,,,,,,,,,,,,,,,,,,,,,,,,,,,,,,,,false,,,,,,,,,467123.07500001043,467122.659,466622.593,466631.55499999993,466639.279,467139.315,,,,
Rating,html.Form,2_4_3_1_14_1,2021-05-24T16:15:17.973Z,,,,,,,,,,,,,,,,,,,,,,,,,,,,,,,,,,,,,,,,,,,,,,,,,,,,,,,,,,,,,,,,,,,,,,,,,,,,,,,,,,,,,,,,,,,,,,,,,,,,,,,,,,,,,,,,,,,,3209.279999988561,,form submission,,,,unhealthy,,chips.png,,,,,,,,,,,,,,,potato chip,,,,,,,,,,,,,,,,,,,,,,,,,,,,,,,,,,,,,,,,,,,,,,,,,,,,,,,,,false,,,,,,,,,470348.78500000923,470348.59499998856,467122.659,467123.1749999861,467139.315,470356.196,,,,81
rating_sequence,flow.Sequence,2_4_3_1_14,2021-05-24T16:15:17.973Z,,,,,,,,,,,,,,,,,,,,,,,,,,,,,,,,,,,,,,,,,,,,,,,,,,,,,,,,,,,,,,,,,,,,,,,,,,,,,,,,,,,,,,,,,,,,,,,,,,,,,,,,,,,,,,,,,,,,3709.315999988583,,completion,,,,unhealthy,,chips.png,,,,,,,,,,,,,,,potato chip,,,,,,,,,,,,,,,,,,,,,,,,,,,,,,,,,,,,,,,,,,,,,,,,,,,,,,,,,false,,,,,,,,,470348.96499998285,470348.59499998856,466622.593,466631.51999999536,466639.279,470356.196,,,,
fixCross,canvas.Screen,2_4_3_1_15_0,2021-05-24T16:15:18.464Z,,,,,,,,,,,,,,,,,,,,,,,,,,,,,,,,,,,,,,,,,,,,,,,,,,,,,,,,,,,,,,,,,,,,,,,,,,,,,,,,,,,,,,,,,,,,,,,,,,,,,,,,,,,,,,,,,,,,500.0320000000065,,timeout,,,,unhealthy,,peanut_cracker.png,,,,,,,,,,,,,,,peanut chip,,,,,,,,,,,,,,,,,,,,,,,,,,,,,,,,,,,,,,,,,,,,,,,,,,,,,,,,,false,,,,,,,,,470839.8750000051,470839.531,470339.491,470349.09000000334,470356.196,470856.228,,,,
Rating,html.Form,2_4_3_1_15_1,2021-05-24T16:15:21.691Z,,,,,,,,,,,,,,,,,,,,,,,,,,,,,,,,,,,,,,,,,,,,,,,,,,,,,,,,,,,,,,,,,,,,,,,,,,,,,,,,,,,,,,,,,,,,,,,,,,,,,,,,,,,,,,,,,,,,3209.756999993813,,form submission,,,,unhealthy,,peanut_cracker.png,,,,,,,,,,,,,,,peanut chip,,,,,,,,,,,,,,,,,,,,,,,,,,,,,,,,,,,,,,,,,,,,,,,,,,,,,,,,,false,,,,,,,,,474066.17999999435,474065.9849999938,470839.531,470839.9700000009,470856.228,474073.105,,,,81
rating_sequence,flow.Sequence,2_4_3_1_15,2021-05-24T16:15:21.691Z,,,,,,,,,,,,,,,,,,,,,,,,,,,,,,,,,,,,,,,,,,,,,,,,,,,,,,,,,,,,,,,,,,,,,,,,,,,,,,,,,,,,,,,,,,,,,,,,,,,,,,,,,,,,,,,,,,,,3709.7889999938197,,completion,,,,unhealthy,,peanut_cracker.png,,,,,,,,,,,,,,,peanut chip,,,,,,,,,,,,,,,,,,,,,,,,,,,,,,,,,,,,,,,,,,,,,,,,,,,,,,,,,false,,,,,,,,,474066.36500000604,474065.9849999938,470339.491,470349.05499999877,470356.196,474073.105,,,,
fixCross,canvas.Screen,2_4_3_1_16_0,2021-05-24T16:15:22.182Z,,,,,,,,,,,,,,,,,,,,,,,,,,,,,,,,,,,,,,,,,,,,,,,,,,,,,,,,,,,,,,,,,,,,,,,,,,,,,,,,,,,,,,,,,,,,,,,,,,,,,,,,,,,,,,,,,,,,500.00800000003073,,timeout,,,,unhealthy,,bretzel.png,,,,,,,,,,,,,,,bretzel,,,,,,,,,,,,,,,,,,,,,,,,,,,,,,,,,,,,,,,,,,,,,,,,,,,,,,,,,false,,,,,,,,,474556.80500000017,474556.427,474056.394,474066.48499998846,474073.105,474573.113,,,,
Rating,html.Form,2_4_3_1_16_1,2021-05-24T16:15:26.024Z,,,,,,,,,,,,,,,,,,,,,,,,,,,,,,,,,,,,,,,,,,,,,,,,,,,,,,,,,,,,,,,,,,,,,,,,,,,,,,,,,,,,,,,,,,,,,,,,,,,,,,,,,,,,,,,,,,,,3825.3870000102324,,form submission,,,,unhealthy,,bretzel.png,,,,,,,,,,,,,,,bretzel,,,,,,,,,,,,,,,,,,,,,,,,,,,,,,,,,,,,,,,,,,,,,,,,,,,,,,,,,false,,,,,,,,,478398.69999999064,478398.50000001024,474556.427,474556.92999999155,474573.113,478406.795,,,,76
rating_sequence,flow.Sequence,2_4_3_1_16,2021-05-24T16:15:26.024Z,,,,,,,,,,,,,,,,,,,,,,,,,,,,,,,,,,,,,,,,,,,,,,,,,,,,,,,,,,,,,,,,,,,,,,,,,,,,,,,,,,,,,,,,,,,,,,,,,,,,,,,,,,,,,,,,,,,,4325.395000010263,,completion,,,,unhealthy,,bretzel.png,,,,,,,,,,,,,,,bretzel,,,,,,,,,,,,,,,,,,,,,,,,,,,,,,,,,,,,,,,,,,,,,,,,,,,,,,,,,false,,,,,,,,,478398.8599999866,478398.50000001024,474056.394,474066.45499999286,474073.105,478406.795,,,,
fixCross,canvas.Screen,2_4_3_1_17_0,2021-05-24T16:15:26.515Z,,,,,,,,,,,,,,,,,,,,,,,,,,,,,,,,,,,,,,,,,,,,,,,,,,,,,,,,,,,,,,,,,,,,,,,,,,,,,,,,,,,,,,,,,,,,,,,,,,,,,,,,,,,,,,,,,,,,499.92399999999907,,timeout,,,,unhealthy,,dried_meat.png,,,,,,,,,,,,,,,dried meat,,,,,,,,,,,,,,,,,,,,,,,,,,,,,,,,,,,,,,,,,,,,,,,,,,,,,,,,,false,,,,,,,,,478890.4599999951,478890.059,478390.026,478398.97499998915,478406.795,478906.719,,,,
Rating,html.Form,2_4_3_1_17_1,2021-05-24T16:15:30.410Z,,,,,,,,,,,,,,,,,,,,,,,,,,,,,,,,,,,,,,,,,,,,,,,,,,,,,,,,,,,,,,,,,,,,,,,,,,,,,,,,,,,,,,,,,,,,,,,,,,,,,,,,,,,,,,,,,,,,3877.8809999845107,,form submission,,,,unhealthy,,dried_meat.png,,,,,,,,,,,,,,,dried meat,,,,,,,,,,,,,,,,,,,,,,,,,,,,,,,,,,,,,,,,,,,,,,,,,,,,,,,,,false,,,,,,,,,482784.7699999984,482784.5999999845,478890.059,478890.6100000022,478906.719,482790.324,,,,100
rating_sequence,flow.Sequence,2_4_3_1_17,2021-05-24T16:15:30.410Z,,,,,,,,,,,,,,,,,,,,,,,,,,,,,,,,,,,,,,,,,,,,,,,,,,,,,,,,,,,,,,,,,,,,,,,,,,,,,,,,,,,,,,,,,,,,,,,,,,,,,,,,,,,,,,,,,,,,4377.80499998451,,completion,,,,unhealthy,,dried_meat.png,,,,,,,,,,,,,,,dried meat,,,,,,,,,,,,,,,,,,,,,,,,,,,,,,,,,,,,,,,,,,,,,,,,,,,,,,,,,false,,,,,,,,,482784.9200000055,482784.5999999845,478390.026,478398.9399999846,478406.795,482790.324,,,,
rating_loop,flow.Loop,2_4_3_1,2021-05-24T16:15:30.410Z,,,,,,,,,,,,,,,,,,,,,,,,,,,,,,,,,,,,,,,,,,,,,,,,,,,,,,,,,,,,,,,,,,,,,,,,,,,,,,,,,,,,,,,,,,,,,,,,,,,,,,,,,,,,,,,,,,,,126202.28299998451,,completion,,,,,,,,,,,,,,,,,,,,,,,,,,,,,,,,,,,,,,,,,,,,,,,,,,,,,,,,,,,,,,,,,,,,,,,,,,,,,,false,,,,,,,,,482785.05000000587,482784.5999999845,356565.517,356581.28499999293,356582.317,482790.324,,,,
data_transmission,html.Screen,2_4_3_2,2021-05-24T16:15:30.419Z,,,,,,,,,,,,,,,,,,,,,,,,,,,,,,,,,,,,,,,,,,,,,,,,,,,,,,,,,,,,,,,,,,,,,,,,,,,,,,,,,,,,,,,,,,,,,,,,,,,,,,,,,,,,,,,,,,,,NaN,,no compatible backend,,,,,,,,,,,,,,,Transferring data,,,,,,,,,,,,,,,,,,,,,,,,,,,,,,,,,,,,,,,,,,,,,,,,,,,,,,,,,,,,,,,false,,,Please wait a second…,,,,,,482793.8049999939,482793.6199999822,,482785.1249999949,,482790.324,,,,
instructions,html.Screen,2_4_3_3,2021-05-24T16:17:33.238Z,,,,,,,,,,,,,,,,,,,,,,,,,,,,,,,,,,,,,,,,,,,,,,,,,,,,,,,,,,,,,,,,,,,,,,,,,,,,,,,,,,,,,,,,,,,,,,,,,,,,,,,,,,,,,,,,,,,,122822.72599998536,,done,,,,,,,,,,,,,,,,,,,,,,,,,,,,,,,,,,,,,,,,,,,,,,,,,,,,,,,,,,,,,,,,,,,,,,,,,,,,,,false,,,,,,,,,605613.2149999903,605613.0499999854,482773.617,482793.9250000054,482790.324,605635.343,,,,
Q1,html.Screen,2_4_3_4_0,2021-05-24T16:17:43.566Z,,,,,,,,,,,,,,,,,,,,,,,,,,,,,,,,,,,,,,,,,,,,,,,,,,,,,,,,,,,,,,,,,,,,,,,,,,,,,,,,,,,,,,,,,,,,,,,,,,,,,,,,,,,,,,,,false,input_Q1==3,,,10304.086999998544,,response,,,,,,,,,,,,,,,,,,,,,,,,,Q1_i4,Q1_i1,Q1_i3,Q1_i2,4,1,3,2,false,false,correct,false,,,,,,,,,,,,,,,,,,,,,,,,,,,,,,,,,,,,,,,,,click #Q1_i3,false,,,,,,,,,615941.439999995,615939.4299999985,605597.322,605613.3649999974,605635.343,615948.737,,,,
Q1_correct,html.Screen,2_4_3_4_1,2021-05-24T16:17:47.313Z,,,,,,,,,,,,,,,,,,,,,,,,,,,,,,,,,,,,,,,,,,,,,,,,,,,,,,,,,,,,,,,,,,,,,,,,,,,,,,,,,,,,,,,,,,,,,,,,,,,,,,,,,,,,,,,,,,,,3739.173000007868,,response,,,,,,,,,,,,,,,,,,,,,,,,,,,,,,,,,,,,,,,,,,,,,,,,,,,,,,,,,,,,,,,,,,,,,,,,,,,,,keypress,false,,,,,,,,,619688.3249999955,619687.9100000078,615932.035,615941.5799999842,615948.737,619698.973,,,,
Q2,html.Screen,2_4_3_4_2,2021-05-24T16:17:54.994Z,,,,,,,,,,,,,,,,,,,,,,,,,,,,,,,,,,,,,,,,,,,,,,,,,,,,,,,,,,,,,,,,,,,,,,,,,,,,,,,,,,,,,,,,,,,,,,,,,,,,,,,,,,,,,,,,,,,,7670.021999997087,,response,,,,,,,,,,,,,,,,,,,,,,,,,,,,,,,,,,,,,Q2_i1,Q2_i2,Q2_i3,Option 1,Option 2,Same amount,correct,opt2,same,,,,,,,,,,,,,,,,,,,,,,,,,,,,,,,,click #Q2_i1,false,,,,,,,,,627369.5850000076,627368.9949999971,619681.891,619688.4300000092,619698.973,627382.788,,,,
Q2_correct,html.Screen,2_4_3_4_3,2021-05-24T16:17:57.357Z,,,,,,,,,,,,,,,,,,,,,,,,,,,,,,,,,,,,,,,,,,,,,,,,,,,,,,,,,,,,,,,,,,,,,,,,,,,,,,,,,,,,,,,,,,,,,,,,,,,,,,,,,,,,,,,,,,,,2348.947000008542,,response,,,,,,,,,,,,,,,,,,,,,,,,,,,,,,,,,,,,,,,,,,,,,,,,,,,,,,,,,,,,,,,,,,,,,,,,,,,,,keypress,false,,,,,,,,,629732.1400000073,629731.7350000085,627366.092,627369.7249999968,627382.788,629759.114,,,,
Q4,html.Screen,2_4_3_4_4,2021-05-24T16:18:16.481Z,,,,,,,,,,,,,,,,,,,,,,,,,,,,,,,,,,,,,,,,,,,,,,,,,,,,,,,,,,,,,,,,,,,,,,,,,,,,,,,,,,,,,,,,,,,,,,,,,,,,,,,,,,,,,,,,,,,,19096.975999986636,,response,,,,,,,,,,,,,,,,,,,,,,,,,,,,,,,,,,,,,,,,,,,,,,Q4_i3,Q4_i1,Q4_i4,Q4_i2,Press the arrow key that corresponds with the snack option with more food items,Press the arrow key that corresponds with the snack option I prefer,Press the space key,Indicate the number of food items in each snack option,morefood,correct,pressspace,indicate,,,,,,,,,,,,,,,,,,,,click #Q4_i1,false,,,,,,,,,648856.8249999953,648856.0899999866,629716.009,629732.2350000031,629759.114,648867.483,,,,
Q4_correct,html.Screen,2_4_3_4_5,2021-05-24T16:18:17.710Z,,,,,,,,,,,,,,,,,,,,,,,,,,,,,,,,,,,,,,,,,,,,,,,,,,,,,,,,,,,,,,,,,,,,,,,,,,,,,,,,,,,,,,,,,,,,,,,,,,,,,,,,,,,,,,,,,,,,1217.4519999916665,,response,,,,,,,,,,,,,,,,,,,,,,,,,,,,,,,,,,,,,,,,,,,,,,,,,,,,,,,,,,,,,,,,,,,,,,,,,,,,,keypress,false,,,,,,,,,650085.3500000085,650084.9349999917,648850.797,648856.9750000024,648867.483,650100.911,,,,
Q5,html.Screen,2_4_3_4_6,2021-05-24T16:18:28.822Z,,,,,,,,,,,,,,,,,,,,,,,,,,,,,,,,,,,,,,,,,,,,,,,,,,,,,,,,,,,,,,,,,,,,,,,,,,,,,,,,,,,,,,,,,,,,,,,,,,,,,,,,,,,,,,,,,,,,11096.4890000046,,response,,,,,,,,,,,,,,,,,,,,,,,,,,,,,,,,,,,,,,,,,,,,,,,,,,,,,,,,,,Q5_i3,Q5_i1,Q5_i2,Q5_i4,There are more slices of kiwi in snack Option 1,Snack Option 2 has been chosen,There are more pieces of chocolate in snack Option 2,Snack Option 1 has been chosen,morekiwi1,correct,morechoc2,chose1,,,,,,,,click #Q5_i1,false,,,,,,,,,661197.9649999994,661197.4000000046,650084.071,650085.4499999841,650100.911,661201.564,,,,
Q5_correct,html.Screen,2_4_3_4_7,2021-05-24T16:18:29.589Z,,,,,,,,,,,,,,,,,,,,,,,,,,,,,,,,,,,,,,,,,,,,,,,,,,,,,,,,,,,,,,,,,,,,,,,,,,,,,,,,,,,,,,,,,,,,,,,,,,,,,,,,,,,,,,,,,,,,763.0259999886621,,response,,,,,,,,,,,,,,,,,,,,,,,,,,,,,,,,,,,,,,,,,,,,,,,,,,,,,,,,,,,,,,,,,,,,,,,,,,,,,keypress,false,,,,,,,,,661965.0050000055,661964.5899999887,661184.892,661198.1099999975,661201.564,661968.323,,,,
practice_sequence,flow.Sequence,2_4_3_4,2021-05-24T16:18:29.590Z,,,,,,,,,,,,,,,,,,,,,,,,,,,,,,,,,,,,,,,,,,,,,,,,,,,,,,,,,,,,,,,,,,,,,,,,,,,,,,,,,,,,,,,,,,,,,,,,,,,,,,,,,,,,,,,,,,,,56329.24699998868,,completion,,,,,,,,,,,,,,,,,,,,,,,,,,,,,,,,,,,,,,,,,,,,,,,,,,,,,,,,,,,,,,,,,,,,,,,,,,,,,,false,,,,,,,,,661965.1449999947,661964.5899999887,605597.322,605613.3249999839,605635.343,661968.323,,,,
final_instru,html.Screen,2_4_3_5,2021-05-24T16:19:19.163Z,,,,,,,,,,,,,,,,,,,,,,,,,,,,,,,,,,,,,,,,,,,,,,,,,,,,,,,,,,,,,,,,,,,,,,,,,,,,,,,,,,,,,,,,,,,,,,,,,,,,,,,,,,,,,,,,,,,,49570.43699999584,,done,,,,,,,,,,,,,,,,,,,,,,,,,,,,,,,,,,,,,,,,,,,,,,,,,,,,,,,,,,,,,,,,,,,,,,,,,,,,,,false,,,,,,,,,711538.9649999852,711538.7599999958,661951.566,661965.2150000038,661968.323,711554.833,,,,
blank_screen,canvas.Screen,2_4_3_6_0,2021-05-24T16:19:21.163Z,,,,,,,,,,,,,,,,,,,,,,,,,,,,,,,,,,,,,,,,,,,,,,,,,,,,,,,,,,,,,,,,,,,,,,,,,,,,,,,,,,,,,,,,,,,,,,,,,,,,,,,,,,,,,,,,,,,,2016.7399999999907,,timeout,,,,,,,,,,,,,,,,,,,,,,,,,,,,,,,,,,,,,,,,,,,,,,,,,,,,,,,,,,,,,,,,,,,,,,,,,,,,,,false,,,,,,,,,713538.5599999863,713538.199,711535.83,711539.1250000102,711554.833,713571.573,,,,
fixCross,canvas.Screen,2_4_3_6_1_0_0_0_0_0_0,2021-05-24T16:19:21.880Z,,,blank.png,blank.png,blank.png,blank.png,blank.png,blank.png,blank.png,"[""dried_meat.png""]",blank.png,blank.png,blank.png,blank.png,blank.png,,,,,,,,,,,,,,,,,,,,,,,,,,,,,"[""dried_meat.png""]","[""pickle.png""]",PB18.png,,,,,,,,,,,0,6,"[""pickle.png""]","[""pickle.png""]","[""pickle.png""]","[""pickle.png""]","[""pickle.png""]","[""pickle.png""]",blank.png,PB18.png,PB01.png,"[""pickle.png""]","[""pickle.png""]","[""pickle.png""]","[""pickle.png""]","[""pickle.png""]","[""pickle.png""]",blank.png,blank.png,blank.png,blank.png,blank.png,blank.png,1,"[""dried_meat.png""]",blank.png,blank.png,blank.png,0,blank.png,blank.png,blank.png,blank.png,blank.png,blank.png,PB01.png,,,,,,,,,,,1,,,,,,,,,,,,,1050.063000000082,,timeout,,,,,,,,,,,,,4,,,,,,,,,,,,,,,,,,,,,,,,,,,,,,,,,,,,,,,,,,,,,,,,,,,,,,,,,"[""pickle.png""]","[""dried_meat.png""]",,,,6,,,false,,1,,,,,,,714255.3849999967,714254.914,713538.199,713583.494999999,713571.573,714621.636,1,,,
timeout,canvas.Screen,2_4_3_6_1_0_0_0_0_0_1,2021-05-24T16:19:22.730Z,,,blank.png,blank.png,blank.png,blank.png,blank.png,blank.png,blank.png,"[""dried_meat.png""]",blank.png,blank.png,blank.png,blank.png,blank.png,,,,,,,,,,,,,,,,,,,,,,,,,,,,,"[""dried_meat.png""]","[""pickle.png""]",PB18.png,,,,,,,,,,,0,6,"[""pickle.png""]","[""pickle.png""]","[""pickle.png""]","[""pickle.png""]","[""pickle.png""]","[""pickle.png""]",blank.png,PB18.png,PB01.png,"[""pickle.png""]","[""pickle.png""]","[""pickle.png""]","[""pickle.png""]","[""pickle.png""]","[""pickle.png""]",blank.png,blank.png,blank.png,blank.png,blank.png,blank.png,1,"[""dried_meat.png""]",blank.png,blank.png,blank.png,0,blank.png,blank.png,blank.png,blank.png,blank.png,blank.png,PB01.png,,,,,,,,,,,1,,,,,,,,,,,,,766.7189999999246,,timeout,,,,,,,,,,,,,4,,,,,,,,,,,,,,,,,,,,,,,,,,,,,,,,,,,,,,,,,,,,,,,,,,,,,,,,,"[""pickle.png""]","[""dried_meat.png""]",,,,6,,,false,,1,,,,,,,715105.4850000073,715104.969,714254.914,714759.6449999837,714621.636,715388.355,,,,
choice,canvas.Screen,2_4_3_6_1_0_0_0_0_0_2,2021-05-24T16:19:24.162Z,,,blank.png,blank.png,blank.png,blank.png,blank.png,blank.png,blank.png,"[""dried_meat.png""]",blank.png,blank.png,blank.png,blank.png,blank.png,,,,,,,,,,,,,,,,,,,,,,,,,,,,,"[""dried_meat.png""]","[""pickle.png""]",PB18.png,,,,,,,,,,,0,6,"[""pickle.png""]","[""pickle.png""]","[""pickle.png""]","[""pickle.png""]","[""pickle.png""]","[""pickle.png""]",blank.png,PB18.png,PB01.png,"[""pickle.png""]","[""pickle.png""]","[""pickle.png""]","[""pickle.png""]","[""pickle.png""]","[""pickle.png""]",blank.png,blank.png,blank.png,blank.png,blank.png,blank.png,1,"[""dried_meat.png""]",blank.png,blank.png,blank.png,0,blank.png,blank.png,blank.png,blank.png,blank.png,blank.png,PB01.png,,,,,,,,,,,1,,,,,,,,,,,,,1148.4650000084657,,response,,,,,,,,,,,,,4,,,,,,,,,,,,,,,,,,,,,,,,,,,,,,,,,,,,,,,,,,,,,,,,,,,,,,,,,"[""pickle.png""]","[""dried_meat.png""]",,,,6,right,keydown(ArrowRight),false,,1,,,,,,,716537.6199999882,716536.8200000084,715104.969,715402.8199999884,715388.355,716855.103,,1,,
square,canvas.Screen,2_4_3_6_1_0_0_0_0_0_3,2021-05-24T16:19:25.464Z,,,blank.png,blank.png,blank.png,blank.png,blank.png,blank.png,blank.png,"[""dried_meat.png""]",blank.png,blank.png,blank.png,blank.png,blank.png,,,,,,,,,,,,,,,,,,,,,,,,,,,,,"[""dried_meat.png""]","[""pickle.png""]",PB18.png,,,,,,,,,,,0,6,"[""pickle.png""]","[""pickle.png""]","[""pickle.png""]","[""pickle.png""]","[""pickle.png""]","[""pickle.png""]",blank.png,PB18.png,PB01.png,"[""pickle.png""]","[""pickle.png""]","[""pickle.png""]","[""pickle.png""]","[""pickle.png""]","[""pickle.png""]",blank.png,blank.png,blank.png,blank.png,blank.png,blank.png,1,"[""dried_meat.png""]",blank.png,blank.png,blank.png,0,blank.png,blank.png,blank.png,blank.png,blank.png,blank.png,PB01.png,,,,,,,,,,,1,,,#808080,#33ff3f,,,,,,,,,1000.0439999999944,,timeout,,,,,,,,,,,,,4,,,,,,,,,,,,,,,,,,,,,,,,,,,,,,,,,,,,,,,,,,,,,,,,,,,,,,,,,"[""pickle.png""]","[""dried_meat.png""]",,,,6,,,false,,1,,,,,white,black,717839.1300000076,717838.469,716821.635,716822.6149999828,716855.103,717855.147,,,,
ITI_late,canvas.Screen,2_4_3_6_1_0_0_0_0_0_4,2021-05-24T16:19:25.714Z,,,blank.png,blank.png,blank.png,blank.png,blank.png,blank.png,blank.png,"[""dried_meat.png""]",blank.png,blank.png,blank.png,blank.png,blank.png,,,,,,,,,,,,,,,,,,,,,,,,,,,,,"[""dried_meat.png""]","[""pickle.png""]",PB18.png,,,,,,,,,,,0,6,"[""pickle.png""]","[""pickle.png""]","[""pickle.png""]","[""pickle.png""]","[""pickle.png""]","[""pickle.png""]",blank.png,PB18.png,PB01.png,"[""pickle.png""]","[""pickle.png""]","[""pickle.png""]","[""pickle.png""]","[""pickle.png""]","[""pickle.png""]",blank.png,blank.png,blank.png,blank.png,blank.png,blank.png,1,"[""dried_meat.png""]",blank.png,blank.png,blank.png,0,blank.png,blank.png,blank.png,blank.png,blank.png,blank.png,PB01.png,,,,,,,,,,,1,,,,,,,,,,,,,250.03899999998976,,timeout,,,,,,,,,,,,white,4,,,,,,,,,,,,,,,,,,,,,,,,,,,,,,,,,,,,,,,,,,,,,,,,,,,,,,,,,"[""pickle.png""]","[""dried_meat.png""]",,,,6,,,false,,1,,,,,,,718088.8899999845,718088.48,717838.469,717840.909999999,717855.147,718105.186,,,,
choice_sequence,flow.Sequence,2_4_3_6_1_0_0_0_0_0,2021-05-24T16:19:25.714Z,,,blank.png,blank.png,blank.png,blank.png,blank.png,blank.png,blank.png,"[""dried_meat.png""]",blank.png,blank.png,blank.png,blank.png,blank.png,,,,,,,,,,,,,,,,,,,,,,,,,,,,,"[""dried_meat.png""]","[""pickle.png""]",PB18.png,,,,,,,,,,,0,6,"[""pickle.png""]","[""pickle.png""]","[""pickle.png""]","[""pickle.png""]","[""pickle.png""]","[""pickle.png""]",blank.png,PB18.png,PB01.png,"[""pickle.png""]","[""pickle.png""]","[""pickle.png""]","[""pickle.png""]","[""pickle.png""]","[""pickle.png""]",blank.png,blank.png,blank.png,blank.png,blank.png,blank.png,1,"[""dried_meat.png""]",blank.png,blank.png,blank.png,0,blank.png,blank.png,blank.png,blank.png,blank.png,blank.png,PB01.png,,,,,,,,,,,1,,,,,,,,,,,,,4516.9070000000065,,completion,,,,,,,,,,,,,4,,,,,,,,,,,,,,,,,,,,,,,,,,,,,,,,,,,,,,,,,,,,,,,,,,,,,,,,,"[""pickle.png""]","[""dried_meat.png""]",,,,6,,,false,,1,,,,,,,718089.3050000013,718088.48,713538.199,713581.9550000015,713571.573,718105.186,,,,
fixCross,canvas.Screen,2_4_3_6_1_0_0_0_0_1_0,2021-05-24T16:19:26.414Z,,,blank.png,blank.png,blank.png,blank.png,blank.png,blank.png,blank.png,"[""dried_meat.png""]",blank.png,blank.png,blank.png,blank.png,blank.png,,,,,,,,,,,,,,,,,,,,,,,,,,,,,"[""dried_meat.png""]","[""pickle.png""]",PB18.png,,,,,,,,,,,0,6,"[""pickle.png""]","[""pickle.png""]","[""pickle.png""]","[""pickle.png""]","[""pickle.png""]","[""pickle.png""]",blank.png,PB18.png,PB17.png,"[""pickle.png""]","[""pickle.png""]","[""pickle.png""]","[""pickle.png""]","[""pickle.png""]","[""pickle.png""]","[""pickle.png""]","[""pickle.png""]","[""pickle.png""]","[""pickle.png""]","[""pickle.png""]","[""pickle.png""]",1,"[""dried_meat.png""]",blank.png,blank.png,blank.png,6,"[""pickle.png""]","[""pickle.png""]","[""pickle.png""]","[""pickle.png""]","[""pickle.png""]","[""pickle.png""]",PB17.png,,,,,,,,,,,1,,,,,,,,,,,,,1000.0620000000345,,timeout,,,,,,,,,,,,,4,,,,,,,,,,,,,,,,,,,,,,,,,,,,,,,,,,,,,,,,,,,,,,,,,,,,,,,,,"[""pickle.png""]","[""dried_meat.png""]",,,,6,,,false,,1,,,,,,,718788.9549999963,718788.523,718088.48,718094.0800000099,718105.186,719105.248,2,,,
timeout,canvas.Screen,2_4_3_6_1_0_0_0_0_1_1,2021-05-24T16:19:27.214Z,,,blank.png,blank.png,blank.png,blank.png,blank.png,blank.png,blank.png,"[""dried_meat.png""]",blank.png,blank.png,blank.png,blank.png,blank.png,,,,,,,,,,,,,,,,,,,,,,,,,,,,,"[""dried_meat.png""]","[""pickle.png""]",PB18.png,,,,,,,,,,,0,6,"[""pickle.png""]","[""pickle.png""]","[""pickle.png""]","[""pickle.png""]","[""pickle.png""]","[""pickle.png""]",blank.png,PB18.png,PB17.png,"[""pickle.png""]","[""pickle.png""]","[""pickle.png""]","[""pickle.png""]","[""pickle.png""]","[""pickle.png""]","[""pickle.png""]","[""pickle.png""]","[""pickle.png""]","[""pickle.png""]","[""pickle.png""]","[""pickle.png""]",1,"[""dried_meat.png""]",blank.png,blank.png,blank.png,6,"[""pickle.png""]","[""pickle.png""]","[""pickle.png""]","[""pickle.png""]","[""pickle.png""]","[""pickle.png""]",PB17.png,,,,,,,,,,,1,,,,,,,,,,,,,816.7569999999832,,timeout,,,,,,,,,,,,,4,,,,,,,,,,,,,,,,,,,,,,,,,,,,,,,,,,,,,,,,,,,,,,,,,,,,,,,,,"[""pickle.png""]","[""dried_meat.png""]",,,,6,,,false,,1,,,,,,,719589.0999999829,719588.583,718788.523,719111.2049999938,719105.248,719922.005,,,,
choice,canvas.Screen,2_4_3_6_1_0_0_0_0_1_2,2021-05-24T16:19:27.848Z,,,blank.png,blank.png,blank.png,blank.png,blank.png,blank.png,blank.png,"[""dried_meat.png""]",blank.png,blank.png,blank.png,blank.png,blank.png,,,,,,,,,,,,,,,,,,,,,,,,,,,,,"[""dried_meat.png""]","[""pickle.png""]",PB18.png,,,,,,,,,,,0,6,"[""pickle.png""]","[""pickle.png""]","[""pickle.png""]","[""pickle.png""]","[""pickle.png""]","[""pickle.png""]",blank.png,PB18.png,PB17.png,"[""pickle.png""]","[""pickle.png""]","[""pickle.png""]","[""pickle.png""]","[""pickle.png""]","[""pickle.png""]","[""pickle.png""]","[""pickle.png""]","[""pickle.png""]","[""pickle.png""]","[""pickle.png""]","[""pickle.png""]",1,"[""dried_meat.png""]",blank.png,blank.png,blank.png,6,"[""pickle.png""]","[""pickle.png""]","[""pickle.png""]","[""pickle.png""]","[""pickle.png""]","[""pickle.png""]",PB17.png,,,,,,,,,,,1,,,,,,,,,,,,,300.1799999914365,,response,,,,,,,,,,,,,4,,,,,,,,,,,,,,,,,,,,,,,,,,,,,,,,,,,,,,,,,,,,,,,,,,,,,,,,,"[""pickle.png""]","[""dried_meat.png""]",,,,6,right,keydown(ArrowRight),false,,1,,,,,,,720223.0449999915,720222.1849999914,719588.583,719913.2349999854,719922.005,720538.704,,2,,
square,canvas.Screen,2_4_3_6_1_0_0_0_0_1_3,2021-05-24T16:19:29.148Z,,,blank.png,blank.png,blank.png,blank.png,blank.png,blank.png,blank.png,"[""dried_meat.png""]",blank.png,blank.png,blank.png,blank.png,blank.png,,,,,,,,,,,,,,,,,,,,,,,,,,,,,"[""dried_meat.png""]","[""pickle.png""]",PB18.png,,,,,,,,,,,0,6,"[""pickle.png""]","[""pickle.png""]","[""pickle.png""]","[""pickle.png""]","[""pickle.png""]","[""pickle.png""]",blank.png,PB18.png,PB17.png,"[""pickle.png""]","[""pickle.png""]","[""pickle.png""]","[""pickle.png""]","[""pickle.png""]","[""pickle.png""]","[""pickle.png""]","[""pickle.png""]","[""pickle.png""]","[""pickle.png""]","[""pickle.png""]","[""pickle.png""]",1,"[""dried_meat.png""]",blank.png,blank.png,blank.png,6,"[""pickle.png""]","[""pickle.png""]","[""pickle.png""]","[""pickle.png""]","[""pickle.png""]","[""pickle.png""]",PB17.png,,,,,,,,,,,1,,,#808080,#33ff3f,,,,,,,,,1000.0030000000261,,timeout,,,,,,,,,,,,,4,,,,,,,,,,,,,,,,,,,,,,,,,,,,,,,,,,,,,,,,,,,,,,,,,,,,,,,,,"[""pickle.png""]","[""dried_meat.png""]",,,,6,,,false,,1,,,,,white,black,721522.6749999856,721522.041,720521.938,720530.9649999836,720538.704,721538.707,,,,
ITI_late,canvas.Screen,2_4_3_6_1_0_0_0_0_1_4,2021-05-24T16:19:29.897Z,,,blank.png,blank.png,blank.png,blank.png,blank.png,blank.png,blank.png,"[""dried_meat.png""]",blank.png,blank.png,blank.png,blank.png,blank.png,,,,,,,,,,,,,,,,,,,,,,,,,,,,,"[""dried_meat.png""]","[""pickle.png""]",PB18.png,,,,,,,,,,,0,6,"[""pickle.png""]","[""pickle.png""]","[""pickle.png""]","[""pickle.png""]","[""pickle.png""]","[""pickle.png""]",blank.png,PB18.png,PB17.png,"[""pickle.png""]","[""pickle.png""]","[""pickle.png""]","[""pickle.png""]","[""pickle.png""]","[""pickle.png""]","[""pickle.png""]","[""pickle.png""]","[""pickle.png""]","[""pickle.png""]","[""pickle.png""]","[""pickle.png""]",1,"[""dried_meat.png""]",blank.png,blank.png,blank.png,6,"[""pickle.png""]","[""pickle.png""]","[""pickle.png""]","[""pickle.png""]","[""pickle.png""]","[""pickle.png""]",PB17.png,,,,,,,,,,,1,,,,,,,,,,,,,750.0649999999441,,timeout,,,,,,,,,,,,white,4,,,,,,,,,,,,,,,,,,,,,,,,,,,,,,,,,,,,,,,,,,,,,,,,,,,,,,,,,"[""pickle.png""]","[""dried_meat.png""]",,,,6,,,false,,1,,,,,,,722272.5250000076,722272.085,721522.041,721524.3550000014,721538.707,722288.772,,,,
choice_sequence,flow.Sequence,2_4_3_6_1_0_0_0_0_1,2021-05-24T16:19:29.898Z,,,blank.png,blank.png,blank.png,blank.png,blank.png,blank.png,blank.png,"[""dried_meat.png""]",blank.png,blank.png,blank.png,blank.png,blank.png,,,,,,,,,,,,,,,,,,,,,,,,,,,,,"[""dried_meat.png""]","[""pickle.png""]",PB18.png,,,,,,,,,,,0,6,"[""pickle.png""]","[""pickle.png""]","[""pickle.png""]","[""pickle.png""]","[""pickle.png""]","[""pickle.png""]",blank.png,PB18.png,PB17.png,"[""pickle.png""]","[""pickle.png""]","[""pickle.png""]","[""pickle.png""]","[""pickle.png""]","[""pickle.png""]","[""pickle.png""]","[""pickle.png""]","[""pickle.png""]","[""pickle.png""]","[""pickle.png""]","[""pickle.png""]",1,"[""dried_meat.png""]",blank.png,blank.png,blank.png,6,"[""pickle.png""]","[""pickle.png""]","[""pickle.png""]","[""pickle.png""]","[""pickle.png""]","[""pickle.png""]",PB17.png,,,,,,,,,,,1,,,,,,,,,,,,,4166.898999999976,,completion,,,,,,,,,,,,,4,,,,,,,,,,,,,,,,,,,,,,,,,,,,,,,,,,,,,,,,,,,,,,,,,,,,,,,,,"[""pickle.png""]","[""dried_meat.png""]",,,,6,,,false,,1,,,,,,,722272.9499999841,722272.085,718088.48,718093.2299999986,718105.186,722288.772,,,,
fixCross,canvas.Screen,2_4_3_6_1_0_0_0_0_2_0,2021-05-24T16:19:30.297Z,,,blank.png,"[""dried_meat.png""]",blank.png,blank.png,blank.png,blank.png,blank.png,blank.png,blank.png,blank.png,blank.png,blank.png,blank.png,,,,,,,,,,,,,,,,,,,,,,,,,,,,,"[""dried_meat.png""]","[""pickle.png""]",PB12.png,,,,,,,,,,,0,6,"[""pickle.png""]","[""pickle.png""]","[""pickle.png""]","[""pickle.png""]","[""pickle.png""]","[""pickle.png""]",blank.png,PB18.png,PB18.png,"[""pickle.png""]","[""pickle.png""]",blank.png,blank.png,blank.png,blank.png,"[""pickle.png""]","[""pickle.png""]","[""pickle.png""]","[""pickle.png""]","[""pickle.png""]","[""pickle.png""]",1,"[""dried_meat.png""]",blank.png,blank.png,blank.png,2,"[""pickle.png""]","[""pickle.png""]",blank.png,blank.png,blank.png,blank.png,PB12.png,,,,,,,,,,,1,,,,,,,,,,,,,666.7360000000335,,timeout,,,,,,,,,,,,,3,,,,,,,,,,,,,,,,,,,,,,,,,,,,,,,,,,,,,,,,,,,,,,,,,,,,,,,,,"[""pickle.png""]","[""dried_meat.png""]",,,,6,,,false,,1,,,,,,,722672.584999993,722672.119,722272.085,722277.9649999866,722288.772,722955.508,3,,,
timeout,canvas.Screen,2_4_3_6_1_0_0_0_0_2_1,2021-05-24T16:19:31.064Z,,,blank.png,"[""dried_meat.png""]",blank.png,blank.png,blank.png,blank.png,blank.png,blank.png,blank.png,blank.png,blank.png,blank.png,blank.png,,,,,,,,,,,,,,,,,,,,,,,,,,,,,"[""dried_meat.png""]","[""pickle.png""]",PB12.png,,,,,,,,,,,0,6,"[""pickle.png""]","[""pickle.png""]","[""pickle.png""]","[""pickle.png""]","[""pickle.png""]","[""pickle.png""]",blank.png,PB18.png,PB18.png,"[""pickle.png""]","[""pickle.png""]",blank.png,blank.png,blank.png,blank.png,"[""pickle.png""]","[""pickle.png""]","[""pickle.png""]","[""pickle.png""]","[""pickle.png""]","[""pickle.png""]",1,"[""dried_meat.png""]",blank.png,blank.png,blank.png,2,"[""pickle.png""]","[""pickle.png""]",blank.png,blank.png,blank.png,blank.png,PB12.png,,,,,,,,,,,1,,,,,,,,,,,,,800.0439999999944,,timeout,,,,,,,,,,,,,3,,,,,,,,,,,,,,,,,,,,,,,,,,,,,,,,,,,,,,,,,,,,,,,,,,,,,,,,,"[""pickle.png""]","[""dried_meat.png""]",,,,6,,,false,,1,,,,,,,723439.2999999982,723438.824,722672.119,722969.0950000077,722955.508,723755.552,,,,
choice,canvas.Screen,2_4_3_6_1_0_0_0_0_2_2,2021-05-24T16:19:31.431Z,,,blank.png,"[""dried_meat.png""]",blank.png,blank.png,blank.png,blank.png,blank.png,blank.png,blank.png,blank.png,blank.png,blank.png,blank.png,,,,,,,,,,,,,,,,,,,,,,,,,,,,,"[""dried_meat.png""]","[""pickle.png""]",PB12.png,,,,,,,,,,,0,6,"[""pickle.png""]","[""pickle.png""]","[""pickle.png""]","[""pickle.png""]","[""pickle.png""]","[""pickle.png""]",blank.png,PB18.png,PB18.png,"[""pickle.png""]","[""pickle.png""]",blank.png,blank.png,blank.png,blank.png,"[""pickle.png""]","[""pickle.png""]","[""pickle.png""]","[""pickle.png""]","[""pickle.png""]","[""pickle.png""]",1,"[""dried_meat.png""]",blank.png,blank.png,blank.png,2,"[""pickle.png""]","[""pickle.png""]",blank.png,blank.png,blank.png,blank.png,PB12.png,,,,,,,,,,,1,,,,,,,,,,,,,49.96299998543691,,response,,,,,,,,,,,,,3,,,,,,,,,,,,,,,,,,,,,,,,,,,,,,,,,,,,,,,,,,,,,,,,,,,,,,,,,"[""pickle.png""]","[""dried_meat.png""]",,,,6,left,keydown(ArrowLeft),false,,1,,,,,,,723806.5699999861,723805.5149999855,723438.824,723747.795000003,723755.552,724088.985,,3,,
square,canvas.Screen,2_4_3_6_1_0_0_0_0_2_3,2021-05-24T16:19:32.698Z,,,blank.png,"[""dried_meat.png""]",blank.png,blank.png,blank.png,blank.png,blank.png,blank.png,blank.png,blank.png,blank.png,blank.png,blank.png,,,,,,,,,,,,,,,,,,,,,,,,,,,,,"[""dried_meat.png""]","[""pickle.png""]",PB12.png,,,,,,,,,,,0,6,"[""pickle.png""]","[""pickle.png""]","[""pickle.png""]","[""pickle.png""]","[""pickle.png""]","[""pickle.png""]",blank.png,PB18.png,PB18.png,"[""pickle.png""]","[""pickle.png""]",blank.png,blank.png,blank.png,blank.png,"[""pickle.png""]","[""pickle.png""]","[""pickle.png""]","[""pickle.png""]","[""pickle.png""]","[""pickle.png""]",1,"[""dried_meat.png""]",blank.png,blank.png,blank.png,2,"[""pickle.png""]","[""pickle.png""]",blank.png,blank.png,blank.png,blank.png,PB12.png,,,,,,,,,,,1,,,#33ff3f,#808080,,,,,,,,,999.9510000000009,,timeout,,,,,,,,,,,,,3,,,,,,,,,,,,,,,,,,,,,,,,,,,,,,,,,,,,,,,,,,,,,,,,,,,,,,,,,"[""pickle.png""]","[""dried_meat.png""]",,,,6,,,false,,1,,,,,black,white,725072.9449999926,725072.261,724072.194,724084.1399999917,724088.985,725088.936,,,,
ITI_late,canvas.Screen,2_4_3_6_1_0_0_0_0_2_4,2021-05-24T16:19:33.448Z,,,blank.png,"[""dried_meat.png""]",blank.png,blank.png,blank.png,blank.png,blank.png,blank.png,blank.png,blank.png,blank.png,blank.png,blank.png,,,,,,,,,,,,,,,,,,,,,,,,,,,,,"[""dried_meat.png""]","[""pickle.png""]",PB12.png,,,,,,,,,,,0,6,"[""pickle.png""]","[""pickle.png""]","[""pickle.png""]","[""pickle.png""]","[""pickle.png""]","[""pickle.png""]",blank.png,PB18.png,PB18.png,"[""pickle.png""]","[""pickle.png""]",blank.png,blank.png,blank.png,blank.png,"[""pickle.png""]","[""pickle.png""]","[""pickle.png""]","[""pickle.png""]","[""pickle.png""]","[""pickle.png""]",1,"[""dried_meat.png""]",blank.png,blank.png,blank.png,2,"[""pickle.png""]","[""pickle.png""]",blank.png,blank.png,blank.png,blank.png,PB12.png,,,,,,,,,,,1,,,,,,,,,,,,,750.0659999999916,,timeout,,,,,,,,,,,,white,3,,,,,,,,,,,,,,,,,,,,,,,,,,,,,,,,,,,,,,,,,,,,,,,,,,,,,,,,,"[""pickle.png""]","[""dried_meat.png""]",,,,6,,,false,,1,,,,,,,725822.7849999967,725822.33,725072.261,725074.7550000087,725088.936,725839.002,,,,
choice_sequence,flow.Sequence,2_4_3_6_1_0_0_0_0_2,2021-05-24T16:19:33.448Z,,,blank.png,"[""dried_meat.png""]",blank.png,blank.png,blank.png,blank.png,blank.png,blank.png,blank.png,blank.png,blank.png,blank.png,blank.png,,,,,,,,,,,,,,,,,,,,,,,,,,,,,"[""dried_meat.png""]","[""pickle.png""]",PB12.png,,,,,,,,,,,0,6,"[""pickle.png""]","[""pickle.png""]","[""pickle.png""]","[""pickle.png""]","[""pickle.png""]","[""pickle.png""]",blank.png,PB18.png,PB18.png,"[""pickle.png""]","[""pickle.png""]",blank.png,blank.png,blank.png,blank.png,"[""pickle.png""]","[""pickle.png""]","[""pickle.png""]","[""pickle.png""]","[""pickle.png""]","[""pickle.png""]",1,"[""dried_meat.png""]",blank.png,blank.png,blank.png,2,"[""pickle.png""]","[""pickle.png""]",blank.png,blank.png,blank.png,blank.png,PB12.png,,,,,,,,,,,1,,,,,,,,,,,,,3533.557999999961,,completion,,,,,,,,,,,,,3,,,,,,,,,,,,,,,,,,,,,,,,,,,,,,,,,,,,,,,,,,,,,,,,,,,,,,,,,"[""pickle.png""]","[""dried_meat.png""]",,,,6,,,false,,1,,,,,,,725823.2199999911,725822.33,722272.085,722277.0850000088,722288.772,725839.002,,,,
fixCross,canvas.Screen,2_4_3_6_1_0_0_0_0_3_0,2021-05-24T16:19:33.748Z,,,blank.png,blank.png,blank.png,blank.png,blank.png,blank.png,blank.png,"[""dried_meat.png""]",blank.png,blank.png,blank.png,blank.png,blank.png,,,,,,,,,,,,,,,,,,,,,,,,,,,,,"[""dried_meat.png""]","[""pickle.png""]",PB18.png,,,,,,,,,,,0,6,"[""pickle.png""]","[""pickle.png""]","[""pickle.png""]","[""pickle.png""]","[""pickle.png""]","[""pickle.png""]",blank.png,PB18.png,PB16.png,"[""pickle.png""]","[""pickle.png""]","[""pickle.png""]","[""pickle.png""]","[""pickle.png""]","[""pickle.png""]","[""pickle.png""]","[""pickle.png""]","[""pickle.png""]","[""pickle.png""]","[""pickle.png""]",blank.png,1,"[""dried_meat.png""]",blank.png,blank.png,blank.png,5,"[""pickle.png""]","[""pickle.png""]","[""pickle.png""]","[""pickle.png""]","[""pickle.png""]",blank.png,PB16.png,,,,,,,,,,,1,,,,,,,,,,,,,583.4130000000587,,timeout,,,,,,,,,,,,,4,,,,,,,,,,,,,,,,,,,,,,,,,,,,,,,,,,,,,,,,,,,,,,,,,,,,,,,,,"[""pickle.png""]","[""dried_meat.png""]",,,,6,,,false,,1,,,,,,,726122.7800000052,726122.327,725822.33,725828.1750000024,725839.002,726422.415,4,,,
timeout,canvas.Screen,2_4_3_6_1_0_0_0_0_3_1,2021-05-24T16:19:34.531Z,,,blank.png,blank.png,blank.png,blank.png,blank.png,blank.png,blank.png,"[""dried_meat.png""]",blank.png,blank.png,blank.png,blank.png,blank.png,,,,,,,,,,,,,,,,,,,,,,,,,,,,,"[""dried_meat.png""]","[""pickle.png""]",PB18.png,,,,,,,,,,,0,6,"[""pickle.png""]","[""pickle.png""]","[""pickle.png""]","[""pickle.png""]","[""pickle.png""]","[""pickle.png""]",blank.png,PB18.png,PB16.png,"[""pickle.png""]","[""pickle.png""]","[""pickle.png""]","[""pickle.png""]","[""pickle.png""]","[""pickle.png""]","[""pickle.png""]","[""pickle.png""]","[""pickle.png""]","[""pickle.png""]","[""pickle.png""]",blank.png,1,"[""dried_meat.png""]",blank.png,blank.png,blank.png,5,"[""pickle.png""]","[""pickle.png""]","[""pickle.png""]","[""pickle.png""]","[""pickle.png""]",blank.png,PB16.png,,,,,,,,,,,1,,,,,,,,,,,,,800.0479999999516,,timeout,,,,,,,,,,,,,4,,,,,,,,,,,,,,,,,,,,,,,,,,,,,,,,,,,,,,,,,,,,,,,,,,,,,,,,,"[""pickle.png""]","[""dried_meat.png""]",,,,6,,,false,,1,,,,,,,726906.2050000066,726905.705,726122.327,726430.789999984,726422.415,727222.463,,,,
choice,canvas.Screen,2_4_3_6_1_0_0_0_0_3_2,2021-05-24T16:19:34.868Z,,,blank.png,blank.png,blank.png,blank.png,blank.png,blank.png,blank.png,"[""dried_meat.png""]",blank.png,blank.png,blank.png,blank.png,blank.png,,,,,,,,,,,,,,,,,,,,,,,,,,,,,"[""dried_meat.png""]","[""pickle.png""]",PB18.png,,,,,,,,,,,0,6,"[""pickle.png""]","[""pickle.png""]","[""pickle.png""]","[""pickle.png""]","[""pickle.png""]","[""pickle.png""]",blank.png,PB18.png,PB16.png,"[""pickle.png""]","[""pickle.png""]","[""pickle.png""]","[""pickle.png""]","[""pickle.png""]","[""pickle.png""]","[""pickle.png""]","[""pickle.png""]","[""pickle.png""]","[""pickle.png""]","[""pickle.png""]",blank.png,1,"[""dried_meat.png""]",blank.png,blank.png,blank.png,5,"[""pickle.png""]","[""pickle.png""]","[""pickle.png""]","[""pickle.png""]","[""pickle.png""]",blank.png,PB16.png,,,,,,,,,,,1,,,,,,,,,,,,,17.471999990521,,response,,,,,,,,,,,,,4,,,,,,,,,,,,,,,,,,,,,,,,,,,,,,,,,,,,,,,,,,,,,,,,,,,,,,,,,"[""pickle.png""]","[""dried_meat.png""]",,,,6,right,keydown(ArrowRight),false,,1,,,,,,,727242.9899999988,727239.9349999905,726905.705,727211.3899999822,727222.463,727572.476,,4,,
square,canvas.Screen,2_4_3_6_1_0_0_0_0_3_3,2021-05-24T16:19:36.181Z,,,blank.png,blank.png,blank.png,blank.png,blank.png,blank.png,blank.png,"[""dried_meat.png""]",blank.png,blank.png,blank.png,blank.png,blank.png,,,,,,,,,,,,,,,,,,,,,,,,,,,,,"[""dried_meat.png""]","[""pickle.png""]",PB18.png,,,,,,,,,,,0,6,"[""pickle.png""]","[""pickle.png""]","[""pickle.png""]","[""pickle.png""]","[""pickle.png""]","[""pickle.png""]",blank.png,PB18.png,PB16.png,"[""pickle.png""]","[""pickle.png""]","[""pickle.png""]","[""pickle.png""]","[""pickle.png""]","[""pickle.png""]","[""pickle.png""]","[""pickle.png""]","[""pickle.png""]","[""pickle.png""]","[""pickle.png""]",blank.png,1,"[""dried_meat.png""]",blank.png,blank.png,blank.png,5,"[""pickle.png""]","[""pickle.png""]","[""pickle.png""]","[""pickle.png""]","[""pickle.png""]",blank.png,PB16.png,,,,,,,,,,,1,,,#808080,#33ff3f,,,,,,,,,1000.0289999999804,,timeout,,,,,,,,,,,,,4,,,,,,,,,,,,,,,,,,,,,,,,,,,,,,,,,,,,,,,,,,,,,,,,,,,,,,,,,"[""pickle.png""]","[""dried_meat.png""]",,,,6,,,false,,1,,,,,white,black,728556.4799999993,728555.816,727555.761,727556.0950000072,727572.476,728572.505,,,,
ITI_late,canvas.Screen,2_4_3_6_1_0_0_0_0_3_4,2021-05-24T16:19:37.181Z,,,blank.png,blank.png,blank.png,blank.png,blank.png,blank.png,blank.png,"[""dried_meat.png""]",blank.png,blank.png,blank.png,blank.png,blank.png,,,,,,,,,,,,,,,,,,,,,,,,,,,,,"[""dried_meat.png""]","[""pickle.png""]",PB18.png,,,,,,,,,,,0,6,"[""pickle.png""]","[""pickle.png""]","[""pickle.png""]","[""pickle.png""]","[""pickle.png""]","[""pickle.png""]",blank.png,PB18.png,PB16.png,"[""pickle.png""]","[""pickle.png""]","[""pickle.png""]","[""pickle.png""]","[""pickle.png""]","[""pickle.png""]","[""pickle.png""]","[""pickle.png""]","[""pickle.png""]","[""pickle.png""]","[""pickle.png""]",blank.png,1,"[""dried_meat.png""]",blank.png,blank.png,blank.png,5,"[""pickle.png""]","[""pickle.png""]","[""pickle.png""]","[""pickle.png""]","[""pickle.png""]",blank.png,PB16.png,,,,,,,,,,,1,,,,,,,,,,,,,1000.0370000000112,,timeout,,,,,,,,,,,,white,4,,,,,,,,,,,,,,,,,,,,,,,,,,,,,,,,,,,,,,,,,,,,,,,,,,,,,,,,,"[""pickle.png""]","[""dried_meat.png""]",,,,6,,,false,,1,,,,,,,729556.3899999834,729555.881,728555.816,728558.2799999975,728572.505,729572.542,,,,
choice_sequence,flow.Sequence,2_4_3_6_1_0_0_0_0_3,2021-05-24T16:19:37.182Z,,,blank.png,blank.png,blank.png,blank.png,blank.png,blank.png,blank.png,"[""dried_meat.png""]",blank.png,blank.png,blank.png,blank.png,blank.png,,,,,,,,,,,,,,,,,,,,,,,,,,,,,"[""dried_meat.png""]","[""pickle.png""]",PB18.png,,,,,,,,,,,0,6,"[""pickle.png""]","[""pickle.png""]","[""pickle.png""]","[""pickle.png""]","[""pickle.png""]","[""pickle.png""]",blank.png,PB18.png,PB16.png,"[""pickle.png""]","[""pickle.png""]","[""pickle.png""]","[""pickle.png""]","[""pickle.png""]","[""pickle.png""]","[""pickle.png""]","[""pickle.png""]","[""pickle.png""]","[""pickle.png""]","[""pickle.png""]",blank.png,1,"[""dried_meat.png""]",blank.png,blank.png,blank.png,5,"[""pickle.png""]","[""pickle.png""]","[""pickle.png""]","[""pickle.png""]","[""pickle.png""]",blank.png,PB16.png,,,,,,,,,,,1,,,,,,,,,,,,,3716.8790000000736,,completion,,,,,,,,,,,,,4,,,,,,,,,,,,,,,,,,,,,,,,,,,,,,,,,,,,,,,,,,,,,,,,,,,,,,,,,"[""pickle.png""]","[""dried_meat.png""]",,,,6,,,false,,1,,,,,,,729556.8349999958,729555.881,725822.33,725827.1449999884,725839.002,729572.542,,,,
fixCross,canvas.Screen,2_4_3_6_1_0_0_0_0_4_0,2021-05-24T16:19:37.531Z,,,blank.png,blank.png,blank.png,blank.png,blank.png,blank.png,blank.png,"[""dried_meat.png""]",blank.png,blank.png,blank.png,blank.png,blank.png,,,,,,,,,,,,,,,,,,,,,,,,,,,,,"[""dried_meat.png""]","[""pickle.png""]",PB18.png,,,,,,,,,,,0,6,"[""pickle.png""]","[""pickle.png""]","[""pickle.png""]","[""pickle.png""]","[""pickle.png""]","[""pickle.png""]",blank.png,PB18.png,PB15.png,"[""pickle.png""]","[""pickle.png""]","[""pickle.png""]","[""pickle.png""]","[""pickle.png""]","[""pickle.png""]","[""pickle.png""]","[""pickle.png""]","[""pickle.png""]","[""pickle.png""]",blank.png,blank.png,1,"[""dried_meat.png""]",blank.png,blank.png,blank.png,4,"[""pickle.png""]","[""pickle.png""]","[""pickle.png""]","[""pickle.png""]",blank.png,blank.png,PB15.png,,,,,,,,,,,1,,,,,,,,,,,,,633.4239999999991,,timeout,,,,,,,,,,,,,4,,,,,,,,,,,,,,,,,,,,,,,,,,,,,,,,,,,,,,,,,,,,,,,,,,,,,,,,,"[""pickle.png""]","[""dried_meat.png""]",,,,6,,,false,,1,,,,,,,729906.335000007,729905.901,729555.881,729561.8599999871,729572.542,730205.966,5,,,
timeout,canvas.Screen,2_4_3_6_1_0_0_0_0_4_1,2021-05-24T16:19:38.315Z,,,blank.png,blank.png,blank.png,blank.png,blank.png,blank.png,blank.png,"[""dried_meat.png""]",blank.png,blank.png,blank.png,blank.png,blank.png,,,,,,,,,,,,,,,,,,,,,,,,,,,,,"[""dried_meat.png""]","[""pickle.png""]",PB18.png,,,,,,,,,,,0,6,"[""pickle.png""]","[""pickle.png""]","[""pickle.png""]","[""pickle.png""]","[""pickle.png""]","[""pickle.png""]",blank.png,PB18.png,PB15.png,"[""pickle.png""]","[""pickle.png""]","[""pickle.png""]","[""pickle.png""]","[""pickle.png""]","[""pickle.png""]","[""pickle.png""]","[""pickle.png""]","[""pickle.png""]","[""pickle.png""]",blank.png,blank.png,1,"[""dried_meat.png""]",blank.png,blank.png,blank.png,4,"[""pickle.png""]","[""pickle.png""]","[""pickle.png""]","[""pickle.png""]",blank.png,blank.png,PB15.png,,,,,,,,,,,1,,,,,,,,,,,,,800.0420000000158,,timeout,,,,,,,,,,,,,4,,,,,,,,,,,,,,,,,,,,,,,,,,,,,,,,,,,,,,,,,,,,,,,,,,,,,,,,,"[""pickle.png""]","[""dried_meat.png""]",,,,6,,,false,,1,,,,,,,730689.7600000084,730689.281,729905.901,730211.9749999838,730205.966,731006.008,,,,
choice,canvas.Screen,2_4_3_6_1_0_0_0_0_4_2,2021-05-24T16:19:38.817Z,,,blank.png,blank.png,blank.png,blank.png,blank.png,blank.png,blank.png,"[""dried_meat.png""]",blank.png,blank.png,blank.png,blank.png,blank.png,,,,,,,,,,,,,,,,,,,,,,,,,,,,,"[""dried_meat.png""]","[""pickle.png""]",PB18.png,,,,,,,,,,,0,6,"[""pickle.png""]","[""pickle.png""]","[""pickle.png""]","[""pickle.png""]","[""pickle.png""]","[""pickle.png""]",blank.png,PB18.png,PB15.png,"[""pickle.png""]","[""pickle.png""]","[""pickle.png""]","[""pickle.png""]","[""pickle.png""]","[""pickle.png""]","[""pickle.png""]","[""pickle.png""]","[""pickle.png""]","[""pickle.png""]",blank.png,blank.png,1,"[""dried_meat.png""]",blank.png,blank.png,blank.png,4,"[""pickle.png""]","[""pickle.png""]","[""pickle.png""]","[""pickle.png""]",blank.png,blank.png,PB15.png,,,,,,,,,,,1,,,,,,,,,,,,,185.27199999906588,,response,,,,,,,,,,,,,4,,,,,,,,,,,,,,,,,,,,,,,,,,,,,,,,,,,,,,,,,,,,,,,,,,,,,,,,,"[""pickle.png""]","[""dried_meat.png""]",,,,6,right,keydown(ArrowRight),false,,1,,,,,,,731192.1450000082,731191.2799999991,730689.281,731001.9899999897,731006.008,731506.053,,5,,
square,canvas.Screen,2_4_3_6_1_0_0_0_0_4_3,2021-05-24T16:19:40.115Z,,,blank.png,blank.png,blank.png,blank.png,blank.png,blank.png,blank.png,"[""dried_meat.png""]",blank.png,blank.png,blank.png,blank.png,blank.png,,,,,,,,,,,,,,,,,,,,,,,,,,,,,"[""dried_meat.png""]","[""pickle.png""]",PB18.png,,,,,,,,,,,0,6,"[""pickle.png""]","[""pickle.png""]","[""pickle.png""]","[""pickle.png""]","[""pickle.png""]","[""pickle.png""]",blank.png,PB18.png,PB15.png,"[""pickle.png""]","[""pickle.png""]","[""pickle.png""]","[""pickle.png""]","[""pickle.png""]","[""pickle.png""]","[""pickle.png""]","[""pickle.png""]","[""pickle.png""]","[""pickle.png""]",blank.png,blank.png,1,"[""dried_meat.png""]",blank.png,blank.png,blank.png,4,"[""pickle.png""]","[""pickle.png""]","[""pickle.png""]","[""pickle.png""]",blank.png,blank.png,PB15.png,,,,,,,,,,,1,,,#808080,#33ff3f,,,,,,,,,1000.0230000000447,,timeout,,,,,,,,,,,,,4,,,,,,,,,,,,,,,,,,,,,,,,,,,,,,,,,,,,,,,,,,,,,,,,,,,,,,,,,"[""pickle.png""]","[""dried_meat.png""]",,,,6,,,false,,1,,,,,white,black,732490.1200000022,732489.416,731489.31,731493.1900000083,731506.053,732506.076,,,,
ITI_late,canvas.Screen,2_4_3_6_1_0_0_0_0_4_4,2021-05-24T16:19:41.365Z,,,blank.png,blank.png,blank.png,blank.png,blank.png,blank.png,blank.png,"[""dried_meat.png""]",blank.png,blank.png,blank.png,blank.png,blank.png,,,,,,,,,,,,,,,,,,,,,,,,,,,,,"[""dried_meat.png""]","[""pickle.png""]",PB18.png,,,,,,,,,,,0,6,"[""pickle.png""]","[""pickle.png""]","[""pickle.png""]","[""pickle.png""]","[""pickle.png""]","[""pickle.png""]",blank.png,PB18.png,PB15.png,"[""pickle.png""]","[""pickle.png""]","[""pickle.png""]","[""pickle.png""]","[""pickle.png""]","[""pickle.png""]","[""pickle.png""]","[""pickle.png""]","[""pickle.png""]","[""pickle.png""]",blank.png,blank.png,1,"[""dried_meat.png""]",blank.png,blank.png,blank.png,4,"[""pickle.png""]","[""pickle.png""]","[""pickle.png""]","[""pickle.png""]",blank.png,blank.png,PB15.png,,,,,,,,,,,1,,,,,,,,,,,,,1250.0899999999674,,timeout,,,,,,,,,,,,white,4,,,,,,,,,,,,,,,,,,,,,,,,,,,,,,,,,,,,,,,,,,,,,,,,,,,,,,,,,"[""pickle.png""]","[""dried_meat.png""]",,,,6,,,false,,1,,,,,,,733739.8999999859,733739.469,732489.416,732491.949999996,732506.076,733756.166,,,,
choice_sequence,flow.Sequence,2_4_3_6_1_0_0_0_0_4,2021-05-24T16:19:41.365Z,,,blank.png,blank.png,blank.png,blank.png,blank.png,blank.png,blank.png,"[""dried_meat.png""]",blank.png,blank.png,blank.png,blank.png,blank.png,,,,,,,,,,,,,,,,,,,,,,,,,,,,,"[""dried_meat.png""]","[""pickle.png""]",PB18.png,,,,,,,,,,,0,6,"[""pickle.png""]","[""pickle.png""]","[""pickle.png""]","[""pickle.png""]","[""pickle.png""]","[""pickle.png""]",blank.png,PB18.png,PB15.png,"[""pickle.png""]","[""pickle.png""]","[""pickle.png""]","[""pickle.png""]","[""pickle.png""]","[""pickle.png""]","[""pickle.png""]","[""pickle.png""]","[""pickle.png""]","[""pickle.png""]",blank.png,blank.png,1,"[""dried_meat.png""]",blank.png,blank.png,blank.png,4,"[""pickle.png""]","[""pickle.png""]","[""pickle.png""]","[""pickle.png""]",blank.png,blank.png,PB15.png,,,,,,,,,,,1,,,,,,,,,,,,,4166.927000000025,,completion,,,,,,,,,,,,,4,,,,,,,,,,,,,,,,,,,,,,,,,,,,,,,,,,,,,,,,,,,,,,,,,,,,,,,,,"[""pickle.png""]","[""dried_meat.png""]",,,,6,,,false,,1,,,,,,,733740.3300000005,733739.469,729555.881,729560.9899999981,729572.542,733756.166,,,,
fixCross,canvas.Screen,2_4_3_6_1_0_0_0_0_5_0,2021-05-24T16:19:41.715Z,,,blank.png,"[""dried_meat.png""]",blank.png,blank.png,blank.png,blank.png,blank.png,blank.png,blank.png,blank.png,blank.png,blank.png,blank.png,,,,,,,,,,,,,,,,,,,,,,,,,,,,,"[""dried_meat.png""]","[""pickle.png""]",PB14.png,,,,,,,,,,,0,6,"[""pickle.png""]","[""pickle.png""]","[""pickle.png""]","[""pickle.png""]","[""pickle.png""]","[""pickle.png""]",blank.png,PB18.png,PB18.png,"[""pickle.png""]","[""pickle.png""]","[""pickle.png""]",blank.png,blank.png,blank.png,"[""pickle.png""]","[""pickle.png""]","[""pickle.png""]","[""pickle.png""]","[""pickle.png""]","[""pickle.png""]",1,"[""dried_meat.png""]",blank.png,blank.png,blank.png,3,"[""pickle.png""]","[""pickle.png""]","[""pickle.png""]",blank.png,blank.png,blank.png,PB14.png,,,,,,,,,,,1,,,,,,,,,,,,,616.7399999999907,,timeout,,,,,,,,,,,,,3,,,,,,,,,,,,,,,,,,,,,,,,,,,,,,,,,,,,,,,,,,,,,,,,,,,,,,,,,"[""pickle.png""]","[""dried_meat.png""]",,,,6,,,false,,1,,,,,,,734089.9449999852,734089.5,733739.469,733750.8399999933,733756.166,734372.906,6,,,
timeout,canvas.Screen,2_4_3_6_1_0_0_0_0_5_1,2021-05-24T16:19:42.482Z,,,blank.png,"[""dried_meat.png""]",blank.png,blank.png,blank.png,blank.png,blank.png,blank.png,blank.png,blank.png,blank.png,blank.png,blank.png,,,,,,,,,,,,,,,,,,,,,,,,,,,,,"[""dried_meat.png""]","[""pickle.png""]",PB14.png,,,,,,,,,,,0,6,"[""pickle.png""]","[""pickle.png""]","[""pickle.png""]","[""pickle.png""]","[""pickle.png""]","[""pickle.png""]",blank.png,PB18.png,PB18.png,"[""pickle.png""]","[""pickle.png""]","[""pickle.png""]",blank.png,blank.png,blank.png,"[""pickle.png""]","[""pickle.png""]","[""pickle.png""]","[""pickle.png""]","[""pickle.png""]","[""pickle.png""]",1,"[""dried_meat.png""]",blank.png,blank.png,blank.png,3,"[""pickle.png""]","[""pickle.png""]","[""pickle.png""]",blank.png,blank.png,blank.png,PB14.png,,,,,,,,,,,1,,,,,,,,,,,,,800.0570000000298,,timeout,,,,,,,,,,,,,3,,,,,,,,,,,,,,,,,,,,,,,,,,,,,,,,,,,,,,,,,,,,,,,,,,,,,,,,,"[""pickle.png""]","[""dried_meat.png""]",,,,6,,,false,,1,,,,,,,734856.7350000085,734856.221,734089.5,734380.2149999829,734372.906,735172.963,,,,
choice,canvas.Screen,2_4_3_6_1_0_0_0_0_5_2,2021-05-24T16:19:42.801Z,,,blank.png,"[""dried_meat.png""]",blank.png,blank.png,blank.png,blank.png,blank.png,blank.png,blank.png,blank.png,blank.png,blank.png,blank.png,,,,,,,,,,,,,,,,,,,,,,,,,,,,,"[""dried_meat.png""]","[""pickle.png""]",PB14.png,,,,,,,,,,,0,6,"[""pickle.png""]","[""pickle.png""]","[""pickle.png""]","[""pickle.png""]","[""pickle.png""]","[""pickle.png""]",blank.png,PB18.png,PB18.png,"[""pickle.png""]","[""pickle.png""]","[""pickle.png""]",blank.png,blank.png,blank.png,"[""pickle.png""]","[""pickle.png""]","[""pickle.png""]","[""pickle.png""]","[""pickle.png""]","[""pickle.png""]",1,"[""dried_meat.png""]",blank.png,blank.png,blank.png,3,"[""pickle.png""]","[""pickle.png""]","[""pickle.png""]",blank.png,blank.png,blank.png,PB14.png,,,,,,,,,,,1,,,,,,,,,,,,,307.78399999870453,,response,,,,,,,,,,,,,3,,,,,,,,,,,,,,,,,,,,,,,,,,,,,,,,,,,,,,,,,,,,,,,,,,,,,,,,,"[""pickle.png""]","[""dried_meat.png""]",,,,6,left,keydown(ArrowLeft),false,,1,,,,,,,735176.1300000071,735164.0049999987,734856.221,735160.3649999888,,735489.638,,6,,
square,canvas.Screen,2_4_3_6_1_0_0_0_0_5_3,2021-05-24T16:19:44.098Z,,,blank.png,"[""dried_meat.png""]",blank.png,blank.png,blank.png,blank.png,blank.png,blank.png,blank.png,blank.png,blank.png,blank.png,blank.png,,,,,,,,,,,,,,,,,,,,,,,,,,,,,"[""dried_meat.png""]","[""pickle.png""]",PB14.png,,,,,,,,,,,0,6,"[""pickle.png""]","[""pickle.png""]","[""pickle.png""]","[""pickle.png""]","[""pickle.png""]","[""pickle.png""]",blank.png,PB18.png,PB18.png,"[""pickle.png""]","[""pickle.png""]","[""pickle.png""]",blank.png,blank.png,blank.png,"[""pickle.png""]","[""pickle.png""]","[""pickle.png""]","[""pickle.png""]","[""pickle.png""]","[""pickle.png""]",1,"[""dried_meat.png""]",blank.png,blank.png,blank.png,3,"[""pickle.png""]","[""pickle.png""]","[""pickle.png""]",blank.png,blank.png,blank.png,PB14.png,,,,,,,,,,,1,,,#33ff3f,#808080,,,,,,,,,1000.0089999999618,,timeout,,,,,,,,,,,,,3,,,,,,,,,,,,,,,,,,,,,,,,,,,,,,,,,,,,,,,,,,,,,,,,,,,,,,,,,"[""pickle.png""]","[""dried_meat.png""]",,,,6,,,false,,1,,,,,black,white,736473.4549999994,736472.985,735172.963,735477.8200000001,735489.638,736489.647,,,,
ITI_late,canvas.Screen,2_4_3_6_1_0_0_0_0_5_4,2021-05-24T16:19:44.348Z,,,blank.png,"[""dried_meat.png""]",blank.png,blank.png,blank.png,blank.png,blank.png,blank.png,blank.png,blank.png,blank.png,blank.png,blank.png,,,,,,,,,,,,,,,,,,,,,,,,,,,,,"[""dried_meat.png""]","[""pickle.png""]",PB14.png,,,,,,,,,,,0,6,"[""pickle.png""]","[""pickle.png""]","[""pickle.png""]","[""pickle.png""]","[""pickle.png""]","[""pickle.png""]",blank.png,PB18.png,PB18.png,"[""pickle.png""]","[""pickle.png""]","[""pickle.png""]",blank.png,blank.png,blank.png,"[""pickle.png""]","[""pickle.png""]","[""pickle.png""]","[""pickle.png""]","[""pickle.png""]","[""pickle.png""]",1,"[""dried_meat.png""]",blank.png,blank.png,blank.png,3,"[""pickle.png""]","[""pickle.png""]","[""pickle.png""]",blank.png,blank.png,blank.png,PB14.png,,,,,,,,,,,1,,,,,,,,,,,,,250.03099999995902,,timeout,,,,,,,,,,,,white,3,,,,,,,,,,,,,,,,,,,,,,,,,,,,,,,,,,,,,,,,,,,,,,,,,,,,,,,,,"[""pickle.png""]","[""dried_meat.png""]",,,,6,,,false,,1,,,,,,,736723.4499999904,736723.007,736472.985,736475.1099999994,736489.647,736739.678,,,,
choice_sequence,flow.Sequence,2_4_3_6_1_0_0_0_0_5,2021-05-24T16:19:44.349Z,,,blank.png,"[""dried_meat.png""]",blank.png,blank.png,blank.png,blank.png,blank.png,blank.png,blank.png,blank.png,blank.png,blank.png,blank.png,,,,,,,,,,,,,,,,,,,,,,,,,,,,,"[""dried_meat.png""]","[""pickle.png""]",PB14.png,,,,,,,,,,,0,6,"[""pickle.png""]","[""pickle.png""]","[""pickle.png""]","[""pickle.png""]","[""pickle.png""]","[""pickle.png""]",blank.png,PB18.png,PB18.png,"[""pickle.png""]","[""pickle.png""]","[""pickle.png""]",blank.png,blank.png,blank.png,"[""pickle.png""]","[""pickle.png""]","[""pickle.png""]","[""pickle.png""]","[""pickle.png""]","[""pickle.png""]",1,"[""dried_meat.png""]",blank.png,blank.png,blank.png,3,"[""pickle.png""]","[""pickle.png""]","[""pickle.png""]",blank.png,blank.png,blank.png,PB14.png,,,,,,,,,,,1,,,,,,,,,,,,,2966.841000000015,,completion,,,,,,,,,,,,,3,,,,,,,,,,,,,,,,,,,,,,,,,,,,,,,,,,,,,,,,,,,,,,,,,,,,,,,,,"[""pickle.png""]","[""dried_meat.png""]",,,,6,,,false,,1,,,,,,,736723.880000005,736723.007,733739.469,733749.5950000011,733756.166,736739.678,,,,
fixCross,canvas.Screen,2_4_3_6_1_0_0_0_0_6_0,2021-05-24T16:19:45.098Z,,,blank.png,blank.png,blank.png,blank.png,blank.png,blank.png,blank.png,"[""dried_meat.png""]",blank.png,blank.png,blank.png,blank.png,blank.png,,,,,,,,,,,,,,,,,,,,,,,,,,,,,"[""dried_meat.png""]","[""pickle.png""]",PB18.png,,,,,,,,,,,0,6,"[""pickle.png""]","[""pickle.png""]","[""pickle.png""]","[""pickle.png""]","[""pickle.png""]","[""pickle.png""]",blank.png,PB18.png,PB07.png,"[""pickle.png""]","[""pickle.png""]","[""pickle.png""]","[""pickle.png""]","[""pickle.png""]","[""pickle.png""]","[""pickle.png""]",blank.png,blank.png,blank.png,blank.png,blank.png,1,"[""dried_meat.png""]",blank.png,blank.png,blank.png,1,"[""pickle.png""]",blank.png,blank.png,blank.png,blank.png,blank.png,PB07.png,,,,,,,,,,,1,,,,,,,,,,,,,1016.7420000000857,,timeout,,,,,,,,,,,,,4,,,,,,,,,,,,,,,,,,,,,,,,,,,,,,,,,,,,,,,,,,,,,,,,,,,,,,,,,"[""pickle.png""]","[""dried_meat.png""]",,,,6,,,false,,1,,,,,,,737473.559999984,737473.049,736723.007,736728.604999982,736739.678,737756.42,7,,,
timeout,canvas.Screen,2_4_3_6_1_0_0_0_0_6_1,2021-05-24T16:19:45.865Z,,,blank.png,blank.png,blank.png,blank.png,blank.png,blank.png,blank.png,"[""dried_meat.png""]",blank.png,blank.png,blank.png,blank.png,blank.png,,,,,,,,,,,,,,,,,,,,,,,,,,,,,"[""dried_meat.png""]","[""pickle.png""]",PB18.png,,,,,,,,,,,0,6,"[""pickle.png""]","[""pickle.png""]","[""pickle.png""]","[""pickle.png""]","[""pickle.png""]","[""pickle.png""]",blank.png,PB18.png,PB07.png,"[""pickle.png""]","[""pickle.png""]","[""pickle.png""]","[""pickle.png""]","[""pickle.png""]","[""pickle.png""]","[""pickle.png""]",blank.png,blank.png,blank.png,blank.png,blank.png,1,"[""dried_meat.png""]",blank.png,blank.png,blank.png,1,"[""pickle.png""]",blank.png,blank.png,blank.png,blank.png,blank.png,PB07.png,,,,,,,,,,,1,,,,,,,,,,,,,783.3829999999143,,timeout,,,,,,,,,,,,,4,,,,,,,,,,,,,,,,,,,,,,,,,,,,,,,,,,,,,,,,,,,,,,,,,,,,,,,,,"[""pickle.png""]","[""dried_meat.png""]",,,,6,,,false,,1,,,,,,,738240.2799999982,738239.825,737473.049,737764.5649999904,737756.42,738539.803,,,,
choice,canvas.Screen,2_4_3_6_1_0_0_0_0_6_2,2021-05-24T16:19:46.171Z,,,blank.png,blank.png,blank.png,blank.png,blank.png,blank.png,blank.png,"[""dried_meat.png""]",blank.png,blank.png,blank.png,blank.png,blank.png,,,,,,,,,,,,,,,,,,,,,,,,,,,,,"[""dried_meat.png""]","[""pickle.png""]",PB18.png,,,,,,,,,,,0,6,"[""pickle.png""]","[""pickle.png""]","[""pickle.png""]","[""pickle.png""]","[""pickle.png""]","[""pickle.png""]",blank.png,PB18.png,PB07.png,"[""pickle.png""]","[""pickle.png""]","[""pickle.png""]","[""pickle.png""]","[""pickle.png""]","[""pickle.png""]","[""pickle.png""]",blank.png,blank.png,blank.png,blank.png,blank.png,1,"[""dried_meat.png""]",blank.png,blank.png,blank.png,1,"[""pickle.png""]",blank.png,blank.png,blank.png,blank.png,blank.png,PB07.png,,,,,,,,,,,1,,,,,,,,,,,,,184.18000000808388,,response,,,,,,,,,,,,,4,,,,,,,,,,,,,,,,,,,,,,,,,,,,,,,,,,,,,,,,,,,,,,,,,,,,,,,,,"[""pickle.png""]","[""dried_meat.png""]",,,,6,right,keydown(ArrowRight),false,,1,,,,,,,738546.2100000004,738424.005000008,738239.825,738530.3349999886,,738856.51,,7,,
square,canvas.Screen,2_4_3_6_1_0_0_0_0_6_3,2021-05-24T16:19:47.465Z,,,blank.png,blank.png,blank.png,blank.png,blank.png,blank.png,blank.png,"[""dried_meat.png""]",blank.png,blank.png,blank.png,blank.png,blank.png,,,,,,,,,,,,,,,,,,,,,,,,,,,,,"[""dried_meat.png""]","[""pickle.png""]",PB18.png,,,,,,,,,,,0,6,"[""pickle.png""]","[""pickle.png""]","[""pickle.png""]","[""pickle.png""]","[""pickle.png""]","[""pickle.png""]",blank.png,PB18.png,PB07.png,"[""pickle.png""]","[""pickle.png""]","[""pickle.png""]","[""pickle.png""]","[""pickle.png""]","[""pickle.png""]","[""pickle.png""]",blank.png,blank.png,blank.png,blank.png,blank.png,1,"[""dried_meat.png""]",blank.png,blank.png,blank.png,1,"[""pickle.png""]",blank.png,blank.png,blank.png,blank.png,blank.png,PB07.png,,,,,,,,,,,1,,,#808080,#33ff3f,,,,,,,,,1000.0239999999758,,timeout,,,,,,,,,,,,,4,,,,,,,,,,,,,,,,,,,,,,,,,,,,,,,,,,,,,,,,,,,,,,,,,,,,,,,,,"[""pickle.png""]","[""dried_meat.png""]",,,,6,,,false,,1,,,,,white,black,739840.6749999849,739839.862,738539.803,738840.7000000007,738856.51,739856.534,,,,
ITI_late,canvas.Screen,2_4_3_6_1_0_0_0_0_6_4,2021-05-24T16:19:47.966Z,,,blank.png,blank.png,blank.png,blank.png,blank.png,blank.png,blank.png,"[""dried_meat.png""]",blank.png,blank.png,blank.png,blank.png,blank.png,,,,,,,,,,,,,,,,,,,,,,,,,,,,,"[""dried_meat.png""]","[""pickle.png""]",PB18.png,,,,,,,,,,,0,6,"[""pickle.png""]","[""pickle.png""]","[""pickle.png""]","[""pickle.png""]","[""pickle.png""]","[""pickle.png""]",blank.png,PB18.png,PB07.png,"[""pickle.png""]","[""pickle.png""]","[""pickle.png""]","[""pickle.png""]","[""pickle.png""]","[""pickle.png""]","[""pickle.png""]",blank.png,blank.png,blank.png,blank.png,blank.png,1,"[""dried_meat.png""]",blank.png,blank.png,blank.png,1,"[""pickle.png""]",blank.png,blank.png,blank.png,blank.png,blank.png,PB07.png,,,,,,,,,,,1,,,,,,,,,,,,,516.7179999999935,,timeout,,,,,,,,,,,,white,4,,,,,,,,,,,,,,,,,,,,,,,,,,,,,,,,,,,,,,,,,,,,,,,,,,,,,,,,,"[""pickle.png""]","[""dried_meat.png""]",,,,6,,,false,,1,,,,,,,740340.8399999898,740339.891,739839.862,739842.3499999917,739856.534,740373.252,,,,
choice_sequence,flow.Sequence,2_4_3_6_1_0_0_0_0_6,2021-05-24T16:19:47.966Z,,,blank.png,blank.png,blank.png,blank.png,blank.png,blank.png,blank.png,"[""dried_meat.png""]",blank.png,blank.png,blank.png,blank.png,blank.png,,,,,,,,,,,,,,,,,,,,,,,,,,,,,"[""dried_meat.png""]","[""pickle.png""]",PB18.png,,,,,,,,,,,0,6,"[""pickle.png""]","[""pickle.png""]","[""pickle.png""]","[""pickle.png""]","[""pickle.png""]","[""pickle.png""]",blank.png,PB18.png,PB07.png,"[""pickle.png""]","[""pickle.png""]","[""pickle.png""]","[""pickle.png""]","[""pickle.png""]","[""pickle.png""]","[""pickle.png""]",blank.png,blank.png,blank.png,blank.png,blank.png,1,"[""dried_meat.png""]",blank.png,blank.png,blank.png,1,"[""pickle.png""]",blank.png,blank.png,blank.png,blank.png,blank.png,PB07.png,,,,,,,,,,,1,,,,,,,,,,,,,3600.212999999989,,completion,,,,,,,,,,,,,4,,,,,,,,,,,,,,,,,,,,,,,,,,,,,,,,,,,,,,,,,,,,,,,,,,,,,,,,,"[""pickle.png""]","[""dried_meat.png""]",,,,6,,,false,,1,,,,,,,740341.4350000094,740339.891,736723.007,736727.7699999977,736739.678,740373.252,,,,
choice_loop,flow.Loop,2_4_3_6_1_0_0_0_0,2021-05-24T16:19:47.969Z,,,,,,,,,,,,,,,,,,,,,,,,,,,,,,,,,,,,,,,,,,,,"[""dried_meat.png""]","[""pickle.png""]",,,,,,,,,,,,,,,,,,,,,,,,,,,,,,,,,,,,,,,,,,,,,,,,,,,,,,,,,,,,,,,,,,,,,,,26768.31799999997,,completion,,,,,,,,,,,,,,,,,,,,,,,,,,,,,,,,,,,,,,,,,,,,,,,,,,,,,,,,,,,,,,,,,,,,,,"[""pickle.png""]","[""dried_meat.png""]",,,,6,,,false,,,,,,,,,740343.6900000088,740339.891,713538.199,713576.2849999883,713571.573,740373.252,,,,
choice_frame,html.Frame,2_4_3_6_1_0_0_0,2021-05-24T16:19:47.969Z,,,,,,,,,,,,,,,,,,,,,,,,,,,,,,,,,,,,,,,,,,,,,,,,,,,,,,,,,,,,,,,,,,,,,,,,,,,,,,,,,,,,,,,,,,,,,,,,,,,,,,,,,,,,,,,,,,,,26772.266999986838,,,,,,,,,,,,,,,,,,,,,,,,,,,,,,,,,,,,,,,,,,,,,,,,,,,,,,,,,,,,,,,,,,,,,,,,,,,,,6,,,false,,,,,,,,,740344.0150000097,740343.8399999868,713538.199,713538.739999989,713571.573,740389.933,,,,
sublock_1,flow.Sequence,2_4_3_6_1_0_0,2021-05-24T16:19:47.969Z,,,,,,,,,,,,,,,,,,,,,,,,,,,,,,,,,,,,,,,,,,,,,,,,,,,,,,,,,,,,,,,,,,,,,,,,,,,,,,,,,,,,,,,,,,,,,,,,,,,,,,,,,,,,,,,,,,,,26772.266999986838,,completion,,,,,,,,,,,,,,,,,,,,,,,,,,,,,,,,,,,,,,,,,,,,,,,,,,,,,,,,,,,,,,,,,,,,,,,,,,,6,,,false,,,,,,,,,740344.2100000102,740343.8399999868,713538.199,713538.7099999934,713571.573,740389.933,,,,
fixCross,canvas.Screen,2_4_3_6_1_0_1_0_0_0_0,2021-05-24T16:19:48.349Z,,,blank.png,"[""dried_meat.png""]",blank.png,blank.png,blank.png,blank.png,blank.png,blank.png,blank.png,blank.png,blank.png,blank.png,blank.png,,,,,,,,,,,,,,,,,,,,,,,,,,,,,"[""dried_meat.png""]","[""pickle.png""]",PB17.png,,,,,,,,,,,0,6,"[""pickle.png""]","[""pickle.png""]","[""pickle.png""]","[""pickle.png""]","[""pickle.png""]","[""pickle.png""]",blank.png,PB18.png,PB18.png,"[""pickle.png""]","[""pickle.png""]","[""pickle.png""]","[""pickle.png""]","[""pickle.png""]","[""pickle.png""]","[""pickle.png""]","[""pickle.png""]","[""pickle.png""]","[""pickle.png""]","[""pickle.png""]","[""pickle.png""]",1,"[""dried_meat.png""]",blank.png,blank.png,blank.png,6,"[""pickle.png""]","[""pickle.png""]","[""pickle.png""]","[""pickle.png""]","[""pickle.png""]","[""pickle.png""]",PB17.png,,,,,,,,,,,1,,,,,,,,,,,,,650.0430000000633,,timeout,,,,,,,,,,,,,3,,,,,,,,,,,,,,,,,,,,,,,,,,,,,,,,,,,,,,,,,,,,,,,,,,,,,,,,,"[""pickle.png""]","[""dried_meat.png""]",,,,2,,,false,,1,,,,,,,740723.7099999911,740723.252,740373.252,740381.7449999915,740389.933,741039.976,8,,,
timeout,canvas.Screen,2_4_3_6_1_0_1_0_0_0_1,2021-05-24T16:19:49.149Z,,,blank.png,"[""dried_meat.png""]",blank.png,blank.png,blank.png,blank.png,blank.png,blank.png,blank.png,blank.png,blank.png,blank.png,blank.png,,,,,,,,,,,,,,,,,,,,,,,,,,,,,"[""dried_meat.png""]","[""pickle.png""]",PB17.png,,,,,,,,,,,0,6,"[""pickle.png""]","[""pickle.png""]","[""pickle.png""]","[""pickle.png""]","[""pickle.png""]","[""pickle.png""]",blank.png,PB18.png,PB18.png,"[""pickle.png""]","[""pickle.png""]","[""pickle.png""]","[""pickle.png""]","[""pickle.png""]","[""pickle.png""]","[""pickle.png""]","[""pickle.png""]","[""pickle.png""]","[""pickle.png""]","[""pickle.png""]","[""pickle.png""]",1,"[""dried_meat.png""]",blank.png,blank.png,blank.png,6,"[""pickle.png""]","[""pickle.png""]","[""pickle.png""]","[""pickle.png""]","[""pickle.png""]","[""pickle.png""]",PB17.png,,,,,,,,,,,1,,,,,,,,,,,,,816.7889999999898,,timeout,,,,,,,,,,,,,3,,,,,,,,,,,,,,,,,,,,,,,,,,,,,,,,,,,,,,,,,,,,,,,,,,,,,,,,,"[""pickle.png""]","[""dried_meat.png""]",,,,2,,,false,,1,,,,,,,741523.7649999908,741523.312,740723.252,741016.6899999895,741039.976,741856.765,,,,
choice,canvas.Screen,2_4_3_6_1_0_1_0_0_0_2,2021-05-24T16:19:49.491Z,,,blank.png,"[""dried_meat.png""]",blank.png,blank.png,blank.png,blank.png,blank.png,blank.png,blank.png,blank.png,blank.png,blank.png,blank.png,,,,,,,,,,,,,,,,,,,,,,,,,,,,,"[""dried_meat.png""]","[""pickle.png""]",PB17.png,,,,,,,,,,,0,6,"[""pickle.png""]","[""pickle.png""]","[""pickle.png""]","[""pickle.png""]","[""pickle.png""]","[""pickle.png""]",blank.png,PB18.png,PB18.png,"[""pickle.png""]","[""pickle.png""]","[""pickle.png""]","[""pickle.png""]","[""pickle.png""]","[""pickle.png""]","[""pickle.png""]","[""pickle.png""]","[""pickle.png""]","[""pickle.png""]","[""pickle.png""]","[""pickle.png""]",1,"[""dried_meat.png""]",blank.png,blank.png,blank.png,6,"[""pickle.png""]","[""pickle.png""]","[""pickle.png""]","[""pickle.png""]","[""pickle.png""]","[""pickle.png""]",PB17.png,,,,,,,,,,,1,,,,,,,,,,,,,225.107999988948,,response,,,,,,,,,,,,,3,,,,,,,,,,,,,,,,,,,,,,,,,,,,,,,,,,,,,,,,,,,,,,,,,,,,,,,,,"[""pickle.png""]","[""dried_meat.png""]",,,,2,left,keydown(ArrowLeft),false,,1,,,,,,,741865.7400000084,741748.419999989,741523.312,741850.3649999911,,742190.066,,8,,
square,canvas.Screen,2_4_3_6_1_0_1_0_0_0_3,2021-05-24T16:19:50.799Z,,,blank.png,"[""dried_meat.png""]",blank.png,blank.png,blank.png,blank.png,blank.png,blank.png,blank.png,blank.png,blank.png,blank.png,blank.png,,,,,,,,,,,,,,,,,,,,,,,,,,,,,"[""dried_meat.png""]","[""pickle.png""]",PB17.png,,,,,,,,,,,0,6,"[""pickle.png""]","[""pickle.png""]","[""pickle.png""]","[""pickle.png""]","[""pickle.png""]","[""pickle.png""]",blank.png,PB18.png,PB18.png,"[""pickle.png""]","[""pickle.png""]","[""pickle.png""]","[""pickle.png""]","[""pickle.png""]","[""pickle.png""]","[""pickle.png""]","[""pickle.png""]","[""pickle.png""]","[""pickle.png""]","[""pickle.png""]","[""pickle.png""]",1,"[""dried_meat.png""]",blank.png,blank.png,blank.png,6,"[""pickle.png""]","[""pickle.png""]","[""pickle.png""]","[""pickle.png""]","[""pickle.png""]","[""pickle.png""]",PB17.png,,,,,,,,,,,1,,,#33ff3f,#808080,,,,,,,,,1000.0160000000615,,timeout,,,,,,,,,,,,,3,,,,,,,,,,,,,,,,,,,,,,,,,,,,,,,,,,,,,,,,,,,,,,,,,,,,,,,,,"[""pickle.png""]","[""dried_meat.png""]",,,,2,,,false,,1,,,,,black,white,743173.849999992,743173.407,741856.765,742179.0749999927,742190.066,743190.082,,,,
ITI_late,canvas.Screen,2_4_3_6_1_0_1_0_0_0_4,2021-05-24T16:19:51.049Z,,,blank.png,"[""dried_meat.png""]",blank.png,blank.png,blank.png,blank.png,blank.png,blank.png,blank.png,blank.png,blank.png,blank.png,blank.png,,,,,,,,,,,,,,,,,,,,,,,,,,,,,"[""dried_meat.png""]","[""pickle.png""]",PB17.png,,,,,,,,,,,0,6,"[""pickle.png""]","[""pickle.png""]","[""pickle.png""]","[""pickle.png""]","[""pickle.png""]","[""pickle.png""]",blank.png,PB18.png,PB18.png,"[""pickle.png""]","[""pickle.png""]","[""pickle.png""]","[""pickle.png""]","[""pickle.png""]","[""pickle.png""]","[""pickle.png""]","[""pickle.png""]","[""pickle.png""]","[""pickle.png""]","[""pickle.png""]","[""pickle.png""]",1,"[""dried_meat.png""]",blank.png,blank.png,blank.png,6,"[""pickle.png""]","[""pickle.png""]","[""pickle.png""]","[""pickle.png""]","[""pickle.png""]","[""pickle.png""]",PB17.png,,,,,,,,,,,1,,,,,,,,,,,,,250.00199999997858,,timeout,,,,,,,,,,,,white,3,,,,,,,,,,,,,,,,,,,,,,,,,,,,,,,,,,,,,,,,,,,,,,,,,,,,,,,,,"[""pickle.png""]","[""dried_meat.png""]",,,,2,,,false,,1,,,,,,,743423.8949999854,743423.422,743173.407,743175.5199999898,743190.082,743440.084,,,,
choice_sequence,flow.Sequence,2_4_3_6_1_0_1_0_0_0,2021-05-24T16:19:51.049Z,,,blank.png,"[""dried_meat.png""]",blank.png,blank.png,blank.png,blank.png,blank.png,blank.png,blank.png,blank.png,blank.png,blank.png,blank.png,,,,,,,,,,,,,,,,,,,,,,,,,,,,,"[""dried_meat.png""]","[""pickle.png""]",PB17.png,,,,,,,,,,,0,6,"[""pickle.png""]","[""pickle.png""]","[""pickle.png""]","[""pickle.png""]","[""pickle.png""]","[""pickle.png""]",blank.png,PB18.png,PB18.png,"[""pickle.png""]","[""pickle.png""]","[""pickle.png""]","[""pickle.png""]","[""pickle.png""]","[""pickle.png""]","[""pickle.png""]","[""pickle.png""]","[""pickle.png""]","[""pickle.png""]","[""pickle.png""]","[""pickle.png""]",1,"[""dried_meat.png""]",blank.png,blank.png,blank.png,6,"[""pickle.png""]","[""pickle.png""]","[""pickle.png""]","[""pickle.png""]","[""pickle.png""]","[""pickle.png""]",PB17.png,,,,,,,,,,,1,,,,,,,,,,,,,3033.4890000000596,,completion,,,,,,,,,,,,,3,,,,,,,,,,,,,,,,,,,,,,,,,,,,,,,,,,,,,,,,,,,,,,,,,,,,,,,,,"[""pickle.png""]","[""dried_meat.png""]",,,,2,,,false,,1,,,,,,,743424.2950000043,743423.422,740373.252,740380.6849999819,740389.933,743440.084,,,,
fixCross,canvas.Screen,2_4_3_6_1_0_1_0_0_1_0,2021-05-24T16:19:51.599Z,,,blank.png,blank.png,blank.png,blank.png,blank.png,blank.png,blank.png,"[""dried_meat.png""]",blank.png,blank.png,blank.png,blank.png,blank.png,,,,,,,,,,,,,,,,,,,,,,,,,,,,,"[""dried_meat.png""]","[""pickle.png""]",PB18.png,,,,,,,,,,,0,6,"[""pickle.png""]","[""pickle.png""]","[""pickle.png""]","[""pickle.png""]","[""pickle.png""]","[""pickle.png""]",blank.png,PB18.png,PB12.png,"[""pickle.png""]","[""pickle.png""]","[""pickle.png""]","[""pickle.png""]","[""pickle.png""]","[""pickle.png""]","[""pickle.png""]","[""pickle.png""]",blank.png,blank.png,blank.png,blank.png,1,"[""dried_meat.png""]",blank.png,blank.png,blank.png,2,"[""pickle.png""]","[""pickle.png""]",blank.png,blank.png,blank.png,blank.png,PB12.png,,,,,,,,,,,1,,,,,,,,,,,,,833.4679999999935,,timeout,,,,,,,,,,,,,4,,,,,,,,,,,,,,,,,,,,,,,,,,,,,,,,,,,,,,,,,,,,,,,,,,,,,,,,,"[""pickle.png""]","[""dried_meat.png""]",,,,2,,,false,,1,,,,,,,743973.949999985,743973.454,743423.422,743429.0350000083,743440.084,744273.552,9,,,
timeout,canvas.Screen,2_4_3_6_1_0_1_0_0_1_1,2021-05-24T16:19:52.382Z,,,blank.png,blank.png,blank.png,blank.png,blank.png,blank.png,blank.png,"[""dried_meat.png""]",blank.png,blank.png,blank.png,blank.png,blank.png,,,,,,,,,,,,,,,,,,,,,,,,,,,,,"[""dried_meat.png""]","[""pickle.png""]",PB18.png,,,,,,,,,,,0,6,"[""pickle.png""]","[""pickle.png""]","[""pickle.png""]","[""pickle.png""]","[""pickle.png""]","[""pickle.png""]",blank.png,PB18.png,PB12.png,"[""pickle.png""]","[""pickle.png""]","[""pickle.png""]","[""pickle.png""]","[""pickle.png""]","[""pickle.png""]","[""pickle.png""]","[""pickle.png""]",blank.png,blank.png,blank.png,blank.png,1,"[""dried_meat.png""]",blank.png,blank.png,blank.png,2,"[""pickle.png""]","[""pickle.png""]",blank.png,blank.png,blank.png,blank.png,PB12.png,,,,,,,,,,,1,,,,,,,,,,,,,783.3510000000242,,timeout,,,,,,,,,,,,,4,,,,,,,,,,,,,,,,,,,,,,,,,,,,,,,,,,,,,,,,,,,,,,,,,,,,,,,,,"[""pickle.png""]","[""dried_meat.png""]",,,,2,,,false,,1,,,,,,,744757.2700000019,744756.84,743973.454,744265.9050000075,744273.552,745056.903,,,,
choice,canvas.Screen,2_4_3_6_1_0_1_0_0_1_2,2021-05-24T16:19:52.734Z,,,blank.png,blank.png,blank.png,blank.png,blank.png,blank.png,blank.png,"[""dried_meat.png""]",blank.png,blank.png,blank.png,blank.png,blank.png,,,,,,,,,,,,,,,,,,,,,,,,,,,,,"[""dried_meat.png""]","[""pickle.png""]",PB18.png,,,,,,,,,,,0,6,"[""pickle.png""]","[""pickle.png""]","[""pickle.png""]","[""pickle.png""]","[""pickle.png""]","[""pickle.png""]",blank.png,PB18.png,PB12.png,"[""pickle.png""]","[""pickle.png""]","[""pickle.png""]","[""pickle.png""]","[""pickle.png""]","[""pickle.png""]","[""pickle.png""]","[""pickle.png""]",blank.png,blank.png,blank.png,blank.png,1,"[""dried_meat.png""]",blank.png,blank.png,blank.png,2,"[""pickle.png""]","[""pickle.png""]",blank.png,blank.png,blank.png,blank.png,PB12.png,,,,,,,,,,,1,,,,,,,,,,,,,51.59199999307748,,response,,,,,,,,,,,,,4,,,,,,,,,,,,,,,,,,,,,,,,,,,,,,,,,,,,,,,,,,,,,,,,,,,,,,,,,"[""pickle.png""]","[""dried_meat.png""]",,,,2,right,keydown(ArrowRight),false,,1,,,,,,,745109.449999989,745108.4949999931,744756.84,745053.9149999968,745056.903,745406.891,,9,,
square,canvas.Screen,2_4_3_6_1_0_1_0_0_1_3,2021-05-24T16:19:54.016Z,,,blank.png,blank.png,blank.png,blank.png,blank.png,blank.png,blank.png,"[""dried_meat.png""]",blank.png,blank.png,blank.png,blank.png,blank.png,,,,,,,,,,,,,,,,,,,,,,,,,,,,,"[""dried_meat.png""]","[""pickle.png""]",PB18.png,,,,,,,,,,,0,6,"[""pickle.png""]","[""pickle.png""]","[""pickle.png""]","[""pickle.png""]","[""pickle.png""]","[""pickle.png""]",blank.png,PB18.png,PB12.png,"[""pickle.png""]","[""pickle.png""]","[""pickle.png""]","[""pickle.png""]","[""pickle.png""]","[""pickle.png""]","[""pickle.png""]","[""pickle.png""]",blank.png,blank.png,blank.png,blank.png,1,"[""dried_meat.png""]",blank.png,blank.png,blank.png,2,"[""pickle.png""]","[""pickle.png""]",blank.png,blank.png,blank.png,blank.png,PB12.png,,,,,,,,,,,1,,,#808080,#33ff3f,,,,,,,,,1000.0990000000456,,timeout,,,,,,,,,,,,,4,,,,,,,,,,,,,,,,,,,,,,,,,,,,,,,,,,,,,,,,,,,,,,,,,,,,,,,,,"[""pickle.png""]","[""dried_meat.png""]",,,,2,,,false,,1,,,,,white,black,746390.8900000097,746390.267,745390.225,745404.7549999959,745406.891,746406.99,,,,
ITI_late,canvas.Screen,2_4_3_6_1_0_1_0_0_1_4,2021-05-24T16:19:55.266Z,,,blank.png,blank.png,blank.png,blank.png,blank.png,blank.png,blank.png,"[""dried_meat.png""]",blank.png,blank.png,blank.png,blank.png,blank.png,,,,,,,,,,,,,,,,,,,,,,,,,,,,,"[""dried_meat.png""]","[""pickle.png""]",PB18.png,,,,,,,,,,,0,6,"[""pickle.png""]","[""pickle.png""]","[""pickle.png""]","[""pickle.png""]","[""pickle.png""]","[""pickle.png""]",blank.png,PB18.png,PB12.png,"[""pickle.png""]","[""pickle.png""]","[""pickle.png""]","[""pickle.png""]","[""pickle.png""]","[""pickle.png""]","[""pickle.png""]","[""pickle.png""]",blank.png,blank.png,blank.png,blank.png,1,"[""dried_meat.png""]",blank.png,blank.png,blank.png,2,"[""pickle.png""]","[""pickle.png""]",blank.png,blank.png,blank.png,blank.png,PB12.png,,,,,,,,,,,1,,,,,,,,,,,,,1250.0380000000587,,timeout,,,,,,,,,,,,white,4,,,,,,,,,,,,,,,,,,,,,,,,,,,,,,,,,,,,,,,,,,,,,,,,,,,,,,,,,"[""pickle.png""]","[""dried_meat.png""]",,,,2,,,false,,1,,,,,,,747640.8749999828,747640.39,746390.267,746392.4649999826,746406.99,747657.028,,,,
choice_sequence,flow.Sequence,2_4_3_6_1_0_1_0_0_1,2021-05-24T16:19:55.266Z,,,blank.png,blank.png,blank.png,blank.png,blank.png,blank.png,blank.png,"[""dried_meat.png""]",blank.png,blank.png,blank.png,blank.png,blank.png,,,,,,,,,,,,,,,,,,,,,,,,,,,,,"[""dried_meat.png""]","[""pickle.png""]",PB18.png,,,,,,,,,,,0,6,"[""pickle.png""]","[""pickle.png""]","[""pickle.png""]","[""pickle.png""]","[""pickle.png""]","[""pickle.png""]",blank.png,PB18.png,PB12.png,"[""pickle.png""]","[""pickle.png""]","[""pickle.png""]","[""pickle.png""]","[""pickle.png""]","[""pickle.png""]","[""pickle.png""]","[""pickle.png""]",blank.png,blank.png,blank.png,blank.png,1,"[""dried_meat.png""]",blank.png,blank.png,blank.png,2,"[""pickle.png""]","[""pickle.png""]",blank.png,blank.png,blank.png,blank.png,PB12.png,,,,,,,,,,,1,,,,,,,,,,,,,4200.305999999982,,completion,,,,,,,,,,,,,4,,,,,,,,,,,,,,,,,,,,,,,,,,,,,,,,,,,,,,,,,,,,,,,,,,,,,,,,,"[""pickle.png""]","[""dried_meat.png""]",,,,2,,,false,,1,,,,,,,747641.2999999884,747640.39,743423.422,743428.1999999948,743440.084,747657.028,,,,
fixCross,canvas.Screen,2_4_3_6_1_0_1_0_0_2_0,2021-05-24T16:19:55.816Z,,,blank.png,"[""dried_meat.png""]",blank.png,blank.png,blank.png,blank.png,blank.png,blank.png,blank.png,blank.png,blank.png,blank.png,blank.png,,,,,,,,,,,,,,,,,,,,,,,,,,,,,"[""dried_meat.png""]","[""pickle.png""]",PB14.png,,,,,,,,,,,0,6,"[""pickle.png""]","[""pickle.png""]","[""pickle.png""]","[""pickle.png""]","[""pickle.png""]","[""pickle.png""]",blank.png,PB18.png,PB18.png,"[""pickle.png""]","[""pickle.png""]","[""pickle.png""]",blank.png,blank.png,blank.png,"[""pickle.png""]","[""pickle.png""]","[""pickle.png""]","[""pickle.png""]","[""pickle.png""]","[""pickle.png""]",1,"[""dried_meat.png""]",blank.png,blank.png,blank.png,3,"[""pickle.png""]","[""pickle.png""]","[""pickle.png""]",blank.png,blank.png,blank.png,PB14.png,,,,,,,,,,,1,,,,,,,,,,,,,816.8629999998957,,timeout,,,,,,,,,,,,,3,,,,,,,,,,,,,,,,,,,,,,,,,,,,,,,,,,,,,,,,,,,,,,,,,,,,,,,,,"[""pickle.png""]","[""dried_meat.png""]",,,,2,,,false,,1,,,,,,,748190.8349999867,748190.389,747640.39,747646.1699999927,747657.028,748473.891,10,,,
timeout,canvas.Screen,2_4_3_6_1_0_1_0_0_2_1,2021-05-24T16:19:56.582Z,,,blank.png,"[""dried_meat.png""]",blank.png,blank.png,blank.png,blank.png,blank.png,blank.png,blank.png,blank.png,blank.png,blank.png,blank.png,,,,,,,,,,,,,,,,,,,,,,,,,,,,,"[""dried_meat.png""]","[""pickle.png""]",PB14.png,,,,,,,,,,,0,6,"[""pickle.png""]","[""pickle.png""]","[""pickle.png""]","[""pickle.png""]","[""pickle.png""]","[""pickle.png""]",blank.png,PB18.png,PB18.png,"[""pickle.png""]","[""pickle.png""]","[""pickle.png""]",blank.png,blank.png,blank.png,"[""pickle.png""]","[""pickle.png""]","[""pickle.png""]","[""pickle.png""]","[""pickle.png""]","[""pickle.png""]",1,"[""dried_meat.png""]",blank.png,blank.png,blank.png,3,"[""pickle.png""]","[""pickle.png""]","[""pickle.png""]",blank.png,blank.png,blank.png,PB14.png,,,,,,,,,,,1,,,,,,,,,,,,,783.3390000000363,,timeout,,,,,,,,,,,,,3,,,,,,,,,,,,,,,,,,,,,,,,,,,,,,,,,,,,,,,,,,,,,,,,,,,,,,,,,"[""pickle.png""]","[""dried_meat.png""]",,,,2,,,false,,1,,,,,,,748957.5799999875,748957.103,748190.389,748472.9449999868,748473.891,749257.23,,,,
choice,canvas.Screen,2_4_3_6_1_0_1_0_0_2_2,2021-05-24T16:19:56.894Z,,,blank.png,"[""dried_meat.png""]",blank.png,blank.png,blank.png,blank.png,blank.png,blank.png,blank.png,blank.png,blank.png,blank.png,blank.png,,,,,,,,,,,,,,,,,,,,,,,,,,,,,"[""dried_meat.png""]","[""pickle.png""]",PB14.png,,,,,,,,,,,0,6,"[""pickle.png""]","[""pickle.png""]","[""pickle.png""]","[""pickle.png""]","[""pickle.png""]","[""pickle.png""]",blank.png,PB18.png,PB18.png,"[""pickle.png""]","[""pickle.png""]","[""pickle.png""]",blank.png,blank.png,blank.png,"[""pickle.png""]","[""pickle.png""]","[""pickle.png""]","[""pickle.png""]","[""pickle.png""]","[""pickle.png""]",1,"[""dried_meat.png""]",blank.png,blank.png,blank.png,3,"[""pickle.png""]","[""pickle.png""]","[""pickle.png""]",blank.png,blank.png,blank.png,PB14.png,,,,,,,,,,,1,,,,,,,,,,,,,169.88699998974334,,response,,,,,,,,,,,,,3,,,,,,,,,,,,,,,,,,,,,,,,,,,,,,,,,,,,,,,,,,,,,,,,,,,,,,,,,"[""pickle.png""]","[""dried_meat.png""]",,,,2,left,keydown(ArrowLeft),false,,1,,,,,,,749268.9700000046,749126.9899999897,748957.103,749252.1600000036,,749573.826,,10,,
