sender,sender_type,sender_id,timestamp,meta,,Blank,DownLeft1,DownLeft2,DownLeft3,DownLeft4,DownLeft5,DownLeft6,DownRight1,DownRight2,DownRight3,DownRight4,DownRight5,DownRight6,FoodHabits_Fru_item1,FoodHabits_Fru_item2,FoodHabits_Fru_item3,FoodHabits_Fru_item4,FoodHabits_Fru_item5,FoodHabits_Fru_item6,FoodHabits_Fru_item7,FoodHabits_Meat_item1,FoodHabits_Meat_item2,FoodHabits_Meat_item3,FoodHabits_Meat_item4,FoodHabits_Meat_item5,FoodHabits_Meat_item6,FoodHabits_Meat_item7,FoodHabits_Swe_item1,FoodHabits_Swe_item2,FoodHabits_Swe_item3,FoodHabits_Swe_item4,FoodHabits_Swe_item5,FoodHabits_Swe_item6,FoodHabits_Swe_item7,FoodHabits_Veg_item1,FoodHabits_Veg_item2,FoodHabits_Veg_item3,FoodHabits_Veg_item4,FoodHabits_Veg_item5,FoodHabits_Veg_item6,FoodHabits_Veg_item7,ImgA,ImgB,LeftBar,PSS_item01,PSS_item02,PSS_item03,PSS_item04,PSS_item05,PSS_item06,PSS_item07,PSS_item08,PSS_item09,PSS_item10,RefA,RefB,RefB1,RefB2,RefB3,RefB4,RefB5,RefB6,RefB7,Ref_PB,RightBar,UpLeft1,UpLeft2,UpLeft3,UpLeft4,UpLeft5,UpLeft6,UpRight1,UpRight2,UpRight3,UpRight4,UpRight5,UpRight6,VarA,VarA1,VarA2,VarA3,VarA4,VarB,VarB1,VarB2,VarB3,VarB4,VarB5,VarB6,Var_PB,attCheck_fileA,attCheck_fileB,attCheck_fileC,attCheck_fileD,attCheck_options,attCheck_valueA,attCheck_valueB,attCheck_valueC,attCheck_valueD,attention_check,block,browser_name,choseL,choseR,consent_form1,consent_form2,consentconfirmation_form1,consentconfirmation_form2,correct,correctResponse,diet,disorder,duration,edu,ended_on,enjoy,full_version,gender,group,hunger,img,imgTask,input_age,input_meal,input_occ,input_remark,lateRespFeed,list,major_version,message,mixQ_item1,mixQ_item2,mixQ_item3,mixQ_item4,mixQ_item5,name,navigator_appName,navigator_userAgent,os,pracQ1_IDa,pracQ1_IDb,pracQ1_IDc,pracQ1_IDd,pracQ1_optionA,pracQ1_optionB,pracQ1_optionC,pracQ1_optionD,pracQ1_valueA,pracQ1_valueB,pracQ1_valueC,pracQ1_valueD,pracQ2_IDa,pracQ2_IDb,pracQ2_IDc,pracQ2_optionA,pracQ2_optionB,pracQ2_optionC,pracQ2_valueA,pracQ2_valueB,pracQ2_valueC,pracQ4_IDa,pracQ4_IDb,pracQ4_IDc,pracQ4_IDd,pracQ4_optionA,pracQ4_optionB,pracQ4_optionC,pracQ4_optionD,pracQ4_valueA,pracQ4_valueB,pracQ4_valueC,pracQ4_valueD,pracQ5_IDa,pracQ5_IDb,pracQ5_IDc,pracQ5_IDd,pracQ5_optionA,pracQ5_optionB,pracQ5_optionC,pracQ5_optionD,pracQ5_valueA,pracQ5_valueB,pracQ5_valueC,pracQ5_valueD,prefHealty,prefUnhealthy,prolific_ID,psessionID,pstudyID,rep,response,response_action,skip,snack,sublock,subtitle,task_difficulty,task_engagement,task_focus,textL,textR,time_commit,time_end,time_render,time_run,time_show,time_switch,trial_count,trial_countO,url,valence
Title,html.Page,0,2021-01-16T10:36:08.771Z,"{""labjs_version"":""20.1.1"",""labjs_build"":{""flavor"":""production"",""commit"":""c48ac4ada3769e8d34489594ab03097d5f256ac7""},""location"":""https://run.pavlovia.org/E3lab/rebund/html/?PROLIFIC_PID={{%PROLIFIC_PID%}}&STUDY_ID={{%STUDY_ID%}}&SESSION_ID={{%SESSION_ID%}}"",""userAgent"":""Mozilla/5.0 (Windows NT 10.0; Win64; x64) AppleWebKit/537.36 (KHTML, like Gecko) Chrome/87.0.4280.141 Safari/537.36"",""platform"":""Win32"",""language"":""es-ES"",""locale"":""es-ES"",""timeZone"":""Europe/Madrid"",""timezoneOffset"":-60,""screen_width"":1920,""screen_height"":1080,""scroll_width"":1920,""scroll_height"":889,""window_innerWidth"":1920,""window_innerHeight"":937,""devicePixelRatio"":1}",,,,,,,,,,,,,,,,,,,,,,,,,,,,,,,,,,,,,,,,,,,,,,,,,,,,,,,,,,,,,,,,,,,,,,,,,,,,,,,,,,,,,,,,,,,,,,,,,,,,,,,,,,,,,,,,,,6324.965000221431,,form submission,,,,,,,,,,,,,,,,,,,,,,,,,,,,,,,,,,,,,,,,,,,,,,,,,,,,,,,,,,,,,,,,,,,,,,,,,,,,,,,,,,,,,,,7856.225000228733,7856.010000221431,1510.201,1523.8000000827014,1531.045,7857.413,,,"{""PROLIFIC_PID"":""{{%PROLIFIC_PID%}}"",""STUDY_ID"":""{{%STUDY_ID%}}"",""SESSION_ID"":""{{%SESSION_ID%}}""}",
get_systemInfo,canvas.Screen,1,2021-01-16T10:36:08.779Z,,,,,,,,,,,,,,,,,,,,,,,,,,,,,,,,,,,,,,,,,,,,,,,,,,,,,,,,,,,,,,,,,,,,,,,,,,,,,,,,,,,,,,,,,,,,,,,,,,,,,,,,Chrome,,,,,,,,,,,2034.7269999999999,,timeout,,87.0.4280.141,,,,,,,,,,,,87,,,,,,,,Netscape,"Mozilla/5.0 (Windows NT 10.0; Win64; x64) AppleWebKit/537.36 (KHTML, like Gecko) Chrome/87.0.4280.141 Safari/537.36",Windows,,,,,,,,,,,,,,,,,,,,,,,,,,,,,,,,,,,,,,,,,,,,,,,,{{%PROLIFIC_PID%}},,{{%STUDY_ID%}},,,,,,,,,,,,,7863.590000197291,7863.43999998644,7850.47,7856.730000115931,7857.413,9892.14,,,,
ConsentForm,html.Form,2_0,2021-01-16T10:36:22.290Z,,,,,,,,,,,,,,,,,,,,,,,,,,,,,,,,,,,,,,,,,,,,,,,,,,,,,,,,,,,,,,,,,,,,,,,,,,,,,,,,,,,,,,,,,,,,,,,,,,,,,,,,,,,true,true,,,,,,,11482.644999992699,,form submission,,,,,,,,,,,,,,,,,,,,,,,,,,,,,,,,,,,,,,,,,,,,,,,,,,,,,,,,,,,,,,,,,,,,,,,,,,,,,,,,,,,,,,,21374.93500020355,21374.7849999927,7863.43999998644,9899.794999975711,9892.14,21378.221,,,,
PepTalk,html.Page,2_1,2021-01-16T10:36:31.666Z,,,,,,,,,,,,,,,,,,,,,,,,,,,,,,,,,,,,,,,,,,,,,,,,,,,,,,,,,,,,,,,,,,,,,,,,,,,,,,,,,,,,,,,,,,,,,,,,,,,,,,,,,,,,,,,,,,,9372.30900031039,,form submission,,,,,,,,,,,,,,,,,,,,,,,,,,,,,,,,,,,,,,,,,,,,,,,,,,,,,,,,,,,,,,,,,,,,,,,,,,,,,,,,,,,,,,,30750.690000131726,30750.53000031039,21371.274,21375.035000033677,21378.221,30760.14,,,,
Demographics,html.Form,2_2,2021-01-16T10:36:47.725Z,,,,,,,,,,,,,,,,,,,,,,,,,,,,,,,,,,,,,,,,,,,,,,,,,,,,,,,,,,,,,,,,,,,,,,,,,,,,,,,,,,,,,,,,,,,,,,,,,,,,,,,,,,,,,,,,,,,16049.980000038297,3,form submission,,,2,,,,,19,,Student,,,,,,,,,,,,,,,,,,,,,,,,,,,,,,,,,,,,,,,,,,,,,,,,,,,,,,,,,,,,,,,,,,,,,,,,,,,,,46810.25000009686,46810.120000038296,30753.2,30750.789999961853,30760.14,46815.679,,,,
InclusionCrit,html.Form,2_3,2021-01-16T10:36:57.407Z,,,,,,,,,,,,,,,,,,,,,,,,,,,,,,,,,,,,,,,,,,,,,,,,,,,,,,,,,,,,,,,,,,,,,,,,,,,,,,,,,,,,,,,,,,,,,,,,,,,,,,,,,,,,,,,,,1,1,9676.186000221882,,form submission,1,,,,,,,,,,,,,,,,,,,,,,,,,,,,,,,,,,,,,,,,,,,,,,,,,,,,,,,,,,,,,,,,,,,,,,,,,,,,,,,,,,,,,,56491.99500028044,56491.86500022188,46808.738,46810.34500012174,46815.679,56496.2,,,,
Selection,html.Page,2_4_0,2021-01-16T10:37:04.836Z,,,,,,,,,,,,,,,,,,,,,,,,,,,,,,,,,,,,,,,,,,,,,,,,,,,,,,,,,,,,,,,,,,,,,,,,,,,,,,,,,,,,,,,,,,,,,,,,,,,,,,,,,,,,,,,,,,,7424.475000175837,,form submission,,,,,,,,,,,,,,,,,,,,,,,,,,,,,,,,,,,,,,,,,,,,,,,,,,,,,,,,,,,,,,,,,,,,,,,,,,,,,,,0,,,,,,,,63920.79500015825,63920.675000175834,56489.255,56492.12499987334,56496.2,63926.748,,,,
Load,html.Page,2_4_1,2021-01-16T10:37:04.843Z,,,,,,,,,,,,,,,,,,,,,,,,,,,,,,,,,,,,,,,,,,,,,,,,,,,,,,,,,,,,,,,,,,,,,,,,,,,,,,,,,,,,,,,,,,,,,,,,,,,,,,,,,,,,,,,,,,,6395.807999999997,,timeout,,,,,,,,,,,,,,,,,,,,,,,,,,,,,,,,,,,,,,,,,,,,,,,,,,,,,,,,,,,,,,,,,,,,,,,,,,,,,,,,,,,,,,,63927.91499989107,63927.725000306964,63919.801,63920.88499991223,63926.748,70322.556,,,,
ratings_instructions,html.Screen,2_4_2_0,2021-01-16T10:37:19.201Z,,,,,,,,,,,,,,,,,,,,,,,,,,,,,,,,,,,,,,,,,,,,,,,,,,,,,,,,,,,,,,,,,,,,,,,,,,,,,,,,,,,,,,,,,,,,,,,,,,,,,,,,,,,,,,,,,,,7962.79400002012,,response,,,,,,,,,,,,,,,,,,,,,,,,,,,,,,,,,,,,,,,,,,,,,,,,,,,,,,,,,,,,,,,,,,,,,,,,,,,,continue,keypress(Space),false,,,,,,,,,78286.60000022501,78285.35000002012,63927.725000306964,70331.5250002779,70322.556,78287.847,0,0,,
fixCross,canvas.Screen,2_4_2_1_0_0,2021-01-16T10:37:19.696Z,,,,,,,,,,,,,,,,,,,,,,,,,,,,,,,,,,,,,,,,,,,,,,,,,,,,,,,,,,,,,,,,,,,,,,,,,,,,,,,,,,,,,,,,,,,,,,,,,,,,,,,,,,,,,,,,,,,499.97900000000664,,timeout,,,,unhealthy,,praline.png,,,,,,,,,,,,,,,praline,,,,,,,,,,,,,,,,,,,,,,,,,,,,,,,,,,,,,,,,,,,,,,,,,,,,,,,,,false,,,,,,,,,78781.19000000879,78780.88,78280.862,78286.7499999702,78287.847,78787.826,,,,
Rating,html.Form,2_4_2_1_0_1,2021-01-16T10:37:25.846Z,,,,,,,,,,,,,,,,,,,,,,,,,,,,,,,,,,,,,,,,,,,,,,,,,,,,,,,,,,,,,,,,,,,,,,,,,,,,,,,,,,,,,,,,,,,,,,,,,,,,,,,,,,,,,,,,,,,6143.733999939053,,form submission,,,,unhealthy,,praline.png,,,,,,,,,,,,,,,praline,,,,,,,,,,,,,,,,,,,,,,,,,,,,,,,,,,,,,,,,,,,,,,,,,,,,,,,,,false,,,,,,,,,84931.68999999762,84931.55999993905,78780.88,78781.26499988139,78787.826,84933.654,,,,67
rating_sequence,flow.Sequence,2_4_2_1_0,2021-01-16T10:37:25.847Z,,,,,,,,,,,,,,,,,,,,,,,,,,,,,,,,,,,,,,,,,,,,,,,,,,,,,,,,,,,,,,,,,,,,,,,,,,,,,,,,,,,,,,,,,,,,,,,,,,,,,,,,,,,,,,,,,,,6643.71299993906,,completion,,,,unhealthy,,praline.png,,,,,,,,,,,,,,,praline,,,,,,,,,,,,,,,,,,,,,,,,,,,,,,,,,,,,,,,,,,,,,,,,,,,,,,,,,false,,,,,,,,,84932.52000026405,84931.55999993905,78280.862,78286.73500008881,78287.847,84933.654,,,,
fixCross,canvas.Screen,2_4_2_1_1_0,2021-01-16T10:37:26.342Z,,,,,,,,,,,,,,,,,,,,,,,,,,,,,,,,,,,,,,,,,,,,,,,,,,,,,,,,,,,,,,,,,,,,,,,,,,,,,,,,,,,,,,,,,,,,,,,,,,,,,,,,,,,,,,,,,,,499.9850000000006,,timeout,,,,healthy,,raspberry.png,,,,,,,,,,,,,,,raspberry,,,,,,,,,,,,,,,,,,,,,,,,,,,,,,,,,,,,,,,,,,,,,,,,,,,,,,,,,false,,,,,,,,,85426.97500018403,85426.695,84926.699,84932.58000025526,84933.654,85433.639,,,,
Rating,html.Form,2_4_2_1_1_1,2021-01-16T10:37:28.513Z,,,,,,,,,,,,,,,,,,,,,,,,,,,,,,,,,,,,,,,,,,,,,,,,,,,,,,,,,,,,,,,,,,,,,,,,,,,,,,,,,,,,,,,,,,,,,,,,,,,,,,,,,,,,,,,,,,,2164.9559998721525,,form submission,,,,healthy,,raspberry.png,,,,,,,,,,,,,,,raspberry,,,,,,,,,,,,,,,,,,,,,,,,,,,,,,,,,,,,,,,,,,,,,,,,,,,,,,,,,false,,,,,,,,,87598.73500000685,87598.59499987215,85426.695,85427.06000013277,85433.639,87600.304,,,,0
rating_sequence,flow.Sequence,2_4_2_1_1,2021-01-16T10:37:28.514Z,,,,,,,,,,,,,,,,,,,,,,,,,,,,,,,,,,,,,,,,,,,,,,,,,,,,,,,,,,,,,,,,,,,,,,,,,,,,,,,,,,,,,,,,,,,,,,,,,,,,,,,,,,,,,,,,,,,2664.940999872153,,completion,,,,healthy,,raspberry.png,,,,,,,,,,,,,,,raspberry,,,,,,,,,,,,,,,,,,,,,,,,,,,,,,,,,,,,,,,,,,,,,,,,,,,,,,,,,false,,,,,,,,,87598.84000010788,87598.59499987215,84926.699,84932.56499990821,84933.654,87600.304,,,,
fixCross,canvas.Screen,2_4_2_1_2_0,2021-01-16T10:37:29.008Z,,,,,,,,,,,,,,,,,,,,,,,,,,,,,,,,,,,,,,,,,,,,,,,,,,,,,,,,,,,,,,,,,,,,,,,,,,,,,,,,,,,,,,,,,,,,,,,,,,,,,,,,,,,,,,,,,,,500.00599999999395,,timeout,,,,unhealthy,,m&m.png,,,,,,,,,,,,,,,m&m,,,,,,,,,,,,,,,,,,,,,,,,,,,,,,,,,,,,,,,,,,,,,,,,,,,,,,,,,false,,,,,,,,,88093.5949999839,88093.363,87593.356,87598.90000009909,87600.304,88100.31,,,,
Rating,html.Form,2_4_2_1_2_1,2021-01-16T10:37:31.135Z,,,,,,,,,,,,,,,,,,,,,,,,,,,,,,,,,,,,,,,,,,,,,,,,,,,,,,,,,,,,,,,,,,,,,,,,,,,,,,,,,,,,,,,,,,,,,,,,,,,,,,,,,,,,,,,,,,,2119.355000215175,,form submission,,,,unhealthy,,m&m.png,,,,,,,,,,,,,,,m&m,,,,,,,,,,,,,,,,,,,,,,,,,,,,,,,,,,,,,,,,,,,,,,,,,,,,,,,,,false,,,,,,,,,90219.77500012144,90219.66500021517,88093.363,88093.6750001274,88100.31,90225.315,,,,66
rating_sequence,flow.Sequence,2_4_2_1_2,2021-01-16T10:37:31.135Z,,,,,,,,,,,,,,,,,,,,,,,,,,,,,,,,,,,,,,,,,,,,,,,,,,,,,,,,,,,,,,,,,,,,,,,,,,,,,,,,,,,,,,,,,,,,,,,,,,,,,,,,,,,,,,,,,,,2619.361000215169,,completion,,,,unhealthy,,m&m.png,,,,,,,,,,,,,,,m&m,,,,,,,,,,,,,,,,,,,,,,,,,,,,,,,,,,,,,,,,,,,,,,,,,,,,,,,,,false,,,,,,,,,90219.86000007018,90219.66500021517,87593.356,87598.8799999468,87600.304,90225.315,,,,
fixCross,canvas.Screen,2_4_2_1_3_0,2021-01-16T10:37:31.633Z,,,,,,,,,,,,,,,,,,,,,,,,,,,,,,,,,,,,,,,,,,,,,,,,,,,,,,,,,,,,,,,,,,,,,,,,,,,,,,,,,,,,,,,,,,,,,,,,,,,,,,,,,,,,,,,,,,,499.97699999999895,,timeout,,,,unhealthy,,candy.png,,,,,,,,,,,,,,,candy,,,,,,,,,,,,,,,,,,,,,,,,,,,,,,,,,,,,,,,,,,,,,,,,,,,,,,,,,false,,,,,,,,,90718.63000001758,90718.35,90218.361,90219.91500025615,90225.315,90725.292,,,,
Rating,html.Form,2_4_2_1_3_1,2021-01-16T10:37:35.380Z,,,,,,,,,,,,,,,,,,,,,,,,,,,,,,,,,,,,,,,,,,,,,,,,,,,,,,,,,,,,,,,,,,,,,,,,,,,,,,,,,,,,,,,,,,,,,,,,,,,,,,,,,,,,,,,,,,,3739.442999928622,,form submission,,,,unhealthy,,candy.png,,,,,,,,,,,,,,,candy,,,,,,,,,,,,,,,,,,,,,,,,,,,,,,,,,,,,,,,,,,,,,,,,,,,,,,,,,false,,,,,,,,,94464.87500006333,94464.73499992862,90718.35,90718.72000023723,90725.292,94468.343,,,,83
rating_sequence,flow.Sequence,2_4_2_1_3,2021-01-16T10:37:35.380Z,,,,,,,,,,,,,,,,,,,,,,,,,,,,,,,,,,,,,,,,,,,,,,,,,,,,,,,,,,,,,,,,,,,,,,,,,,,,,,,,,,,,,,,,,,,,,,,,,,,,,,,,,,,,,,,,,,,4239.419999928621,,completion,,,,unhealthy,,candy.png,,,,,,,,,,,,,,,candy,,,,,,,,,,,,,,,,,,,,,,,,,,,,,,,,,,,,,,,,,,,,,,,,,,,,,,,,,false,,,,,,,,,94464.97499989346,94464.73499992862,90218.361,90219.8999999091,90225.315,94468.343,,,,
fixCross,canvas.Screen,2_4_2_1_4_0,2021-01-16T10:37:35.876Z,,,,,,,,,,,,,,,,,,,,,,,,,,,,,,,,,,,,,,,,,,,,,,,,,,,,,,,,,,,,,,,,,,,,,,,,,,,,,,,,,,,,,,,,,,,,,,,,,,,,,,,,,,,,,,,,,,,500.0100000000093,,timeout,,,,unhealthy,,chocolate_truffle.png,,,,,,,,,,,,,,,chocolate truffle,,,,,,,,,,,,,,,,,,,,,,,,,,,,,,,,,,,,,,,,,,,,,,,,,,,,,,,,,false,,,,,,,,,94961.6499999538,94961.407,94461.408,94465.04000015557,94468.343,94968.353,,,,
Rating,html.Form,2_4_2_1_4_1,2021-01-16T10:37:37.906Z,,,,,,,,,,,,,,,,,,,,,,,,,,,,,,,,,,,,,,,,,,,,,,,,,,,,,,,,,,,,,,,,,,,,,,,,,,,,,,,,,,,,,,,,,,,,,,,,,,,,,,,,,,,,,,,,,,,2022.3620003127726,,form submission,,,,unhealthy,,chocolate_truffle.png,,,,,,,,,,,,,,,chocolate truffle,,,,,,,,,,,,,,,,,,,,,,,,,,,,,,,,,,,,,,,,,,,,,,,,,,,,,,,,,false,,,,,,,,,96990.85000017658,96990.71500031278,94961.407,94961.70999994501,94968.353,96996.14,,,,85
rating_sequence,flow.Sequence,2_4_2_1_4,2021-01-16T10:37:37.906Z,,,,,,,,,,,,,,,,,,,,,,,,,,,,,,,,,,,,,,,,,,,,,,,,,,,,,,,,,,,,,,,,,,,,,,,,,,,,,,,,,,,,,,,,,,,,,,,,,,,,,,,,,,,,,,,,,,,2522.372000312782,,completion,,,,unhealthy,,chocolate_truffle.png,,,,,,,,,,,,,,,chocolate truffle,,,,,,,,,,,,,,,,,,,,,,,,,,,,,,,,,,,,,,,,,,,,,,,,,,,,,,,,,false,,,,,,,,,96990.970000159,96990.71500031278,94461.408,94465.02000000328,94468.343,96996.14,,,,
fixCross,canvas.Screen,2_4_2_1_5_0,2021-01-16T10:37:38.404Z,,,,,,,,,,,,,,,,,,,,,,,,,,,,,,,,,,,,,,,,,,,,,,,,,,,,,,,,,,,,,,,,,,,,,,,,,,,,,,,,,,,,,,,,,,,,,,,,,,,,,,,,,,,,,,,,,,,499.9780000000028,,timeout,,,,unhealthy,,maltesers.png,,,,,,,,,,,,,,,malteser,,,,,,,,,,,,,,,,,,,,,,,,,,,,,,,,,,,,,,,,,,,,,,,,,,,,,,,,,false,,,,,,,,,97489.46500010788,97489.172,96989.195,96991.0500003025,96996.14,97496.118,,,,
Rating,html.Form,2_4_2_1_5_1,2021-01-16T10:37:40.922Z,,,,,,,,,,,,,,,,,,,,,,,,,,,,,,,,,,,,,,,,,,,,,,,,,,,,,,,,,,,,,,,,,,,,,,,,,,,,,,,,,,,,,,,,,,,,,,,,,,,,,,,,,,,,,,,,,,,2510.481999964235,,form submission,,,,unhealthy,,maltesers.png,,,,,,,,,,,,,,,malteser,,,,,,,,,,,,,,,,,,,,,,,,,,,,,,,,,,,,,,,,,,,,,,,,,,,,,,,,,false,,,,,,,,,100006.7350002937,100006.59999996424,97489.172,97489.55500032753,97496.118,100010.004,,,,85
rating_sequence,flow.Sequence,2_4_2_1_5,2021-01-16T10:37:40.922Z,,,,,,,,,,,,,,,,,,,,,,,,,,,,,,,,,,,,,,,,,,,,,,,,,,,,,,,,,,,,,,,,,,,,,,,,,,,,,,,,,,,,,,,,,,,,,,,,,,,,,,,,,,,,,,,,,,,3010.459999964238,,completion,,,,unhealthy,,maltesers.png,,,,,,,,,,,,,,,malteser,,,,,,,,,,,,,,,,,,,,,,,,,,,,,,,,,,,,,,,,,,,,,,,,,,,,,,,,,false,,,,,,,,,100006.83000031859,100006.59999996424,96989.195,96991.0300001502,96996.14,100010.004,,,,
fixCross,canvas.Screen,2_4_2_1_6_0,2021-01-16T10:37:41.418Z,,,,,,,,,,,,,,,,,,,,,,,,,,,,,,,,,,,,,,,,,,,,,,,,,,,,,,,,,,,,,,,,,,,,,,,,,,,,,,,,,,,,,,,,,,,,,,,,,,,,,,,,,,,,,,,,,,,499.99499999999534,,timeout,,,,healthy,,coconut.png,,,,,,,,,,,,,,,coconut,,,,,,,,,,,,,,,,,,,,,,,,,,,,,,,,,,,,,,,,,,,,,,,,,,,,,,,,,false,,,,,,,,,100503.37000004947,100503.051,100003.061,100006.89500011504,100010.004,100509.999,,,,
Rating,html.Form,2_4_2_1_6_1,2021-01-16T10:37:44.415Z,,,,,,,,,,,,,,,,,,,,,,,,,,,,,,,,,,,,,,,,,,,,,,,,,,,,,,,,,,,,,,,,,,,,,,,,,,,,,,,,,,,,,,,,,,,,,,,,,,,,,,,,,,,,,,,,,,,2989.661000205044,,form submission,,,,healthy,,coconut.png,,,,,,,,,,,,,,,coconut,,,,,,,,,,,,,,,,,,,,,,,,,,,,,,,,,,,,,,,,,,,,,,,,,,,,,,,,,false,,,,,,,,,103499.77000011131,103499.66000020504,100503.051,100503.43500031158,100509.999,103503.045,,,,14
rating_sequence,flow.Sequence,2_4_2_1_6,2021-01-16T10:37:44.415Z,,,,,,,,,,,,,,,,,,,,,,,,,,,,,,,,,,,,,,,,,,,,,,,,,,,,,,,,,,,,,,,,,,,,,,,,,,,,,,,,,,,,,,,,,,,,,,,,,,,,,,,,,,,,,,,,,,,3489.656000205039,,completion,,,,healthy,,coconut.png,,,,,,,,,,,,,,,coconut,,,,,,,,,,,,,,,,,,,,,,,,,,,,,,,,,,,,,,,,,,,,,,,,,,,,,,,,,false,,,,,,,,,103499.85000025481,103499.66000020504,100003.061,100006.87499996275,100010.004,103503.045,,,,
fixCross,canvas.Screen,2_4_2_1_7_0,2021-01-16T10:37:44.911Z,,,,,,,,,,,,,,,,,,,,,,,,,,,,,,,,,,,,,,,,,,,,,,,,,,,,,,,,,,,,,,,,,,,,,,,,,,,,,,,,,,,,,,,,,,,,,,,,,,,,,,,,,,,,,,,,,,,500.00800000000163,,timeout,,,,healthy,,orange.png,,,,,,,,,,,,,,,orange,,,,,,,,,,,,,,,,,,,,,,,,,,,,,,,,,,,,,,,,,,,,,,,,,,,,,,,,,false,,,,,,,,,103996.38500018045,103996.112,103496.105,103499.91000024602,103503.045,104003.053,,,,
Rating,html.Form,2_4_2_1_7_1,2021-01-16T10:37:48.259Z,,,,,,,,,,,,,,,,,,,,,,,,,,,,,,,,,,,,,,,,,,,,,,,,,,,,,,,,,,,,,,,,,,,,,,,,,,,,,,,,,,,,,,,,,,,,,,,,,,,,,,,,,,,,,,,,,,,3340.531999907762,,form submission,,,,healthy,,orange.png,,,,,,,,,,,,,,,orange,,,,,,,,,,,,,,,,,,,,,,,,,,,,,,,,,,,,,,,,,,,,,,,,,,,,,,,,,false,,,,,,,,,107343.72000023723,107343.58499990776,103996.112,103996.47499993443,104003.053,107350.267,,,,30
rating_sequence,flow.Sequence,2_4_2_1_7,2021-01-16T10:37:48.259Z,,,,,,,,,,,,,,,,,,,,,,,,,,,,,,,,,,,,,,,,,,,,,,,,,,,,,,,,,,,,,,,,,,,,,,,,,,,,,,,,,,,,,,,,,,,,,,,,,,,,,,,,,,,,,,,,,,,3840.5399999077636,,completion,,,,healthy,,orange.png,,,,,,,,,,,,,,,orange,,,,,,,,,,,,,,,,,,,,,,,,,,,,,,,,,,,,,,,,,,,,,,,,,,,,,,,,,false,,,,,,,,,107343.82000006735,107343.58499990776,103496.105,103499.89499989897,103503.045,107350.267,,,,
fixCross,canvas.Screen,2_4_2_1_8_0,2021-01-16T10:37:48.758Z,,,,,,,,,,,,,,,,,,,,,,,,,,,,,,,,,,,,,,,,,,,,,,,,,,,,,,,,,,,,,,,,,,,,,,,,,,,,,,,,,,,,,,,,,,,,,,,,,,,,,,,,,,,,,,,,,,,500.0109999999986,,timeout,,,,healthy,,blueberry.png,,,,,,,,,,,,,,,blueberry,,,,,,,,,,,,,,,,,,,,,,,,,,,,,,,,,,,,,,,,,,,,,,,,,,,,,,,,,false,,,,,,,,,107843.54500006884,107843.348,107343.338,107343.88000005856,107350.267,107850.278,,,,
Rating,html.Form,2_4_2_1_8_1,2021-01-16T10:37:51.150Z,,,,,,,,,,,,,,,,,,,,,,,,,,,,,,,,,,,,,,,,,,,,,,,,,,,,,,,,,,,,,,,,,,,,,,,,,,,,,,,,,,,,,,,,,,,,,,,,,,,,,,,,,,,,,,,,,,,2384.412000303084,,form submission,,,,healthy,,blueberry.png,,,,,,,,,,,,,,,blueberry,,,,,,,,,,,,,,,,,,,,,,,,,,,,,,,,,,,,,,,,,,,,,,,,,,,,,,,,,false,,,,,,,,,110234.80000020936,110234.69000030309,107843.348,107843.60500006005,107850.278,110239.17,,,,44
rating_sequence,flow.Sequence,2_4_2_1_8,2021-01-16T10:37:51.150Z,,,,,,,,,,,,,,,,,,,,,,,,,,,,,,,,,,,,,,,,,,,,,,,,,,,,,,,,,,,,,,,,,,,,,,,,,,,,,,,,,,,,,,,,,,,,,,,,,,,,,,,,,,,,,,,,,,,2884.4230003030825,,completion,,,,healthy,,blueberry.png,,,,,,,,,,,,,,,blueberry,,,,,,,,,,,,,,,,,,,,,,,,,,,,,,,,,,,,,,,,,,,,,,,,,,,,,,,,,false,,,,,,,,,110234.8850001581,110234.69000030309,107343.338,107343.85999990627,107350.267,110239.17,,,,
fixCross,canvas.Screen,2_4_2_1_9_0,2021-01-16T10:37:51.647Z,,,,,,,,,,,,,,,,,,,,,,,,,,,,,,,,,,,,,,,,,,,,,,,,,,,,,,,,,,,,,,,,,,,,,,,,,,,,,,,,,,,,,,,,,,,,,,,,,,,,,,,,,,,,,,,,,,,499.9799999999959,,timeout,,,,unhealthy,,marshmallow.png,,,,,,,,,,,,,,,marshmallow,,,,,,,,,,,,,,,,,,,,,,,,,,,,,,,,,,,,,,,,,,,,,,,,,,,,,,,,,false,,,,,,,,,110732.49500012025,110732.213,110232.21,110234.9399998784,110239.17,110739.15,,,,
Rating,html.Form,2_4_2_1_9_1,2021-01-16T10:37:53.873Z,,,,,,,,,,,,,,,,,,,,,,,,,,,,,,,,,,,,,,,,,,,,,,,,,,,,,,,,,,,,,,,,,,,,,,,,,,,,,,,,,,,,,,,,,,,,,,,,,,,,,,,,,,,,,,,,,,,2218.6100001357554,,form submission,,,,unhealthy,,marshmallow.png,,,,,,,,,,,,,,,marshmallow,,,,,,,,,,,,,,,,,,,,,,,,,,,,,,,,,,,,,,,,,,,,,,,,,,,,,,,,,false,,,,,,,,,112957.93000003323,112957.76000013575,110732.213,110732.58000006899,110739.15,112961.368,,,,100
rating_sequence,flow.Sequence,2_4_2_1_9,2021-01-16T10:37:53.873Z,,,,,,,,,,,,,,,,,,,,,,,,,,,,,,,,,,,,,,,,,,,,,,,,,,,,,,,,,,,,,,,,,,,,,,,,,,,,,,,,,,,,,,,,,,,,,,,,,,,,,,,,,,,,,,,,,,,2718.5900001357513,,completion,,,,unhealthy,,marshmallow.png,,,,,,,,,,,,,,,marshmallow,,,,,,,,,,,,,,,,,,,,,,,,,,,,,,,,,,,,,,,,,,,,,,,,,,,,,,,,,false,,,,,,,,,112958.06000009179,112957.76000013575,110232.21,110234.92499999702,110239.17,112961.368,,,,
fixCross,canvas.Screen,2_4_2_1_10_0,2021-01-16T10:37:54.370Z,,,,,,,,,,,,,,,,,,,,,,,,,,,,,,,,,,,,,,,,,,,,,,,,,,,,,,,,,,,,,,,,,,,,,,,,,,,,,,,,,,,,,,,,,,,,,,,,,,,,,,,,,,,,,,,,,,,500.00100000000384,,timeout,,,,healthy,,pear.png,,,,,,,,,,,,,,,pear,,,,,,,,,,,,,,,,,,,,,,,,,,,,,,,,,,,,,,,,,,,,,,,,,,,,,,,,,false,,,,,,,,,113454.62500024587,113454.422,112954.426,112958.15000031143,112961.368,113461.369,,,,
Rating,html.Form,2_4_2_1_10_1,2021-01-16T10:37:57.698Z,,,,,,,,,,,,,,,,,,,,,,,,,,,,,,,,,,,,,,,,,,,,,,,,,,,,,,,,,,,,,,,,,,,,,,,,,,,,,,,,,,,,,,,,,,,,,,,,,,,,,,,,,,,,,,,,,,,3321.280999950075,,form submission,,,,healthy,,pear.png,,,,,,,,,,,,,,,pear,,,,,,,,,,,,,,,,,,,,,,,,,,,,,,,,,,,,,,,,,,,,,,,,,,,,,,,,,false,,,,,,,,,116782.76500012726,116782.64999995008,113454.422,113454.69000004232,113461.369,116787.752,,,,24
rating_sequence,flow.Sequence,2_4_2_1_10,2021-01-16T10:37:57.698Z,,,,,,,,,,,,,,,,,,,,,,,,,,,,,,,,,,,,,,,,,,,,,,,,,,,,,,,,,,,,,,,,,,,,,,,,,,,,,,,,,,,,,,,,,,,,,,,,,,,,,,,,,,,,,,,,,,,3821.281999950079,,completion,,,,healthy,,pear.png,,,,,,,,,,,,,,,pear,,,,,,,,,,,,,,,,,,,,,,,,,,,,,,,,,,,,,,,,,,,,,,,,,,,,,,,,,false,,,,,,,,,116782.84500027075,116782.64999995008,112954.426,112958.12499988824,112961.368,116787.752,,,,
fixCross,canvas.Screen,2_4_2_1_11_0,2021-01-16T10:37:58.196Z,,,,,,,,,,,,,,,,,,,,,,,,,,,,,,,,,,,,,,,,,,,,,,,,,,,,,,,,,,,,,,,,,,,,,,,,,,,,,,,,,,,,,,,,,,,,,,,,,,,,,,,,,,,,,,,,,,,500.00900000000547,,timeout,,,,healthy,,grape.png,,,,,,,,,,,,,,,grape,,,,,,,,,,,,,,,,,,,,,,,,,,,,,,,,,,,,,,,,,,,,,,,,,,,,,,,,,false,,,,,,,,,117281.09000017866,117280.817,116780.802,116782.90500026196,116787.752,117287.761,,,,
Rating,html.Form,2_4_2_1_11_1,2021-01-16T10:38:00.681Z,,,,,,,,,,,,,,,,,,,,,,,,,,,,,,,,,,,,,,,,,,,,,,,,,,,,,,,,,,,,,,,,,,,,,,,,,,,,,,,,,,,,,,,,,,,,,,,,,,,,,,,,,,,,,,,,,,,2477.894000228436,,form submission,,,,healthy,,grape.png,,,,,,,,,,,,,,,grape,,,,,,,,,,,,,,,,,,,,,,,,,,,,,,,,,,,,,,,,,,,,,,,,,,,,,,,,,false,,,,,,,,,119765.82000032067,119765.65500022843,117280.817,117281.18500020355,117287.761,119766.922,,,,0
rating_sequence,flow.Sequence,2_4_2_1_11,2021-01-16T10:38:00.681Z,,,,,,,,,,,,,,,,,,,,,,,,,,,,,,,,,,,,,,,,,,,,,,,,,,,,,,,,,,,,,,,,,,,,,,,,,,,,,,,,,,,,,,,,,,,,,,,,,,,,,,,,,,,,,,,,,,,2977.9030002284417,,completion,,,,healthy,,grape.png,,,,,,,,,,,,,,,grape,,,,,,,,,,,,,,,,,,,,,,,,,,,,,,,,,,,,,,,,,,,,,,,,,,,,,,,,,false,,,,,,,,,119765.94999991357,119765.65500022843,116780.802,116782.88999991491,116787.752,119766.922,,,,
fixCross,canvas.Screen,2_4_2_1_12_0,2021-01-16T10:38:01.175Z,,,,,,,,,,,,,,,,,,,,,,,,,,,,,,,,,,,,,,,,,,,,,,,,,,,,,,,,,,,,,,,,,,,,,,,,,,,,,,,,,,,,,,,,,,,,,,,,,,,,,,,,,,,,,,,,,,,499.9859999999899,,timeout,,,,healthy,,strawberry.png,,,,,,,,,,,,,,,strawberry,,,,,,,,,,,,,,,,,,,,,,,,,,,,,,,,,,,,,,,,,,,,,,,,,,,,,,,,,false,,,,,,,,,120260.23000013083,120259.987,119759.97,119766.03500032797,119766.922,120266.908,,,,
Rating,html.Form,2_4_2_1_12_1,2021-01-16T10:38:04.264Z,,,,,,,,,,,,,,,,,,,,,,,,,,,,,,,,,,,,,,,,,,,,,,,,,,,,,,,,,,,,,,,,,,,,,,,,,,,,,,,,,,,,,,,,,,,,,,,,,,,,,,,,,,,,,,,,,,,3081.601999923412,,form submission,,,,healthy,,strawberry.png,,,,,,,,,,,,,,,strawberry,,,,,,,,,,,,,,,,,,,,,,,,,,,,,,,,,,,,,,,,,,,,,,,,,,,,,,,,,false,,,,,,,,,123348.62000029534,123348.50999992341,120259.987,120260.29499992728,120266.908,123350.253,,,,0
rating_sequence,flow.Sequence,2_4_2_1_12,2021-01-16T10:38:04.264Z,,,,,,,,,,,,,,,,,,,,,,,,,,,,,,,,,,,,,,,,,,,,,,,,,,,,,,,,,,,,,,,,,,,,,,,,,,,,,,,,,,,,,,,,,,,,,,,,,,,,,,,,,,,,,,,,,,,3581.587999923402,,completion,,,,healthy,,strawberry.png,,,,,,,,,,,,,,,strawberry,,,,,,,,,,,,,,,,,,,,,,,,,,,,,,,,,,,,,,,,,,,,,,,,,,,,,,,,,false,,,,,,,,,123348.70500024408,123348.50999992341,119759.97,119766.00999990478,119766.922,123350.253,,,,
fixCross,canvas.Screen,2_4_2_1_13_0,2021-01-16T10:38:04.758Z,,,,,,,,,,,,,,,,,,,,,,,,,,,,,,,,,,,,,,,,,,,,,,,,,,,,,,,,,,,,,,,,,,,,,,,,,,,,,,,,,,,,,,,,,,,,,,,,,,,,,,,,,,,,,,,,,,,499.97200000000885,,timeout,,,,unhealthy,,gummybear.png,,,,,,,,,,,,,,,gummybear,,,,,,,,,,,,,,,,,,,,,,,,,,,,,,,,,,,,,,,,,,,,,,,,,,,,,,,,,false,,,,,,,,,123843.49999995902,123843.286,123343.295,123348.75999996439,123350.253,123850.225,,,,
Rating,html.Form,2_4_2_1_13_1,2021-01-16T10:38:07.351Z,,,,,,,,,,,,,,,,,,,,,,,,,,,,,,,,,,,,,,,,,,,,,,,,,,,,,,,,,,,,,,,,,,,,,,,,,,,,,,,,,,,,,,,,,,,,,,,,,,,,,,,,,,,,,,,,,,,2585.2250002227665,,form submission,,,,unhealthy,,gummybear.png,,,,,,,,,,,,,,,gummybear,,,,,,,,,,,,,,,,,,,,,,,,,,,,,,,,,,,,,,,,,,,,,,,,,,,,,,,,,false,,,,,,,,,126435.58000028133,126435.45000022277,123843.286,123843.59000017866,123850.225,126447.46,,,,100
rating_sequence,flow.Sequence,2_4_2_1_13,2021-01-16T10:38:07.351Z,,,,,,,,,,,,,,,,,,,,,,,,,,,,,,,,,,,,,,,,,,,,,,,,,,,,,,,,,,,,,,,,,,,,,,,,,,,,,,,,,,,,,,,,,,,,,,,,,,,,,,,,,,,,,,,,,,,3085.1970002227754,,completion,,,,unhealthy,,gummybear.png,,,,,,,,,,,,,,,gummybear,,,,,,,,,,,,,,,,,,,,,,,,,,,,,,,,,,,,,,,,,,,,,,,,,,,,,,,,,false,,,,,,,,,126435.68000011146,126435.45000022277,123343.295,123348.74000027776,123350.253,126447.46,,,,
fixCross,canvas.Screen,2_4_2_1_14_0,2021-01-16T10:38:07.856Z,,,,,,,,,,,,,,,,,,,,,,,,,,,,,,,,,,,,,,,,,,,,,,,,,,,,,,,,,,,,,,,,,,,,,,,,,,,,,,,,,,,,,,,,,,,,,,,,,,,,,,,,,,,,,,,,,,,499.9939999999915,,timeout,,,,healthy,,apple.png,,,,,,,,,,,,,,,apple,,,,,,,,,,,,,,,,,,,,,,,,,,,,,,,,,,,,,,,,,,,,,,,,,,,,,,,,,false,,,,,,,,,126940.75000006706,126940.514,126440.516,126435.74000010267,126447.46,126947.454,,,,
Rating,html.Form,2_4_2_1_14_1,2021-01-16T10:38:10.082Z,,,,,,,,,,,,,,,,,,,,,,,,,,,,,,,,,,,,,,,,,,,,,,,,,,,,,,,,,,,,,,,,,,,,,,,,,,,,,,,,,,,,,,,,,,,,,,,,,,,,,,,,,,,,,,,,,,,2219.2010002992174,,form submission,,,,healthy,,apple.png,,,,,,,,,,,,,,,apple,,,,,,,,,,,,,,,,,,,,,,,,,,,,,,,,,,,,,,,,,,,,,,,,,,,,,,,,,false,,,,,,,,,129166.77000001073,129166.65500029922,126940.514,126940.81000005826,126947.454,129169.674,,,,40
rating_sequence,flow.Sequence,2_4_2_1_14,2021-01-16T10:38:10.082Z,,,,,,,,,,,,,,,,,,,,,,,,,,,,,,,,,,,,,,,,,,,,,,,,,,,,,,,,,,,,,,,,,,,,,,,,,,,,,,,,,,,,,,,,,,,,,,,,,,,,,,,,,,,,,,,,,,,2719.195000299209,,completion,,,,healthy,,apple.png,,,,,,,,,,,,,,,apple,,,,,,,,,,,,,,,,,,,,,,,,,,,,,,,,,,,,,,,,,,,,,,,,,,,,,,,,,false,,,,,,,,,129166.85000015423,129166.65500029922,126440.516,126435.71999995038,126447.46,129169.674,,,,
fixCross,canvas.Screen,2_4_2_1_15_0,2021-01-16T10:38:10.578Z,,,,,,,,,,,,,,,,,,,,,,,,,,,,,,,,,,,,,,,,,,,,,,,,,,,,,,,,,,,,,,,,,,,,,,,,,,,,,,,,,,,,,,,,,,,,,,,,,,,,,,,,,,,,,,,,,,,500.00100000000384,,timeout,,,,unhealthy,,chocolate.png,,,,,,,,,,,,,,,chocolate,,,,,,,,,,,,,,,,,,,,,,,,,,,,,,,,,,,,,,,,,,,,,,,,,,,,,,,,,false,,,,,,,,,129662.99499990419,129662.729,129162.75,129166.90499987453,129169.674,129669.675,,,,
Rating,html.Form,2_4_2_1_15_1,2021-01-16T10:38:13.251Z,,,,,,,,,,,,,,,,,,,,,,,,,,,,,,,,,,,,,,,,,,,,,,,,,,,,,,,,,,,,,,,,,,,,,,,,,,,,,,,,,,,,,,,,,,,,,,,,,,,,,,,,,,,,,,,,,,,2665.860000078377,,form submission,,,,unhealthy,,chocolate.png,,,,,,,,,,,,,,,chocolate,,,,,,,,,,,,,,,,,,,,,,,,,,,,,,,,,,,,,,,,,,,,,,,,,,,,,,,,,false,,,,,,,,,132335.66500013694,132335.53500007838,129662.729,129663.08999992907,129669.675,132348.172,,,,70
rating_sequence,flow.Sequence,2_4_2_1_15,2021-01-16T10:38:13.251Z,,,,,,,,,,,,,,,,,,,,,,,,,,,,,,,,,,,,,,,,,,,,,,,,,,,,,,,,,,,,,,,,,,,,,,,,,,,,,,,,,,,,,,,,,,,,,,,,,,,,,,,,,,,,,,,,,,,3165.861000078381,,completion,,,,unhealthy,,chocolate.png,,,,,,,,,,,,,,,chocolate,,,,,,,,,,,,,,,,,,,,,,,,,,,,,,,,,,,,,,,,,,,,,,,,,,,,,,,,,false,,,,,,,,,132335.76000016183,132335.53500007838,129162.75,129166.88999999315,129169.674,132348.172,,,,
fixCross,canvas.Screen,2_4_2_1_16_0,2021-01-16T10:38:13.759Z,,,,,,,,,,,,,,,,,,,,,,,,,,,,,,,,,,,,,,,,,,,,,,,,,,,,,,,,,,,,,,,,,,,,,,,,,,,,,,,,,,,,,,,,,,,,,,,,,,,,,,,,,,,,,,,,,,,502.03800000000047,,timeout,,,,unhealthy,,liqorice.png,,,,,,,,,,,,,,,liquorice,,,,,,,,,,,,,,,,,,,,,,,,,,,,,,,,,,,,,,,,,,,,,,,,,,,,,,,,,false,,,,,,,,,132843.57000002638,132843.269,132329.408,132335.82000015303,132348.172,132850.21,,,,
Rating,html.Form,2_4_2_1_16_1,2021-01-16T10:38:16.797Z,,,,,,,,,,,,,,,,,,,,,,,,,,,,,,,,,,,,,,,,,,,,,,,,,,,,,,,,,,,,,,,,,,,,,,,,,,,,,,,,,,,,,,,,,,,,,,,,,,,,,,,,,,,,,,,,,,,3031.4700001077435,,form submission,,,,unhealthy,,liqorice.png,,,,,,,,,,,,,,,liquorice,,,,,,,,,,,,,,,,,,,,,,,,,,,,,,,,,,,,,,,,,,,,,,,,,,,,,,,,,false,,,,,,,,,135881.790000014,135881.68000010774,132843.269,132843.6350002885,132850.21,135884.93,,,,22
rating_sequence,flow.Sequence,2_4_2_1_16,2021-01-16T10:38:16.797Z,,,,,,,,,,,,,,,,,,,,,,,,,,,,,,,,,,,,,,,,,,,,,,,,,,,,,,,,,,,,,,,,,,,,,,,,,,,,,,,,,,,,,,,,,,,,,,,,,,,,,,,,,,,,,,,,,,,3533.508000107744,,completion,,,,unhealthy,,liqorice.png,,,,,,,,,,,,,,,liquorice,,,,,,,,,,,,,,,,,,,,,,,,,,,,,,,,,,,,,,,,,,,,,,,,,,,,,,,,,false,,,,,,,,,135881.87499996275,135881.68000010774,132329.408,132335.80500027165,132348.172,135884.93,,,,
fixCross,canvas.Screen,2_4_2_1_17_0,2021-01-16T10:38:17.293Z,,,,,,,,,,,,,,,,,,,,,,,,,,,,,,,,,,,,,,,,,,,,,,,,,,,,,,,,,,,,,,,,,,,,,,,,,,,,,,,,,,,,,,,,,,,,,,,,,,,,,,,,,,,,,,,,,,,499.9980000000214,,timeout,,,,healthy,,cherry.png,,,,,,,,,,,,,,,cherry,,,,,,,,,,,,,,,,,,,,,,,,,,,,,,,,,,,,,,,,,,,,,,,,,,,,,,,,,false,,,,,,,,,136378.2549998723,136377.983,135877.984,135881.93499995396,135884.93,136384.928,,,,
Rating,html.Form,2_4_2_1_17_1,2021-01-16T10:38:20.308Z,,,,,,,,,,,,,,,,,,,,,,,,,,,,,,,,,,,,,,,,,,,,,,,,,,,,,,,,,,,,,,,,,,,,,,,,,,,,,,,,,,,,,,,,,,,,,,,,,,,,,,,,,,,,,,,,,,,3007.697000327811,,form submission,,,,healthy,,cherry.png,,,,,,,,,,,,,,,cherry,,,,,,,,,,,,,,,,,,,,,,,,,,,,,,,,,,,,,,,,,,,,,,,,,,,,,,,,,false,,,,,,,,,139392.75499992073,139392.62500032783,136377.983,136378.34500009194,136384.928,139398.83,,,,6
rating_sequence,flow.Sequence,2_4_2_1_17,2021-01-16T10:38:20.308Z,,,,,,,,,,,,,,,,,,,,,,,,,,,,,,,,,,,,,,,,,,,,,,,,,,,,,,,,,,,,,,,,,,,,,,,,,,,,,,,,,,,,,,,,,,,,,,,,,,,,,,,,,,,,,,,,,,,3507.6950003278325,,completion,,,,healthy,,cherry.png,,,,,,,,,,,,,,,cherry,,,,,,,,,,,,,,,,,,,,,,,,,,,,,,,,,,,,,,,,,,,,,,,,,,,,,,,,,false,,,,,,,,,139392.8499999456,139392.62500032783,135877.984,135881.91500026733,135884.93,139398.83,,,,
rating_loop,flow.Loop,2_4_2_1,2021-01-16T10:38:20.308Z,,,,,,,,,,,,,,,,,,,,,,,,,,,,,,,,,,,,,,,,,,,,,,,,,,,,,,,,,,,,,,,,,,,,,,,,,,,,,,,,,,,,,,,,,,,,,,,,,,,,,,,,,,,,,,,,,,,61104.77800032783,,completion,,,,,,,,,,,,,,,,,,,,,,,,,,,,,,,,,,,,,,,,,,,,,,,,,,,,,,,,,,,,,,,,,,,,,,,,,,,,,,false,,,,,,,,,139392.93499989435,139392.62500032783,78280.862,78286.71000013128,78287.847,139398.83,,,,
data_transmission,html.Screen,2_4_2_2,2021-01-16T10:38:20.311Z,,,,,,,,,,,,,,,,,,,,,,,,,,,,,,,,,,,,,,,,,,,,,,,,,,,,,,,,,,,,,,,,,,,,,,,,,,,,,,,,,,,,,,,,,,,,,,,,,,,,,,,,,,,,,,,,,,,NaN,,no compatible backend,,,,,,,,,,,,,,,Transferring data,,,,,,,,,,,,,,,,,,,,,,,,,,,,,,,,,,,,,,,,,,,,,,,,,,,,,,,,,,,,,,,false,,,Please wait a second…,,,,,,139395.88000020012,139395.80000005662,,139392.99000008032,,139398.83,,,,
instructions,html.Screen,2_4_2_3,2021-01-16T10:39:46.160Z,,,,,,,,,,,,,,,,,,,,,,,,,,,,,,,,,,,,,,,,,,,,,,,,,,,,,,,,,,,,,,,,,,,,,,,,,,,,,,,,,,,,,,,,,,,,,,,,,,,,,,,,,,,,,,,,,,,85845.93499995218,,done,,,,,,,,,,,,,,,,,,,,,,,,,,,,,,,,,,,,,,,,,,,,,,,,,,,,,,,,,,,,,,,,,,,,,,,,,,,,,,false,,,,,,,,,225244.89500001073,225244.76499995217,139391.871,139395.95999987796,139398.83,225258.685,,,,
Q1,html.Screen,2_4_2_4_0,2021-01-16T10:39:59.623Z,,,,,,,,,,,,,,,,,,,,,,,,,,,,,,,,,,,,,,,,,,,,,,,,,,,,,,,,,,,,,,,,,,,,,,,,,,,,,,,,,,,,,,,,,,,,,,,,,,,,,,,,,,,,,,,false,input_Q1==3,,,13447.425000144693,,response,,,,,,,,,,,,,,,,,,,,,,,,,Q1_i4,Q1_i1,Q1_i2,Q1_i3,4,1,2,3,false,false,false,correct,,,,,,,,,,,,,,,,,,,,,,,,,,,,,,,,,,,,,,,,,click #Q1_i3,false,,,,,,,,,238707.60500011966,238706.1100001447,225238.672,225245.00000011176,225258.685,238711.134,,,,
Q1_correct,html.Screen,2_4_2_4_1,2021-01-16T10:40:00.764Z,,,,,,,,,,,,,,,,,,,,,,,,,,,,,,,,,,,,,,,,,,,,,,,,,,,,,,,,,,,,,,,,,,,,,,,,,,,,,,,,,,,,,,,,,,,,,,,,,,,,,,,,,,,,,,,,,,,1137.226000178227,,response,,,,,,,,,,,,,,,,,,,,,,,,,,,,,,,,,,,,,,,,,,,,,,,,,,,,,,,,,,,,,,,,,,,,,,,,,,,,,keypress,false,,,,,,,,,239848.71000004932,239848.36000017822,238704.201,238707.7100002207,238711.134,239850.011,,,,
Q2,html.Screen,2_4_2_4_2,2021-01-16T10:40:10.573Z,,,,,,,,,,,,,,,,,,,,,,,,,,,,,,,,,,,,,,,,,,,,,,,,,,,,,,,,,,,,,,,,,,,,,,,,,,,,,,,,,,,,,,,,,,,,,,,,,,,,,,,,,,,,,,,,,,,9807.084000147821,,response,,,,,,,,,,,,,,,,,,,,,,,,,,,,,,,,,,,,,Q2_i1,Q2_i3,Q2_i2,Option 1,Same amount,Option 2,correct,same,opt2,,,,,,,,,,,,,,,,,,,,,,,,,,,,,,,,click #Q2_i1,false,,,,,,,,,249657.51500008628,249657.09500014782,239843.021,239848.78499992192,239850.011,249662.492,,,,
Q2_correct,html.Screen,2_4_2_4_3,2021-01-16T10:40:11.674Z,,,,,,,,,,,,,,,,,,,,,,,,,,,,,,,,,,,,,,,,,,,,,,,,,,,,,,,,,,,,,,,,,,,,,,,,,,,,,,,,,,,,,,,,,,,,,,,,,,,,,,,,,,,,,,,,,,,1095.7530001500563,,response,,,,,,,,,,,,,,,,,,,,,,,,,,,,,,,,,,,,,,,,,,,,,,,,,,,,,,,,,,,,,,,,,,,,,,,,,,,,,keypress,false,,,,,,,,,250758.48999992013,250758.24500015005,249655.543,249657.6200001873,249662.492,250759.723,,,,
Q4,html.Screen,2_4_2_4_4,2021-01-16T10:40:31.237Z,,,,,,,,,,,,,,,,,,,,,,,,,,,,,,,,,,,,,,,,,,,,,,,,,,,,,,,,,,,,,,,,,,,,,,,,,,,,,,,,,,,,,,,,,,,,,,,,,,,,,,,,,,,,,,,,,,,19561.32699991134,,response,,,,,,,,,,,,,,,,,,,,,,,,,,,,,,,,,,,,,,,,,,,,,,Q4_i1,Q4_i4,Q4_i2,Q4_i3,Press the arrow key that corresponds with the snack option I prefer,Press the space key,Indicate the number of food items in each snack option,Press the arrow key that corresponds with the snack option with more food items,correct,pressspace,indicate,morefood,,,,,,,,,,,,,,,,,,,,click #Q4_i1,false,,,,,,,,,270321.5350001119,270321.04999991134,250752.776,250758.55500018224,250759.723,270338.164,,,,
Q4_correct,html.Screen,2_4_2_4_5,2021-01-16T10:40:32.243Z,,,,,,,,,,,,,,,,,,,,,,,,,,,,,,,,,,,,,,,,,,,,,,,,,,,,,,,,,,,,,,,,,,,,,,,,,,,,,,,,,,,,,,,,,,,,,,,,,,,,,,,,,,,,,,,,,,,990.0160001859767,,response,,,,,,,,,,,,,,,,,,,,,,,,,,,,,,,,,,,,,,,,,,,,,,,,,,,,,,,,,,,,,,,,,,,,,,,,,,,,,keypress,false,,,,,,,,,271328.4400003031,271328.18000018597,270315.223,270321.64000021294,270338.164,271342.668,,,,
Q5,html.Screen,2_4_2_4_6,2021-01-16T10:40:39.080Z,,,,,,,,,,,,,,,,,,,,,,,,,,,,,,,,,,,,,,,,,,,,,,,,,,,,,,,,,,,,,,,,,,,,,,,,,,,,,,,,,,,,,,,,,,,,,,,,,,,,,,,,,,,,,,,,,,,6821.457000126655,,response,,,,,,,,,,,,,,,,,,,,,,,,,,,,,,,,,,,,,,,,,,,,,,,,,,,,,,,,,,Q5_i4,Q5_i3,Q5_i2,Q5_i1,Snack Option 1 has been chosen,There are more slices of kiwi in snack Option 1,There are more pieces of chocolate in snack Option 2,Snack Option 2 has been chosen,chose1,morekiwi1,morechoc2,correct,,,,,,,,click #Q5_i1,false,,,,,,,,,278164.70499988645,278164.12500012666,271322.18,271328.5000002943,271342.668,278169.381,,,,
Q5_correct,html.Screen,2_4_2_4_7,2021-01-16T10:40:39.823Z,,,,,,,,,,,,,,,,,,,,,,,,,,,,,,,,,,,,,,,,,,,,,,,,,,,,,,,,,,,,,,,,,,,,,,,,,,,,,,,,,,,,,,,,,,,,,,,,,,,,,,,,,,,,,,,,,,,738.7939999895752,,response,,,,,,,,,,,,,,,,,,,,,,,,,,,,,,,,,,,,,,,,,,,,,,,,,,,,,,,,,,,,,,,,,,,,,,,,,,,,,keypress,false,,,,,,,,,278908.4499999881,278908.17499998957,278162.456,278164.8300001398,278169.381,278912.447,,,,
practice_sequence,flow.Sequence,2_4_2_4,2021-01-16T10:40:39.824Z,,,,,,,,,,,,,,,,,,,,,,,,,,,,,,,,,,,,,,,,,,,,,,,,,,,,,,,,,,,,,,,,,,,,,,,,,,,,,,,,,,,,,,,,,,,,,,,,,,,,,,,,,,,,,,,,,,,53649.48999998957,,completion,,,,,,,,,,,,,,,,,,,,,,,,,,,,,,,,,,,,,,,,,,,,,,,,,,,,,,,,,,,,,,,,,,,,,,,,,,,,,,false,,,,,,,,,278908.5550000891,278908.17499998957,225238.672,225244.97999995947,225258.685,278912.447,,,,
final_instru,html.Screen,2_4_2_5,2021-01-16T10:40:47.437Z,,,,,,,,,,,,,,,,,,,,,,,,,,,,,,,,,,,,,,,,,,,,,,,,,,,,,,,,,,,,,,,,,,,,,,,,,,,,,,,,,,,,,,,,,,,,,,,,,,,,,,,,,,,,,,,,,,,7609.062999874994,,done,,,,,,,,,,,,,,,,,,,,,,,,,,,,,,,,,,,,,,,,,,,,,,,,,,,,,,,,,,,,,,,,,,,,,,,,,,,,,,false,,,,,,,,,286521.614999976,286521.509999875,278905.506,278908.594999928,278912.447,286523.539,,,,
blank_screen,canvas.Screen,2_4_2_6_0,2021-01-16T10:40:49.432Z,,,,,,,,,,,,,,,,,,,,,,,,,,,,,,,,,,,,,,,,,,,,,,,,,,,,,,,,,,,,,,,,,,,,,,,,,,,,,,,,,,,,,,,,,,,,,,,,,,,,,,,,,,,,,,,,,,,2006.9579999999842,,timeout,,,,,,,,,,,,,,,,,,,,,,,,,,,,,,,,,,,,,,,,,,,,,,,,,,,,,,,,,,,,,,,,,,,,,,,,,,,,,,false,,,,,,,,,288516.8099999428,288516.609,286516.436,286521.70500019565,286523.539,288530.497,,,,
fixCross,canvas.Screen,2_4_2_6_1_0_0_0_0_0_0,2021-01-16T10:40:49.890Z,,,blank.png,"[""marshmallow.png""]",blank.png,blank.png,blank.png,blank.png,blank.png,blank.png,blank.png,blank.png,blank.png,blank.png,blank.png,,,,,,,,,,,,,,,,,,,,,,,,,,,,,"[""marshmallow.png""]","[""blueberry.png""]",PB07.png,,,,,,,,,,,0,6,"[""blueberry.png""]","[""blueberry.png""]","[""blueberry.png""]","[""blueberry.png""]","[""blueberry.png""]","[""blueberry.png""]",blank.png,PB18.png,PB18.png,"[""blueberry.png""]",blank.png,blank.png,blank.png,blank.png,blank.png,"[""blueberry.png""]","[""blueberry.png""]","[""blueberry.png""]","[""blueberry.png""]","[""blueberry.png""]","[""blueberry.png""]",1,"[""marshmallow.png""]",blank.png,blank.png,blank.png,1,"[""blueberry.png""]",blank.png,blank.png,blank.png,blank.png,blank.png,PB07.png,,,,,,,,,,,1,,,,,,,,,,,,624.9820000000182,,timeout,,,,,,,,,,,,,3,,,,,,,,,,,,,,,,,,,,,,,,,,,,,,,,,,,,,,,,,,,,,,,,,,,,,,,,,"[""blueberry.png""]","[""marshmallow.png""]",,,,6,,,false,,1,,,,,,,288975.2100002952,288974.931,288516.609,288535.0549998693,288530.497,289155.479,1,,,
timeout,canvas.Screen,2_4_2_6_1_0_0_0_0_0_1,2021-01-16T10:40:50.564Z,,,blank.png,"[""marshmallow.png""]",blank.png,blank.png,blank.png,blank.png,blank.png,blank.png,blank.png,blank.png,blank.png,blank.png,blank.png,,,,,,,,,,,,,,,,,,,,,,,,,,,,,"[""marshmallow.png""]","[""blueberry.png""]",PB07.png,,,,,,,,,,,0,6,"[""blueberry.png""]","[""blueberry.png""]","[""blueberry.png""]","[""blueberry.png""]","[""blueberry.png""]","[""blueberry.png""]",blank.png,PB18.png,PB18.png,"[""blueberry.png""]",blank.png,blank.png,blank.png,blank.png,blank.png,"[""blueberry.png""]","[""blueberry.png""]","[""blueberry.png""]","[""blueberry.png""]","[""blueberry.png""]","[""blueberry.png""]",1,"[""marshmallow.png""]",blank.png,blank.png,blank.png,1,"[""blueberry.png""]",blank.png,blank.png,blank.png,blank.png,blank.png,PB07.png,,,,,,,,,,,1,,,,,,,,,,,,722.2090000000317,,timeout,,,,,,,,,,,,,3,,,,,,,,,,,,,,,,,,,,,,,,,,,,,,,,,,,,,,,,,,,,,,,,,,,,,,,,,"[""blueberry.png""]","[""marshmallow.png""]",,,,6,,,false,,1,,,,,,,289649.4200001471,289648.522,288974.931,289205.5999999866,289155.479,289877.688,,,,
choice,canvas.Screen,2_4_2_6_1_0_0_0_0_0_2,2021-01-16T10:40:52.368Z,,,blank.png,"[""marshmallow.png""]",blank.png,blank.png,blank.png,blank.png,blank.png,blank.png,blank.png,blank.png,blank.png,blank.png,blank.png,,,,,,,,,,,,,,,,,,,,,,,,,,,,,"[""marshmallow.png""]","[""blueberry.png""]",PB07.png,,,,,,,,,,,0,6,"[""blueberry.png""]","[""blueberry.png""]","[""blueberry.png""]","[""blueberry.png""]","[""blueberry.png""]","[""blueberry.png""]",blank.png,PB18.png,PB18.png,"[""blueberry.png""]",blank.png,blank.png,blank.png,blank.png,blank.png,"[""blueberry.png""]","[""blueberry.png""]","[""blueberry.png""]","[""blueberry.png""]","[""blueberry.png""]","[""blueberry.png""]",1,"[""marshmallow.png""]",blank.png,blank.png,blank.png,1,"[""blueberry.png""]",blank.png,blank.png,blank.png,blank.png,blank.png,PB07.png,,,,,,,,,,,1,,,,,,,,,,,,1574.49200002203,,response,,,,,,,,,,,,,3,,,,,,,,,,,,,,,,,,,,,,,,,,,,,,,,,,,,,,,,,,,,,,,,,,,,,,,,,"[""blueberry.png""]","[""marshmallow.png""]",,,,6,left,keydown(ArrowLeft),false,,1,,,,,,,291452.9099999927,291452.18000002205,289648.522,289880.0949999131,289877.688,291690.204,,1,,
square,canvas.Screen,2_4_2_6_1_0_0_0_0_0_3,2021-01-16T10:40:53.599Z,,,blank.png,"[""marshmallow.png""]",blank.png,blank.png,blank.png,blank.png,blank.png,blank.png,blank.png,blank.png,blank.png,blank.png,blank.png,,,,,,,,,,,,,,,,,,,,,,,,,,,,,"[""marshmallow.png""]","[""blueberry.png""]",PB07.png,,,,,,,,,,,0,6,"[""blueberry.png""]","[""blueberry.png""]","[""blueberry.png""]","[""blueberry.png""]","[""blueberry.png""]","[""blueberry.png""]",blank.png,PB18.png,PB18.png,"[""blueberry.png""]",blank.png,blank.png,blank.png,blank.png,blank.png,"[""blueberry.png""]","[""blueberry.png""]","[""blueberry.png""]","[""blueberry.png""]","[""blueberry.png""]","[""blueberry.png""]",1,"[""marshmallow.png""]",blank.png,blank.png,blank.png,1,"[""blueberry.png""]",blank.png,blank.png,blank.png,blank.png,blank.png,PB07.png,,,,,,,,,,,1,,#33ff3f,#808080,,,,,,,,,1000.0069999999832,,timeout,,,,,,,,,,,,,3,,,,,,,,,,,,,,,,,,,,,,,,,,,,,,,,,,,,,,,,,,,,,,,,,,,,,,,,,"[""blueberry.png""]","[""marshmallow.png""]",,,,6,,,false,,1,,,,,black,white,292683.51500015706,292683.242,291669.248,291672.4000000395,291690.204,292690.211,,,,
ITI_late,canvas.Screen,2_4_2_6_1_0_0_0_0_0_4,2021-01-16T10:40:53.849Z,,,blank.png,"[""marshmallow.png""]",blank.png,blank.png,blank.png,blank.png,blank.png,blank.png,blank.png,blank.png,blank.png,blank.png,blank.png,,,,,,,,,,,,,,,,,,,,,,,,,,,,,"[""marshmallow.png""]","[""blueberry.png""]",PB07.png,,,,,,,,,,,0,6,"[""blueberry.png""]","[""blueberry.png""]","[""blueberry.png""]","[""blueberry.png""]","[""blueberry.png""]","[""blueberry.png""]",blank.png,PB18.png,PB18.png,"[""blueberry.png""]",blank.png,blank.png,blank.png,blank.png,blank.png,"[""blueberry.png""]","[""blueberry.png""]","[""blueberry.png""]","[""blueberry.png""]","[""blueberry.png""]","[""blueberry.png""]",1,"[""marshmallow.png""]",blank.png,blank.png,blank.png,1,"[""blueberry.png""]",blank.png,blank.png,blank.png,blank.png,blank.png,PB07.png,,,,,,,,,,,1,,,,,,,,,,,,249.97399999998743,,timeout,,,,,,,,,,,,white,3,,,,,,,,,,,,,,,,,,,,,,,,,,,,,,,,,,,,,,,,,,,,,,,,,,,,,,,,,"[""blueberry.png""]","[""marshmallow.png""]",,,,6,,,false,,1,,,,,,,292933.49500000477,292933.243,292683.242,292684.4950001687,292690.211,292940.185,,,,
choice_sequence,flow.Sequence,2_4_2_6_1_0_0_0_0_0,2021-01-16T10:40:53.849Z,,,blank.png,"[""marshmallow.png""]",blank.png,blank.png,blank.png,blank.png,blank.png,blank.png,blank.png,blank.png,blank.png,blank.png,blank.png,,,,,,,,,,,,,,,,,,,,,,,,,,,,,"[""marshmallow.png""]","[""blueberry.png""]",PB07.png,,,,,,,,,,,0,6,"[""blueberry.png""]","[""blueberry.png""]","[""blueberry.png""]","[""blueberry.png""]","[""blueberry.png""]","[""blueberry.png""]",blank.png,PB18.png,PB18.png,"[""blueberry.png""]",blank.png,blank.png,blank.png,blank.png,blank.png,"[""blueberry.png""]","[""blueberry.png""]","[""blueberry.png""]","[""blueberry.png""]","[""blueberry.png""]","[""blueberry.png""]",1,"[""marshmallow.png""]",blank.png,blank.png,blank.png,1,"[""blueberry.png""]",blank.png,blank.png,blank.png,blank.png,blank.png,PB07.png,,,,,,,,,,,1,,,,,,,,,,,,4402.746000000043,,completion,,,,,,,,,,,,,3,,,,,,,,,,,,,,,,,,,,,,,,,,,,,,,,,,,,,,,,,,,,,,,,,,,,,,,,,"[""blueberry.png""]","[""marshmallow.png""]",,,,6,,,false,,1,,,,,,,292933.7949999608,292933.243,288516.609,288534.42500019446,288530.497,292940.185,,,,
fixCross,canvas.Screen,2_4_2_6_1_0_0_0_0_1_0,2021-01-16T10:40:54.196Z,,,blank.png,"[""marshmallow.png""]",blank.png,blank.png,blank.png,blank.png,blank.png,blank.png,blank.png,blank.png,blank.png,blank.png,blank.png,,,,,,,,,,,,,,,,,,,,,,,,,,,,,"[""marshmallow.png""]","[""blueberry.png""]",PB12.png,,,,,,,,,,,0,6,"[""blueberry.png""]","[""blueberry.png""]","[""blueberry.png""]","[""blueberry.png""]","[""blueberry.png""]","[""blueberry.png""]",blank.png,PB18.png,PB18.png,"[""blueberry.png""]","[""blueberry.png""]",blank.png,blank.png,blank.png,blank.png,"[""blueberry.png""]","[""blueberry.png""]","[""blueberry.png""]","[""blueberry.png""]","[""blueberry.png""]","[""blueberry.png""]",1,"[""marshmallow.png""]",blank.png,blank.png,blank.png,2,"[""blueberry.png""]","[""blueberry.png""]",blank.png,blank.png,blank.png,blank.png,PB12.png,,,,,,,,,,,1,,,,,,,,,,,,569.439000000013,,timeout,,,,,,,,,,,,,3,,,,,,,,,,,,,,,,,,,,,,,,,,,,,,,,,,,,,,,,,,,,,,,,,,,,,,,,,"[""blueberry.png""]","[""marshmallow.png""]",,,,6,,,false,,1,,,,,,,293280.75500018895,293280.476,292933.243,292936.3649999723,292940.185,293509.624,2,,,
timeout,canvas.Screen,2_4_2_6_1_0_0_0_0_1_1,2021-01-16T10:40:54.918Z,,,blank.png,"[""marshmallow.png""]",blank.png,blank.png,blank.png,blank.png,blank.png,blank.png,blank.png,blank.png,blank.png,blank.png,blank.png,,,,,,,,,,,,,,,,,,,,,,,,,,,,,"[""marshmallow.png""]","[""blueberry.png""]",PB12.png,,,,,,,,,,,0,6,"[""blueberry.png""]","[""blueberry.png""]","[""blueberry.png""]","[""blueberry.png""]","[""blueberry.png""]","[""blueberry.png""]",blank.png,PB18.png,PB18.png,"[""blueberry.png""]","[""blueberry.png""]",blank.png,blank.png,blank.png,blank.png,"[""blueberry.png""]","[""blueberry.png""]","[""blueberry.png""]","[""blueberry.png""]","[""blueberry.png""]","[""blueberry.png""]",1,"[""marshmallow.png""]",blank.png,blank.png,blank.png,2,"[""blueberry.png""]","[""blueberry.png""]",blank.png,blank.png,blank.png,blank.png,PB12.png,,,,,,,,,,,1,,,,,,,,,,,,750.0069999999832,,timeout,,,,,,,,,,,,,3,,,,,,,,,,,,,,,,,,,,,,,,,,,,,,,,,,,,,,,,,,,,,,,,,,,,,,,,,"[""blueberry.png""]","[""marshmallow.png""]",,,,6,,,false,,1,,,,,,,294003.04999994114,294002.698,293280.476,293511.46000018343,293509.624,294259.631,,,,
choice,canvas.Screen,2_4_2_6_1_0_0_0_0_1_2,2021-01-16T10:40:56.662Z,,,blank.png,"[""marshmallow.png""]",blank.png,blank.png,blank.png,blank.png,blank.png,blank.png,blank.png,blank.png,blank.png,blank.png,blank.png,,,,,,,,,,,,,,,,,,,,,,,,,,,,,"[""marshmallow.png""]","[""blueberry.png""]",PB12.png,,,,,,,,,,,0,6,"[""blueberry.png""]","[""blueberry.png""]","[""blueberry.png""]","[""blueberry.png""]","[""blueberry.png""]","[""blueberry.png""]",blank.png,PB18.png,PB18.png,"[""blueberry.png""]","[""blueberry.png""]",blank.png,blank.png,blank.png,blank.png,"[""blueberry.png""]","[""blueberry.png""]","[""blueberry.png""]","[""blueberry.png""]","[""blueberry.png""]","[""blueberry.png""]",1,"[""marshmallow.png""]",blank.png,blank.png,blank.png,2,"[""blueberry.png""]","[""blueberry.png""]",blank.png,blank.png,blank.png,blank.png,PB12.png,,,,,,,,,,,1,,,,,,,,,,,,1487.5139999138773,,response,,,,,,,,,,,,,3,,,,,,,,,,,,,,,,,,,,,,,,,,,,,,,,,,,,,,,,,,,,,,,,,,,,,,,,,"[""blueberry.png""]","[""marshmallow.png""]",,,,6,left,keydown(ArrowLeft),false,,1,,,,,,,295747.760000173,295747.1449999139,294002.698,294246.6199998744,294259.631,295988.807,,2,,
square,canvas.Screen,2_4_2_6_1_0_0_0_0_1_3,2021-01-16T10:40:57.897Z,,,blank.png,"[""marshmallow.png""]",blank.png,blank.png,blank.png,blank.png,blank.png,blank.png,blank.png,blank.png,blank.png,blank.png,blank.png,,,,,,,,,,,,,,,,,,,,,,,,,,,,,"[""marshmallow.png""]","[""blueberry.png""]",PB12.png,,,,,,,,,,,0,6,"[""blueberry.png""]","[""blueberry.png""]","[""blueberry.png""]","[""blueberry.png""]","[""blueberry.png""]","[""blueberry.png""]",blank.png,PB18.png,PB18.png,"[""blueberry.png""]","[""blueberry.png""]",blank.png,blank.png,blank.png,blank.png,"[""blueberry.png""]","[""blueberry.png""]","[""blueberry.png""]","[""blueberry.png""]","[""blueberry.png""]","[""blueberry.png""]",1,"[""marshmallow.png""]",blank.png,blank.png,blank.png,2,"[""blueberry.png""]","[""blueberry.png""]",blank.png,blank.png,blank.png,blank.png,PB12.png,,,,,,,,,,,1,,#33ff3f,#808080,,,,,,,,,999.9860000000335,,timeout,,,,,,,,,,,,,3,,,,,,,,,,,,,,,,,,,,,,,,,,,,,,,,,,,,,,,,,,,,,,,,,,,,,,,,,"[""blueberry.png""]","[""marshmallow.png""]",,,,6,,,false,,1,,,,,black,white,296982.224999927,296981.845,295974.794,295977.73500019684,295988.807,296988.793,,,,
ITI_late,canvas.Screen,2_4_2_6_1_0_0_0_0_1_4,2021-01-16T10:40:58.897Z,,,blank.png,"[""marshmallow.png""]",blank.png,blank.png,blank.png,blank.png,blank.png,blank.png,blank.png,blank.png,blank.png,blank.png,blank.png,,,,,,,,,,,,,,,,,,,,,,,,,,,,,"[""marshmallow.png""]","[""blueberry.png""]",PB12.png,,,,,,,,,,,0,6,"[""blueberry.png""]","[""blueberry.png""]","[""blueberry.png""]","[""blueberry.png""]","[""blueberry.png""]","[""blueberry.png""]",blank.png,PB18.png,PB18.png,"[""blueberry.png""]","[""blueberry.png""]",blank.png,blank.png,blank.png,blank.png,"[""blueberry.png""]","[""blueberry.png""]","[""blueberry.png""]","[""blueberry.png""]","[""blueberry.png""]","[""blueberry.png""]",1,"[""marshmallow.png""]",blank.png,blank.png,blank.png,2,"[""blueberry.png""]","[""blueberry.png""]",blank.png,blank.png,blank.png,blank.png,PB12.png,,,,,,,,,,,1,,,,,,,,,,,,1000.0109999999986,,timeout,,,,,,,,,,,,white,3,,,,,,,,,,,,,,,,,,,,,,,,,,,,,,,,,,,,,,,,,,,,,,,,,,,,,,,,,"[""blueberry.png""]","[""marshmallow.png""]",,,,6,,,false,,1,,,,,,,297982.1299999021,297981.868,296981.845,296983.16000029445,296988.793,297988.804,,,,
choice_sequence,flow.Sequence,2_4_2_6_1_0_0_0_0_1,2021-01-16T10:40:58.897Z,,,blank.png,"[""marshmallow.png""]",blank.png,blank.png,blank.png,blank.png,blank.png,blank.png,blank.png,blank.png,blank.png,blank.png,blank.png,,,,,,,,,,,,,,,,,,,,,,,,,,,,,"[""marshmallow.png""]","[""blueberry.png""]",PB12.png,,,,,,,,,,,0,6,"[""blueberry.png""]","[""blueberry.png""]","[""blueberry.png""]","[""blueberry.png""]","[""blueberry.png""]","[""blueberry.png""]",blank.png,PB18.png,PB18.png,"[""blueberry.png""]","[""blueberry.png""]",blank.png,blank.png,blank.png,blank.png,"[""blueberry.png""]","[""blueberry.png""]","[""blueberry.png""]","[""blueberry.png""]","[""blueberry.png""]","[""blueberry.png""]",1,"[""marshmallow.png""]",blank.png,blank.png,blank.png,2,"[""blueberry.png""]","[""blueberry.png""]",blank.png,blank.png,blank.png,blank.png,PB12.png,,,,,,,,,,,1,,,,,,,,,,,,5041.683000000019,,completion,,,,,,,,,,,,,3,,,,,,,,,,,,,,,,,,,,,,,,,,,,,,,,,,,,,,,,,,,,,,,,,,,,,,,,,"[""blueberry.png""]","[""marshmallow.png""]",,,,6,,,false,,1,,,,,,,297982.43500012904,297981.868,292933.243,292935.91500027105,292940.185,297988.804,,,,
fixCross,canvas.Screen,2_4_2_6_1_0_0_0_0_2_0,2021-01-16T10:40:59.598Z,,,blank.png,"[""marshmallow.png""]",blank.png,blank.png,blank.png,blank.png,blank.png,blank.png,blank.png,blank.png,blank.png,blank.png,blank.png,,,,,,,,,,,,,,,,,,,,,,,,,,,,,"[""marshmallow.png""]","[""blueberry.png""]",PB15.png,,,,,,,,,,,0,6,"[""blueberry.png""]","[""blueberry.png""]","[""blueberry.png""]","[""blueberry.png""]","[""blueberry.png""]","[""blueberry.png""]",blank.png,PB18.png,PB18.png,"[""blueberry.png""]","[""blueberry.png""]","[""blueberry.png""]","[""blueberry.png""]",blank.png,blank.png,"[""blueberry.png""]","[""blueberry.png""]","[""blueberry.png""]","[""blueberry.png""]","[""blueberry.png""]","[""blueberry.png""]",1,"[""marshmallow.png""]",blank.png,blank.png,blank.png,4,"[""blueberry.png""]","[""blueberry.png""]","[""blueberry.png""]","[""blueberry.png""]",blank.png,blank.png,PB15.png,,,,,,,,,,,1,,,,,,,,,,,,951.3699999999953,,timeout,,,,,,,,,,,,,3,,,,,,,,,,,,,,,,,,,,,,,,,,,,,,,,,,,,,,,,,,,,,,,,,,,,,,,,,"[""blueberry.png""]","[""marshmallow.png""]",,,,6,,,false,,1,,,,,,,298683.5650000721,298683.238,297981.868,297985.3600002825,297988.804,298940.174,3,,,
timeout,canvas.Screen,2_4_2_6_1_0_0_0_0_2_1,2021-01-16T10:41:00.348Z,,,blank.png,"[""marshmallow.png""]",blank.png,blank.png,blank.png,blank.png,blank.png,blank.png,blank.png,blank.png,blank.png,blank.png,blank.png,,,,,,,,,,,,,,,,,,,,,,,,,,,,,"[""marshmallow.png""]","[""blueberry.png""]",PB15.png,,,,,,,,,,,0,6,"[""blueberry.png""]","[""blueberry.png""]","[""blueberry.png""]","[""blueberry.png""]","[""blueberry.png""]","[""blueberry.png""]",blank.png,PB18.png,PB18.png,"[""blueberry.png""]","[""blueberry.png""]","[""blueberry.png""]","[""blueberry.png""]",blank.png,blank.png,"[""blueberry.png""]","[""blueberry.png""]","[""blueberry.png""]","[""blueberry.png""]","[""blueberry.png""]","[""blueberry.png""]",1,"[""marshmallow.png""]",blank.png,blank.png,blank.png,4,"[""blueberry.png""]","[""blueberry.png""]","[""blueberry.png""]","[""blueberry.png""]",blank.png,blank.png,PB15.png,,,,,,,,,,,1,,,,,,,,,,,,756.9689999999828,,timeout,,,,,,,,,,,,,3,,,,,,,,,,,,,,,,,,,,,,,,,,,,,,,,,,,,,,,,,,,,,,,,,,,,,,,,,"[""blueberry.png""]","[""marshmallow.png""]",,,,6,,,false,,1,,,,,,,299433.554999996,299433.255,298683.238,298942.3850001767,298940.174,299697.143,,,,
choice,canvas.Screen,2_4_2_6_1_0_0_0_0_2_2,2021-01-16T10:41:01.862Z,,,blank.png,"[""marshmallow.png""]",blank.png,blank.png,blank.png,blank.png,blank.png,blank.png,blank.png,blank.png,blank.png,blank.png,blank.png,,,,,,,,,,,,,,,,,,,,,,,,,,,,,"[""marshmallow.png""]","[""blueberry.png""]",PB15.png,,,,,,,,,,,0,6,"[""blueberry.png""]","[""blueberry.png""]","[""blueberry.png""]","[""blueberry.png""]","[""blueberry.png""]","[""blueberry.png""]",blank.png,PB18.png,PB18.png,"[""blueberry.png""]","[""blueberry.png""]","[""blueberry.png""]","[""blueberry.png""]",blank.png,blank.png,"[""blueberry.png""]","[""blueberry.png""]","[""blueberry.png""]","[""blueberry.png""]","[""blueberry.png""]","[""blueberry.png""]",1,"[""marshmallow.png""]",blank.png,blank.png,blank.png,4,"[""blueberry.png""]","[""blueberry.png""]","[""blueberry.png""]","[""blueberry.png""]",blank.png,blank.png,PB15.png,,,,,,,,,,,1,,,,,,,,,,,,1250.0370001338306,,response,,,,,,,,,,,,,3,,,,,,,,,,,,,,,,,,,,,,,,,,,,,,,,,,,,,,,,,,,,,,,,,,,,,,,,,"[""blueberry.png""]","[""marshmallow.png""]",,,,6,left,keydown(ArrowLeft),false,,1,,,,,,,300947.7500002831,300947.1800001338,299433.255,299697.17500032857,299697.143,301204.078,,3,,
square,canvas.Screen,2_4_2_6_1_0_0_0_0_2_3,2021-01-16T10:41:03.113Z,,,blank.png,"[""marshmallow.png""]",blank.png,blank.png,blank.png,blank.png,blank.png,blank.png,blank.png,blank.png,blank.png,blank.png,blank.png,,,,,,,,,,,,,,,,,,,,,,,,,,,,,"[""marshmallow.png""]","[""blueberry.png""]",PB15.png,,,,,,,,,,,0,6,"[""blueberry.png""]","[""blueberry.png""]","[""blueberry.png""]","[""blueberry.png""]","[""blueberry.png""]","[""blueberry.png""]",blank.png,PB18.png,PB18.png,"[""blueberry.png""]","[""blueberry.png""]","[""blueberry.png""]","[""blueberry.png""]",blank.png,blank.png,"[""blueberry.png""]","[""blueberry.png""]","[""blueberry.png""]","[""blueberry.png""]","[""blueberry.png""]","[""blueberry.png""]",1,"[""marshmallow.png""]",blank.png,blank.png,blank.png,4,"[""blueberry.png""]","[""blueberry.png""]","[""blueberry.png""]","[""blueberry.png""]",blank.png,blank.png,PB15.png,,,,,,,,,,,1,,#33ff3f,#808080,,,,,,,,,1000.304999999993,,timeout,,,,,,,,,,,,,3,,,,,,,,,,,,,,,,,,,,,,,,,,,,,,,,,,,,,,,,,,,,,,,,,,,,,,,,,"[""blueberry.png""]","[""marshmallow.png""]",,,,6,,,false,,1,,,,,black,white,302198.3850002289,302197.138,301197.04,301201.8599999137,301204.078,302204.383,,,,
ITI_late,canvas.Screen,2_4_2_6_1_0_0_0_0_2_4,2021-01-16T10:41:04.362Z,,,blank.png,"[""marshmallow.png""]",blank.png,blank.png,blank.png,blank.png,blank.png,blank.png,blank.png,blank.png,blank.png,blank.png,blank.png,,,,,,,,,,,,,,,,,,,,,,,,,,,,,"[""marshmallow.png""]","[""blueberry.png""]",PB15.png,,,,,,,,,,,0,6,"[""blueberry.png""]","[""blueberry.png""]","[""blueberry.png""]","[""blueberry.png""]","[""blueberry.png""]","[""blueberry.png""]",blank.png,PB18.png,PB18.png,"[""blueberry.png""]","[""blueberry.png""]","[""blueberry.png""]","[""blueberry.png""]",blank.png,blank.png,"[""blueberry.png""]","[""blueberry.png""]","[""blueberry.png""]","[""blueberry.png""]","[""blueberry.png""]","[""blueberry.png""]",1,"[""marshmallow.png""]",blank.png,blank.png,blank.png,4,"[""blueberry.png""]","[""blueberry.png""]","[""blueberry.png""]","[""blueberry.png""]",blank.png,blank.png,PB15.png,,,,,,,,,,,1,,,,,,,,,,,,1249.6810000000405,,timeout,,,,,,,,,,,,white,3,,,,,,,,,,,,,,,,,,,,,,,,,,,,,,,,,,,,,,,,,,,,,,,,,,,,,,,,,"[""blueberry.png""]","[""marshmallow.png""]",,,,6,,,false,,1,,,,,,,303447.4450000562,303447.137,302197.138,302199.3249999359,302204.383,303454.064,,,,
choice_sequence,flow.Sequence,2_4_2_6_1_0_0_0_0_2,2021-01-16T10:41:04.363Z,,,blank.png,"[""marshmallow.png""]",blank.png,blank.png,blank.png,blank.png,blank.png,blank.png,blank.png,blank.png,blank.png,blank.png,blank.png,,,,,,,,,,,,,,,,,,,,,,,,,,,,,"[""marshmallow.png""]","[""blueberry.png""]",PB15.png,,,,,,,,,,,0,6,"[""blueberry.png""]","[""blueberry.png""]","[""blueberry.png""]","[""blueberry.png""]","[""blueberry.png""]","[""blueberry.png""]",blank.png,PB18.png,PB18.png,"[""blueberry.png""]","[""blueberry.png""]","[""blueberry.png""]","[""blueberry.png""]",blank.png,blank.png,"[""blueberry.png""]","[""blueberry.png""]","[""blueberry.png""]","[""blueberry.png""]","[""blueberry.png""]","[""blueberry.png""]",1,"[""marshmallow.png""]",blank.png,blank.png,blank.png,4,"[""blueberry.png""]","[""blueberry.png""]","[""blueberry.png""]","[""blueberry.png""]",blank.png,blank.png,PB15.png,,,,,,,,,,,1,,,,,,,,,,,,5458.332999999984,,completion,,,,,,,,,,,,,3,,,,,,,,,,,,,,,,,,,,,,,,,,,,,,,,,,,,,,,,,,,,,,,,,,,,,,,,,"[""blueberry.png""]","[""marshmallow.png""]",,,,6,,,false,,1,,,,,,,303447.8600001894,303447.137,297981.868,297984.91000011563,297988.804,303454.064,,,,
fixCross,canvas.Screen,2_4_2_6_1_0_0_0_0_3_0,2021-01-16T10:41:04.612Z,,,blank.png,blank.png,blank.png,blank.png,blank.png,blank.png,blank.png,"[""marshmallow.png""]",blank.png,blank.png,blank.png,blank.png,blank.png,,,,,,,,,,,,,,,,,,,,,,,,,,,,,"[""marshmallow.png""]","[""blueberry.png""]",PB18.png,,,,,,,,,,,0,6,"[""blueberry.png""]","[""blueberry.png""]","[""blueberry.png""]","[""blueberry.png""]","[""blueberry.png""]","[""blueberry.png""]",blank.png,PB18.png,PB16.png,"[""blueberry.png""]","[""blueberry.png""]","[""blueberry.png""]","[""blueberry.png""]","[""blueberry.png""]","[""blueberry.png""]","[""blueberry.png""]","[""blueberry.png""]","[""blueberry.png""]","[""blueberry.png""]","[""blueberry.png""]",blank.png,1,"[""marshmallow.png""]",blank.png,blank.png,blank.png,5,"[""blueberry.png""]","[""blueberry.png""]","[""blueberry.png""]","[""blueberry.png""]","[""blueberry.png""]",blank.png,PB16.png,,,,,,,,,,,1,,,,,,,,,,,,513.875,,timeout,,,,,,,,,,,,,4,,,,,,,,,,,,,,,,,,,,,,,,,,,,,,,,,,,,,,,,,,,,,,,,,,,,,,,,,"[""blueberry.png""]","[""marshmallow.png""]",,,,6,,,false,,1,,,,,,,303697.38500006497,303697.113,303447.137,303450.46500023454,303454.064,303967.939,4,,,
timeout,canvas.Screen,2_4_2_6_1_0_0_0_0_3_1,2021-01-16T10:41:05.376Z,,,blank.png,blank.png,blank.png,blank.png,blank.png,blank.png,blank.png,"[""marshmallow.png""]",blank.png,blank.png,blank.png,blank.png,blank.png,,,,,,,,,,,,,,,,,,,,,,,,,,,,,"[""marshmallow.png""]","[""blueberry.png""]",PB18.png,,,,,,,,,,,0,6,"[""blueberry.png""]","[""blueberry.png""]","[""blueberry.png""]","[""blueberry.png""]","[""blueberry.png""]","[""blueberry.png""]",blank.png,PB18.png,PB16.png,"[""blueberry.png""]","[""blueberry.png""]","[""blueberry.png""]","[""blueberry.png""]","[""blueberry.png""]","[""blueberry.png""]","[""blueberry.png""]","[""blueberry.png""]","[""blueberry.png""]","[""blueberry.png""]","[""blueberry.png""]",blank.png,1,"[""marshmallow.png""]",blank.png,blank.png,blank.png,5,"[""blueberry.png""]","[""blueberry.png""]","[""blueberry.png""]","[""blueberry.png""]","[""blueberry.png""]",blank.png,PB16.png,,,,,,,,,,,1,,,,,,,,,,,,769.0959999999614,,timeout,,,,,,,,,,,,,4,,,,,,,,,,,,,,,,,,,,,,,,,,,,,,,,,,,,,,,,,,,,,,,,,,,,,,,,,"[""blueberry.png""]","[""marshmallow.png""]",,,,6,,,false,,1,,,,,,,304461.2700003199,304461.012,303697.113,303969.63499998674,303967.939,304737.035,,,,
choice,canvas.Screen,2_4_2_6_1_0_0_0_0_3_2,2021-01-16T10:41:05.716Z,,,blank.png,blank.png,blank.png,blank.png,blank.png,blank.png,blank.png,"[""marshmallow.png""]",blank.png,blank.png,blank.png,blank.png,blank.png,,,,,,,,,,,,,,,,,,,,,,,,,,,,,"[""marshmallow.png""]","[""blueberry.png""]",PB18.png,,,,,,,,,,,0,6,"[""blueberry.png""]","[""blueberry.png""]","[""blueberry.png""]","[""blueberry.png""]","[""blueberry.png""]","[""blueberry.png""]",blank.png,PB18.png,PB16.png,"[""blueberry.png""]","[""blueberry.png""]","[""blueberry.png""]","[""blueberry.png""]","[""blueberry.png""]","[""blueberry.png""]","[""blueberry.png""]","[""blueberry.png""]","[""blueberry.png""]","[""blueberry.png""]","[""blueberry.png""]",blank.png,1,"[""marshmallow.png""]",blank.png,blank.png,blank.png,5,"[""blueberry.png""]","[""blueberry.png""]","[""blueberry.png""]","[""blueberry.png""]","[""blueberry.png""]",blank.png,PB16.png,,,,,,,,,,,1,,,,,,,,,,,,63.110000219370704,,response,,,,,,,,,,,,,4,,,,,,,,,,,,,,,,,,,,,,,,,,,,,,,,,,,,,,,,,,,,,,,,,,,,,,,,,"[""blueberry.png""]","[""marshmallow.png""]",,,,6,right,keydown(ArrowRight),false,,1,,,,,,,304800.90499995276,304800.14500021935,304461.012,304735.9600001946,304737.035,305079.069,,4,,
square,canvas.Screen,2_4_2_6_1_0_0_0_0_3_3,2021-01-16T10:41:06.987Z,,,blank.png,blank.png,blank.png,blank.png,blank.png,blank.png,blank.png,"[""marshmallow.png""]",blank.png,blank.png,blank.png,blank.png,blank.png,,,,,,,,,,,,,,,,,,,,,,,,,,,,,"[""marshmallow.png""]","[""blueberry.png""]",PB18.png,,,,,,,,,,,0,6,"[""blueberry.png""]","[""blueberry.png""]","[""blueberry.png""]","[""blueberry.png""]","[""blueberry.png""]","[""blueberry.png""]",blank.png,PB18.png,PB16.png,"[""blueberry.png""]","[""blueberry.png""]","[""blueberry.png""]","[""blueberry.png""]","[""blueberry.png""]","[""blueberry.png""]","[""blueberry.png""]","[""blueberry.png""]","[""blueberry.png""]","[""blueberry.png""]","[""blueberry.png""]",blank.png,1,"[""marshmallow.png""]",blank.png,blank.png,blank.png,5,"[""blueberry.png""]","[""blueberry.png""]","[""blueberry.png""]","[""blueberry.png""]","[""blueberry.png""]",blank.png,PB16.png,,,,,,,,,,,1,,#808080,#33ff3f,,,,,,,,,1000.005999999994,,timeout,,,,,,,,,,,,,4,,,,,,,,,,,,,,,,,,,,,,,,,,,,,,,,,,,,,,,,,,,,,,,,,,,,,,,,,"[""blueberry.png""]","[""marshmallow.png""]",,,,6,,,false,,1,,,,,white,black,306072.40500021726,306072.132,305072.084,305073.30000028014,305079.069,306079.075,,,,
ITI_late,canvas.Screen,2_4_2_6_1_0_0_0_0_3_4,2021-01-16T10:41:07.987Z,,,blank.png,blank.png,blank.png,blank.png,blank.png,blank.png,blank.png,"[""marshmallow.png""]",blank.png,blank.png,blank.png,blank.png,blank.png,,,,,,,,,,,,,,,,,,,,,,,,,,,,,"[""marshmallow.png""]","[""blueberry.png""]",PB18.png,,,,,,,,,,,0,6,"[""blueberry.png""]","[""blueberry.png""]","[""blueberry.png""]","[""blueberry.png""]","[""blueberry.png""]","[""blueberry.png""]",blank.png,PB18.png,PB16.png,"[""blueberry.png""]","[""blueberry.png""]","[""blueberry.png""]","[""blueberry.png""]","[""blueberry.png""]","[""blueberry.png""]","[""blueberry.png""]","[""blueberry.png""]","[""blueberry.png""]","[""blueberry.png""]","[""blueberry.png""]",blank.png,1,"[""marshmallow.png""]",blank.png,blank.png,blank.png,5,"[""blueberry.png""]","[""blueberry.png""]","[""blueberry.png""]","[""blueberry.png""]","[""blueberry.png""]",blank.png,PB16.png,,,,,,,,,,,1,,,,,,,,,,,,999.9720000000088,,timeout,,,,,,,,,,,,white,4,,,,,,,,,,,,,,,,,,,,,,,,,,,,,,,,,,,,,,,,,,,,,,,,,,,,,,,,,"[""blueberry.png""]","[""marshmallow.png""]",,,,6,,,false,,1,,,,,,,307072.3550003022,307072.103,306072.132,306073.34000011906,306079.075,307079.047,,,,
choice_sequence,flow.Sequence,2_4_2_6_1_0_0_0_0_3,2021-01-16T10:41:07.987Z,,,blank.png,blank.png,blank.png,blank.png,blank.png,blank.png,blank.png,"[""marshmallow.png""]",blank.png,blank.png,blank.png,blank.png,blank.png,,,,,,,,,,,,,,,,,,,,,,,,,,,,,"[""marshmallow.png""]","[""blueberry.png""]",PB18.png,,,,,,,,,,,0,6,"[""blueberry.png""]","[""blueberry.png""]","[""blueberry.png""]","[""blueberry.png""]","[""blueberry.png""]","[""blueberry.png""]",blank.png,PB18.png,PB16.png,"[""blueberry.png""]","[""blueberry.png""]","[""blueberry.png""]","[""blueberry.png""]","[""blueberry.png""]","[""blueberry.png""]","[""blueberry.png""]","[""blueberry.png""]","[""blueberry.png""]","[""blueberry.png""]","[""blueberry.png""]",blank.png,1,"[""marshmallow.png""]",blank.png,blank.png,blank.png,5,"[""blueberry.png""]","[""blueberry.png""]","[""blueberry.png""]","[""blueberry.png""]","[""blueberry.png""]",blank.png,PB16.png,,,,,,,,,,,1,,,,,,,,,,,,3618.0389999999898,,completion,,,,,,,,,,,,,4,,,,,,,,,,,,,,,,,,,,,,,,,,,,,,,,,,,,,,,,,,,,,,,,,,,,,,,,,"[""blueberry.png""]","[""marshmallow.png""]",,,,6,,,false,,1,,,,,,,307072.6649998687,307072.103,303447.137,303450.0500001013,303454.064,307079.047,,,,
fixCross,canvas.Screen,2_4_2_6_1_0_0_0_0_4_0,2021-01-16T10:41:08.438Z,,,blank.png,"[""marshmallow.png""]",blank.png,blank.png,blank.png,blank.png,blank.png,blank.png,blank.png,blank.png,blank.png,blank.png,blank.png,,,,,,,,,,,,,,,,,,,,,,,,,,,,,"[""marshmallow.png""]","[""blueberry.png""]",PB17.png,,,,,,,,,,,0,6,"[""blueberry.png""]","[""blueberry.png""]","[""blueberry.png""]","[""blueberry.png""]","[""blueberry.png""]","[""blueberry.png""]",blank.png,PB18.png,PB18.png,"[""blueberry.png""]","[""blueberry.png""]","[""blueberry.png""]","[""blueberry.png""]","[""blueberry.png""]","[""blueberry.png""]","[""blueberry.png""]","[""blueberry.png""]","[""blueberry.png""]","[""blueberry.png""]","[""blueberry.png""]","[""blueberry.png""]",1,"[""marshmallow.png""]",blank.png,blank.png,blank.png,6,"[""blueberry.png""]","[""blueberry.png""]","[""blueberry.png""]","[""blueberry.png""]","[""blueberry.png""]","[""blueberry.png""]",PB17.png,,,,,,,,,,,1,,,,,,,,,,,,736.1089999999967,,timeout,,,,,,,,,,,,,3,,,,,,,,,,,,,,,,,,,,,,,,,,,,,,,,,,,,,,,,,,,,,,,,,,,,,,,,,"[""blueberry.png""]","[""marshmallow.png""]",,,,6,,,false,,1,,,,,,,307523.75000016764,307523.491,307072.103,307075.0700002536,307079.047,307815.156,5,,,
timeout,canvas.Screen,2_4_2_6_1_0_0_0_0_4_1,2021-01-16T10:41:09.223Z,,,blank.png,"[""marshmallow.png""]",blank.png,blank.png,blank.png,blank.png,blank.png,blank.png,blank.png,blank.png,blank.png,blank.png,blank.png,,,,,,,,,,,,,,,,,,,,,,,,,,,,,"[""marshmallow.png""]","[""blueberry.png""]",PB17.png,,,,,,,,,,,0,6,"[""blueberry.png""]","[""blueberry.png""]","[""blueberry.png""]","[""blueberry.png""]","[""blueberry.png""]","[""blueberry.png""]",blank.png,PB18.png,PB18.png,"[""blueberry.png""]","[""blueberry.png""]","[""blueberry.png""]","[""blueberry.png""]","[""blueberry.png""]","[""blueberry.png""]","[""blueberry.png""]","[""blueberry.png""]","[""blueberry.png""]","[""blueberry.png""]","[""blueberry.png""]","[""blueberry.png""]",1,"[""marshmallow.png""]",blank.png,blank.png,blank.png,6,"[""blueberry.png""]","[""blueberry.png""]","[""blueberry.png""]","[""blueberry.png""]","[""blueberry.png""]","[""blueberry.png""]",PB17.png,,,,,,,,,,,1,,,,,,,,,,,,784.7390000000014,,timeout,,,,,,,,,,,,,3,,,,,,,,,,,,,,,,,,,,,,,,,,,,,,,,,,,,,,,,,,,,,,,,,,,,,,,,,"[""blueberry.png""]","[""marshmallow.png""]",,,,6,,,false,,1,,,,,,,308308.5050000809,308308.211,307523.491,307817.05499999225,307815.156,308599.895,,,,
choice,canvas.Screen,2_4_2_6_1_0_0_0_0_4_2,2021-01-16T10:41:09.767Z,,,blank.png,"[""marshmallow.png""]",blank.png,blank.png,blank.png,blank.png,blank.png,blank.png,blank.png,blank.png,blank.png,blank.png,blank.png,,,,,,,,,,,,,,,,,,,,,,,,,,,,,"[""marshmallow.png""]","[""blueberry.png""]",PB17.png,,,,,,,,,,,0,6,"[""blueberry.png""]","[""blueberry.png""]","[""blueberry.png""]","[""blueberry.png""]","[""blueberry.png""]","[""blueberry.png""]",blank.png,PB18.png,PB18.png,"[""blueberry.png""]","[""blueberry.png""]","[""blueberry.png""]","[""blueberry.png""]","[""blueberry.png""]","[""blueberry.png""]","[""blueberry.png""]","[""blueberry.png""]","[""blueberry.png""]","[""blueberry.png""]","[""blueberry.png""]","[""blueberry.png""]",1,"[""marshmallow.png""]",blank.png,blank.png,blank.png,6,"[""blueberry.png""]","[""blueberry.png""]","[""blueberry.png""]","[""blueberry.png""]","[""blueberry.png""]","[""blueberry.png""]",PB17.png,,,,,,,,,,,1,,,,,,,,,,,,251.27500015450642,,response,,,,,,,,,,,,,3,,,,,,,,,,,,,,,,,,,,,,,,,,,,,,,,,,,,,,,,,,,,,,,,,,,,,,,,,"[""blueberry.png""]","[""marshmallow.png""]",,,,6,left,keydown(ArrowLeft),false,,1,,,,,,,308851.79500002414,308851.1700001545,308308.211,308599.8750003055,308599.895,309141.566,,5,,
square,canvas.Screen,2_4_2_6_1_0_0_0_0_4_3,2021-01-16T10:41:11.050Z,,,blank.png,"[""marshmallow.png""]",blank.png,blank.png,blank.png,blank.png,blank.png,blank.png,blank.png,blank.png,blank.png,blank.png,blank.png,,,,,,,,,,,,,,,,,,,,,,,,,,,,,"[""marshmallow.png""]","[""blueberry.png""]",PB17.png,,,,,,,,,,,0,6,"[""blueberry.png""]","[""blueberry.png""]","[""blueberry.png""]","[""blueberry.png""]","[""blueberry.png""]","[""blueberry.png""]",blank.png,PB18.png,PB18.png,"[""blueberry.png""]","[""blueberry.png""]","[""blueberry.png""]","[""blueberry.png""]","[""blueberry.png""]","[""blueberry.png""]","[""blueberry.png""]","[""blueberry.png""]","[""blueberry.png""]","[""blueberry.png""]","[""blueberry.png""]","[""blueberry.png""]",1,"[""marshmallow.png""]",blank.png,blank.png,blank.png,6,"[""blueberry.png""]","[""blueberry.png""]","[""blueberry.png""]","[""blueberry.png""]","[""blueberry.png""]","[""blueberry.png""]",PB17.png,,,,,,,,,,,1,,#33ff3f,#808080,,,,,,,,,999.9770000000135,,timeout,,,,,,,,,,,,,3,,,,,,,,,,,,,,,,,,,,,,,,,,,,,,,,,,,,,,,,,,,,,,,,,,,,,,,,,"[""blueberry.png""]","[""marshmallow.png""]",,,,6,,,false,,1,,,,,black,white,310135.0199999288,310134.597,309134.596,309136.14499988034,309141.566,310141.543,,,,
ITI_late,canvas.Screen,2_4_2_6_1_0_0_0_0_4_4,2021-01-16T10:41:12.300Z,,,blank.png,"[""marshmallow.png""]",blank.png,blank.png,blank.png,blank.png,blank.png,blank.png,blank.png,blank.png,blank.png,blank.png,blank.png,,,,,,,,,,,,,,,,,,,,,,,,,,,,,"[""marshmallow.png""]","[""blueberry.png""]",PB17.png,,,,,,,,,,,0,6,"[""blueberry.png""]","[""blueberry.png""]","[""blueberry.png""]","[""blueberry.png""]","[""blueberry.png""]","[""blueberry.png""]",blank.png,PB18.png,PB18.png,"[""blueberry.png""]","[""blueberry.png""]","[""blueberry.png""]","[""blueberry.png""]","[""blueberry.png""]","[""blueberry.png""]","[""blueberry.png""]","[""blueberry.png""]","[""blueberry.png""]","[""blueberry.png""]","[""blueberry.png""]","[""blueberry.png""]",1,"[""marshmallow.png""]",blank.png,blank.png,blank.png,6,"[""blueberry.png""]","[""blueberry.png""]","[""blueberry.png""]","[""blueberry.png""]","[""blueberry.png""]","[""blueberry.png""]",PB17.png,,,,,,,,,,,1,,,,,,,,,,,,1250.00900000002,,timeout,,,,,,,,,,,,white,3,,,,,,,,,,,,,,,,,,,,,,,,,,,,,,,,,,,,,,,,,,,,,,,,,,,,,,,,,"[""blueberry.png""]","[""marshmallow.png""]",,,,6,,,false,,1,,,,,,,311384.9300001748,311384.609,310134.597,310135.92999987304,310141.543,311391.552,,,,
choice_sequence,flow.Sequence,2_4_2_6_1_0_0_0_0_4,2021-01-16T10:41:12.300Z,,,blank.png,"[""marshmallow.png""]",blank.png,blank.png,blank.png,blank.png,blank.png,blank.png,blank.png,blank.png,blank.png,blank.png,blank.png,,,,,,,,,,,,,,,,,,,,,,,,,,,,,"[""marshmallow.png""]","[""blueberry.png""]",PB17.png,,,,,,,,,,,0,6,"[""blueberry.png""]","[""blueberry.png""]","[""blueberry.png""]","[""blueberry.png""]","[""blueberry.png""]","[""blueberry.png""]",blank.png,PB18.png,PB18.png,"[""blueberry.png""]","[""blueberry.png""]","[""blueberry.png""]","[""blueberry.png""]","[""blueberry.png""]","[""blueberry.png""]","[""blueberry.png""]","[""blueberry.png""]","[""blueberry.png""]","[""blueberry.png""]","[""blueberry.png""]","[""blueberry.png""]",1,"[""marshmallow.png""]",blank.png,blank.png,blank.png,6,"[""blueberry.png""]","[""blueberry.png""]","[""blueberry.png""]","[""blueberry.png""]","[""blueberry.png""]","[""blueberry.png""]",PB17.png,,,,,,,,,,,1,,,,,,,,,,,,4305.561999999976,,completion,,,,,,,,,,,,,3,,,,,,,,,,,,,,,,,,,,,,,,,,,,,,,,,,,,,,,,,,,,,,,,,,,,,,,,,"[""blueberry.png""]","[""marshmallow.png""]",,,,6,,,false,,1,,,,,,,311385.31000027433,311384.609,307072.103,307074.65999992564,307079.047,311391.552,,,,
fixCross,canvas.Screen,2_4_2_6_1_0_0_0_0_5_0,2021-01-16T10:41:12.897Z,,,blank.png,blank.png,blank.png,blank.png,blank.png,blank.png,blank.png,"[""marshmallow.png""]",blank.png,blank.png,blank.png,blank.png,blank.png,,,,,,,,,,,,,,,,,,,,,,,,,,,,,"[""marshmallow.png""]","[""blueberry.png""]",PB18.png,,,,,,,,,,,0,6,"[""blueberry.png""]","[""blueberry.png""]","[""blueberry.png""]","[""blueberry.png""]","[""blueberry.png""]","[""blueberry.png""]",blank.png,PB18.png,PB01.png,"[""blueberry.png""]","[""blueberry.png""]","[""blueberry.png""]","[""blueberry.png""]","[""blueberry.png""]","[""blueberry.png""]",blank.png,blank.png,blank.png,blank.png,blank.png,blank.png,1,"[""marshmallow.png""]",blank.png,blank.png,blank.png,0,blank.png,blank.png,blank.png,blank.png,blank.png,blank.png,PB01.png,,,,,,,,,,,1,,,,,,,,,,,,798.6239999999525,,timeout,,,,,,,,,,,,,4,,,,,,,,,,,,,,,,,,,,,,,,,,,,,,,,,,,,,,,,,,,,,,,,,,,,,,,,,"[""blueberry.png""]","[""marshmallow.png""]",,,,6,,,false,,1,,,,,,,311982.07999998704,311981.83,311384.609,311387.76500010863,311391.552,312190.176,6,,,
timeout,canvas.Screen,2_4_2_6_1_0_0_0_0_5_1,2021-01-16T10:41:13.598Z,,,blank.png,blank.png,blank.png,blank.png,blank.png,blank.png,blank.png,"[""marshmallow.png""]",blank.png,blank.png,blank.png,blank.png,blank.png,,,,,,,,,,,,,,,,,,,,,,,,,,,,,"[""marshmallow.png""]","[""blueberry.png""]",PB18.png,,,,,,,,,,,0,6,"[""blueberry.png""]","[""blueberry.png""]","[""blueberry.png""]","[""blueberry.png""]","[""blueberry.png""]","[""blueberry.png""]",blank.png,PB18.png,PB01.png,"[""blueberry.png""]","[""blueberry.png""]","[""blueberry.png""]","[""blueberry.png""]","[""blueberry.png""]","[""blueberry.png""]",blank.png,blank.png,blank.png,blank.png,blank.png,blank.png,1,"[""marshmallow.png""]",blank.png,blank.png,blank.png,0,blank.png,blank.png,blank.png,blank.png,blank.png,blank.png,PB01.png,,,,,,,,,,,1,,,,,,,,,,,,708.3090000000084,,timeout,,,,,,,,,,,,,4,,,,,,,,,,,,,,,,,,,,,,,,,,,,,,,,,,,,,,,,,,,,,,,,,,,,,,,,,"[""blueberry.png""]","[""marshmallow.png""]",,,,6,,,false,,1,,,,,,,312683.53500030935,312683.213,311981.83,312191.9900001958,312190.176,312898.485,,,,
choice,canvas.Screen,2_4_2_6_1_0_0_0_0_5_2,2021-01-16T10:41:13.989Z,,,blank.png,blank.png,blank.png,blank.png,blank.png,blank.png,blank.png,"[""marshmallow.png""]",blank.png,blank.png,blank.png,blank.png,blank.png,,,,,,,,,,,,,,,,,,,,,,,,,,,,,"[""marshmallow.png""]","[""blueberry.png""]",PB18.png,,,,,,,,,,,0,6,"[""blueberry.png""]","[""blueberry.png""]","[""blueberry.png""]","[""blueberry.png""]","[""blueberry.png""]","[""blueberry.png""]",blank.png,PB18.png,PB01.png,"[""blueberry.png""]","[""blueberry.png""]","[""blueberry.png""]","[""blueberry.png""]","[""blueberry.png""]","[""blueberry.png""]",blank.png,blank.png,blank.png,blank.png,blank.png,blank.png,1,"[""marshmallow.png""]",blank.png,blank.png,blank.png,0,blank.png,blank.png,blank.png,blank.png,blank.png,blank.png,PB01.png,,,,,,,,,,,1,,,,,,,,,,,,175.6499998861691,,response,,,,,,,,,,,,,4,,,,,,,,,,,,,,,,,,,,,,,,,,,,,,,,,,,,,,,,,,,,,,,,,,,,,,,,,"[""blueberry.png""]","[""marshmallow.png""]",,,,6,right,keydown(ArrowRight),false,,1,,,,,,,313074.71999991685,313074.13499988616,312683.213,312890.05500031635,312898.485,313294.326,,6,,
square,canvas.Screen,2_4_2_6_1_0_0_0_0_5_3,2021-01-16T10:41:15.202Z,,,blank.png,blank.png,blank.png,blank.png,blank.png,blank.png,blank.png,"[""marshmallow.png""]",blank.png,blank.png,blank.png,blank.png,blank.png,,,,,,,,,,,,,,,,,,,,,,,,,,,,,"[""marshmallow.png""]","[""blueberry.png""]",PB18.png,,,,,,,,,,,0,6,"[""blueberry.png""]","[""blueberry.png""]","[""blueberry.png""]","[""blueberry.png""]","[""blueberry.png""]","[""blueberry.png""]",blank.png,PB18.png,PB01.png,"[""blueberry.png""]","[""blueberry.png""]","[""blueberry.png""]","[""blueberry.png""]","[""blueberry.png""]","[""blueberry.png""]",blank.png,blank.png,blank.png,blank.png,blank.png,blank.png,1,"[""marshmallow.png""]",blank.png,blank.png,blank.png,0,blank.png,blank.png,blank.png,blank.png,blank.png,blank.png,PB01.png,,,,,,,,,,,1,,#808080,#33ff3f,,,,,,,,,999.9870000000228,,timeout,,,,,,,,,,,,,4,,,,,,,,,,,,,,,,,,,,,,,,,,,,,,,,,,,,,,,,,,,,,,,,,,,,,,,,,"[""blueberry.png""]","[""marshmallow.png""]",,,,6,,,false,,1,,,,,white,black,314287.63499995694,314287.371,313273.462,313278.4800003283,313294.326,314294.313,,,,
ITI_late,canvas.Screen,2_4_2_6_1_0_0_0_0_5_4,2021-01-16T10:41:15.702Z,,,blank.png,blank.png,blank.png,blank.png,blank.png,blank.png,blank.png,"[""marshmallow.png""]",blank.png,blank.png,blank.png,blank.png,blank.png,,,,,,,,,,,,,,,,,,,,,,,,,,,,,"[""marshmallow.png""]","[""blueberry.png""]",PB18.png,,,,,,,,,,,0,6,"[""blueberry.png""]","[""blueberry.png""]","[""blueberry.png""]","[""blueberry.png""]","[""blueberry.png""]","[""blueberry.png""]",blank.png,PB18.png,PB01.png,"[""blueberry.png""]","[""blueberry.png""]","[""blueberry.png""]","[""blueberry.png""]","[""blueberry.png""]","[""blueberry.png""]",blank.png,blank.png,blank.png,blank.png,blank.png,blank.png,1,"[""marshmallow.png""]",blank.png,blank.png,blank.png,0,blank.png,blank.png,blank.png,blank.png,blank.png,blank.png,PB01.png,,,,,,,,,,,1,,,,,,,,,,,,500.00699999998324,,timeout,,,,,,,,,,,,white,4,,,,,,,,,,,,,,,,,,,,,,,,,,,,,,,,,,,,,,,,,,,,,,,,,,,,,,,,,"[""blueberry.png""]","[""marshmallow.png""]",,,,6,,,false,,1,,,,,,,314787.64000022784,314787.393,314287.371,314288.65500027314,314294.313,314794.32,,,,
choice_sequence,flow.Sequence,2_4_2_6_1_0_0_0_0_5,2021-01-16T10:41:15.703Z,,,blank.png,blank.png,blank.png,blank.png,blank.png,blank.png,blank.png,"[""marshmallow.png""]",blank.png,blank.png,blank.png,blank.png,blank.png,,,,,,,,,,,,,,,,,,,,,,,,,,,,,"[""marshmallow.png""]","[""blueberry.png""]",PB18.png,,,,,,,,,,,0,6,"[""blueberry.png""]","[""blueberry.png""]","[""blueberry.png""]","[""blueberry.png""]","[""blueberry.png""]","[""blueberry.png""]",blank.png,PB18.png,PB01.png,"[""blueberry.png""]","[""blueberry.png""]","[""blueberry.png""]","[""blueberry.png""]","[""blueberry.png""]","[""blueberry.png""]",blank.png,blank.png,blank.png,blank.png,blank.png,blank.png,1,"[""marshmallow.png""]",blank.png,blank.png,blank.png,0,blank.png,blank.png,blank.png,blank.png,blank.png,blank.png,PB01.png,,,,,,,,,,,1,,,,,,,,,,,,3395.8409999999567,,completion,,,,,,,,,,,,,4,,,,,,,,,,,,,,,,,,,,,,,,,,,,,,,,,,,,,,,,,,,,,,,,,,,,,,,,,"[""blueberry.png""]","[""marshmallow.png""]",,,,6,,,false,,1,,,,,,,314787.9400001839,314787.393,311384.609,311387.36500032246,311391.552,314794.32,,,,
fixCross,canvas.Screen,2_4_2_6_1_0_0_0_0_6_0,2021-01-16T10:41:16.404Z,,,blank.png,blank.png,blank.png,blank.png,blank.png,blank.png,blank.png,"[""marshmallow.png""]",blank.png,blank.png,blank.png,blank.png,blank.png,,,,,,,,,,,,,,,,,,,,,,,,,,,,,"[""marshmallow.png""]","[""blueberry.png""]",PB18.png,,,,,,,,,,,0,6,"[""blueberry.png""]","[""blueberry.png""]","[""blueberry.png""]","[""blueberry.png""]","[""blueberry.png""]","[""blueberry.png""]",blank.png,PB18.png,PB14.png,"[""blueberry.png""]","[""blueberry.png""]","[""blueberry.png""]","[""blueberry.png""]","[""blueberry.png""]","[""blueberry.png""]","[""blueberry.png""]","[""blueberry.png""]","[""blueberry.png""]",blank.png,blank.png,blank.png,1,"[""marshmallow.png""]",blank.png,blank.png,blank.png,3,"[""blueberry.png""]","[""blueberry.png""]","[""blueberry.png""]",blank.png,blank.png,blank.png,PB14.png,,,,,,,,,,,1,,,,,,,,,,,,944.445000000007,,timeout,,,,,,,,,,,,,4,,,,,,,,,,,,,,,,,,,,,,,,,,,,,,,,,,,,,,,,,,,,,,,,,,,,,,,,,"[""blueberry.png""]","[""marshmallow.png""]",,,,6,,,false,,1,,,,,,,315489.02500001714,315488.768,314787.393,314790.39000021294,314794.32,315738.765,7,,,
timeout,canvas.Screen,2_4_2_6_1_0_0_0_0_6_1,2021-01-16T10:41:17.147Z,,,blank.png,blank.png,blank.png,blank.png,blank.png,blank.png,blank.png,"[""marshmallow.png""]",blank.png,blank.png,blank.png,blank.png,blank.png,,,,,,,,,,,,,,,,,,,,,,,,,,,,,"[""marshmallow.png""]","[""blueberry.png""]",PB18.png,,,,,,,,,,,0,6,"[""blueberry.png""]","[""blueberry.png""]","[""blueberry.png""]","[""blueberry.png""]","[""blueberry.png""]","[""blueberry.png""]",blank.png,PB18.png,PB14.png,"[""blueberry.png""]","[""blueberry.png""]","[""blueberry.png""]","[""blueberry.png""]","[""blueberry.png""]","[""blueberry.png""]","[""blueberry.png""]","[""blueberry.png""]","[""blueberry.png""]",blank.png,blank.png,blank.png,1,"[""marshmallow.png""]",blank.png,blank.png,blank.png,3,"[""blueberry.png""]","[""blueberry.png""]","[""blueberry.png""]",blank.png,blank.png,blank.png,PB14.png,,,,,,,,,,,1,,,,,,,,,,,,743.070000000007,,timeout,,,,,,,,,,,,,4,,,,,,,,,,,,,,,,,,,,,,,,,,,,,,,,,,,,,,,,,,,,,,,,,,,,,,,,,"[""blueberry.png""]","[""marshmallow.png""]",,,,6,,,false,,1,,,,,,,316232.0699999109,316231.808,315488.768,315740.6299998984,315738.765,316481.835,,,,
choice,canvas.Screen,2_4_2_6_1_0_0_0_0_6_2,2021-01-16T10:41:17.591Z,,,blank.png,blank.png,blank.png,blank.png,blank.png,blank.png,blank.png,"[""marshmallow.png""]",blank.png,blank.png,blank.png,blank.png,blank.png,,,,,,,,,,,,,,,,,,,,,,,,,,,,,"[""marshmallow.png""]","[""blueberry.png""]",PB18.png,,,,,,,,,,,0,6,"[""blueberry.png""]","[""blueberry.png""]","[""blueberry.png""]","[""blueberry.png""]","[""blueberry.png""]","[""blueberry.png""]",blank.png,PB18.png,PB14.png,"[""blueberry.png""]","[""blueberry.png""]","[""blueberry.png""]","[""blueberry.png""]","[""blueberry.png""]","[""blueberry.png""]","[""blueberry.png""]","[""blueberry.png""]","[""blueberry.png""]",blank.png,blank.png,blank.png,1,"[""marshmallow.png""]",blank.png,blank.png,blank.png,3,"[""blueberry.png""]","[""blueberry.png""]","[""blueberry.png""]",blank.png,blank.png,blank.png,PB14.png,,,,,,,,,,,1,,,,,,,,,,,,193.28500026179245,,response,,,,,,,,,,,,,4,,,,,,,,,,,,,,,,,,,,,,,,,,,,,,,,,,,,,,,,,,,,,,,,,,,,,,,,,"[""blueberry.png""]","[""marshmallow.png""]",,,,6,right,keydown(ArrowRight),false,,1,,,,,,,316676.0400002822,316675.1200002618,316231.808,316480.2999999374,316481.835,316948.656,,7,,
square,canvas.Screen,2_4_2_6_1_0_0_0_0_6_3,2021-01-16T10:41:18.855Z,,,blank.png,blank.png,blank.png,blank.png,blank.png,blank.png,blank.png,"[""marshmallow.png""]",blank.png,blank.png,blank.png,blank.png,blank.png,,,,,,,,,,,,,,,,,,,,,,,,,,,,,"[""marshmallow.png""]","[""blueberry.png""]",PB18.png,,,,,,,,,,,0,6,"[""blueberry.png""]","[""blueberry.png""]","[""blueberry.png""]","[""blueberry.png""]","[""blueberry.png""]","[""blueberry.png""]",blank.png,PB18.png,PB14.png,"[""blueberry.png""]","[""blueberry.png""]","[""blueberry.png""]","[""blueberry.png""]","[""blueberry.png""]","[""blueberry.png""]","[""blueberry.png""]","[""blueberry.png""]","[""blueberry.png""]",blank.png,blank.png,blank.png,1,"[""marshmallow.png""]",blank.png,blank.png,blank.png,3,"[""blueberry.png""]","[""blueberry.png""]","[""blueberry.png""]",blank.png,blank.png,blank.png,PB14.png,,,,,,,,,,,1,,#808080,#33ff3f,,,,,,,,,998.429999999993,,timeout,,,,,,,,,,,,,4,,,,,,,,,,,,,,,,,,,,,,,,,,,,,,,,,,,,,,,,,,,,,,,,,,,,,,,,,"[""blueberry.png""]","[""marshmallow.png""]",,,,6,,,false,,1,,,,,white,black,317940.3900001198,317940.138,316919.298,316925.980000291,316948.656,317947.086,,,,
ITI_late,canvas.Screen,2_4_2_6_1_0_0_0_0_6_4,2021-01-16T10:41:19.105Z,,,blank.png,blank.png,blank.png,blank.png,blank.png,blank.png,blank.png,"[""marshmallow.png""]",blank.png,blank.png,blank.png,blank.png,blank.png,,,,,,,,,,,,,,,,,,,,,,,,,,,,,"[""marshmallow.png""]","[""blueberry.png""]",PB18.png,,,,,,,,,,,0,6,"[""blueberry.png""]","[""blueberry.png""]","[""blueberry.png""]","[""blueberry.png""]","[""blueberry.png""]","[""blueberry.png""]",blank.png,PB18.png,PB14.png,"[""blueberry.png""]","[""blueberry.png""]","[""blueberry.png""]","[""blueberry.png""]","[""blueberry.png""]","[""blueberry.png""]","[""blueberry.png""]","[""blueberry.png""]","[""blueberry.png""]",blank.png,blank.png,blank.png,1,"[""marshmallow.png""]",blank.png,blank.png,blank.png,3,"[""blueberry.png""]","[""blueberry.png""]","[""blueberry.png""]",blank.png,blank.png,blank.png,PB14.png,,,,,,,,,,,1,,,,,,,,,,,,256.94899999996414,,timeout,,,,,,,,,,,,white,4,,,,,,,,,,,,,,,,,,,,,,,,,,,,,,,,,,,,,,,,,,,,,,,,,,,,,,,,,"[""blueberry.png""]","[""marshmallow.png""]",,,,6,,,false,,1,,,,,,,318190.4250001535,318190.137,317940.138,317941.31499994546,317947.086,318204.035,,,,
choice_sequence,flow.Sequence,2_4_2_6_1_0_0_0_0_6,2021-01-16T10:41:19.106Z,,,blank.png,blank.png,blank.png,blank.png,blank.png,blank.png,blank.png,"[""marshmallow.png""]",blank.png,blank.png,blank.png,blank.png,blank.png,,,,,,,,,,,,,,,,,,,,,,,,,,,,,"[""marshmallow.png""]","[""blueberry.png""]",PB18.png,,,,,,,,,,,0,6,"[""blueberry.png""]","[""blueberry.png""]","[""blueberry.png""]","[""blueberry.png""]","[""blueberry.png""]","[""blueberry.png""]",blank.png,PB18.png,PB14.png,"[""blueberry.png""]","[""blueberry.png""]","[""blueberry.png""]","[""blueberry.png""]","[""blueberry.png""]","[""blueberry.png""]","[""blueberry.png""]","[""blueberry.png""]","[""blueberry.png""]",blank.png,blank.png,blank.png,1,"[""marshmallow.png""]",blank.png,blank.png,blank.png,3,"[""blueberry.png""]","[""blueberry.png""]","[""blueberry.png""]",blank.png,blank.png,blank.png,PB14.png,,,,,,,,,,,1,,,,,,,,,,,,3395.816999999981,,completion,,,,,,,,,,,,,4,,,,,,,,,,,,,,,,,,,,,,,,,,,,,,,,,,,,,,,,,,,,,,,,,,,,,,,,,"[""blueberry.png""]","[""marshmallow.png""]",,,,6,,,false,,1,,,,,,,318190.82499993965,318190.137,314787.393,314789.97999988496,314794.32,318204.035,,,,
choice_loop,flow.Loop,2_4_2_6_1_0_0_0_0,2021-01-16T10:41:19.106Z,,,,,,,,,,,,,,,,,,,,,,,,,,,,,,,,,,,,,,,,,,,,"[""marshmallow.png""]","[""blueberry.png""]",,,,,,,,,,,,,,,,,,,,,,,,,,,,,,,,,,,,,,,,,,,,,,,,,,,,,,,,,,,,,,,,,,,,,,29659.640000000014,,completion,,,,,,,,,,,,,,,,,,,,,,,,,,,,,,,,,,,,,,,,,,,,,,,,,,,,,,,,,,,,,,,,,,,,,,"[""blueberry.png""]","[""marshmallow.png""]",,,,6,,,false,,,,,,,,,318191.04500021785,318190.137,288516.609,288532.13499998674,288530.497,318204.035,,,,
choice_frame,html.Frame,2_4_2_6_1_0_0_0,2021-01-16T10:41:19.106Z,,,,,,,,,,,,,,,,,,,,,,,,,,,,,,,,,,,,,,,,,,,,,,,,,,,,,,,,,,,,,,,,,,,,,,,,,,,,,,,,,,,,,,,,,,,,,,,,,,,,,,,,,,,,,,,,,,,29660.60800020909,,,,,,,,,,,,,,,,,,,,,,,,,,,,,,,,,,,,,,,,,,,,,,,,,,,,,,,,,,,,,,,,,,,,,,,,,,,,,6,,,false,,,,,,,,,318191.15999992937,318191.10500020906,288516.609,288516.9299999252,288530.497,318210.974,,,,
sublock_1,flow.Sequence,2_4_2_6_1_0_0,2021-01-16T10:41:19.106Z,,,,,,,,,,,,,,,,,,,,,,,,,,,,,,,,,,,,,,,,,,,,,,,,,,,,,,,,,,,,,,,,,,,,,,,,,,,,,,,,,,,,,,,,,,,,,,,,,,,,,,,,,,,,,,,,,,,29660.60800020909,,completion,,,,,,,,,,,,,,,,,,,,,,,,,,,,,,,,,,,,,,,,,,,,,,,,,,,,,,,,,,,,,,,,,,,,,,,,,,,6,,,false,,,,,,,,,318191.2299999967,318191.10500020906,288516.609,288516.91000023857,288530.497,318210.974,,,,
fixCross,canvas.Screen,2_4_2_6_1_0_1_0_0_0_0,2021-01-16T10:41:19.869Z,,,blank.png,"[""marshmallow.png""]",blank.png,blank.png,blank.png,blank.png,blank.png,blank.png,blank.png,blank.png,blank.png,blank.png,blank.png,,,,,,,,,,,,,,,,,,,,,,,,,,,,,"[""marshmallow.png""]","[""blueberry.png""]",PB14.png,,,,,,,,,,,0,6,"[""blueberry.png""]","[""blueberry.png""]","[""blueberry.png""]","[""blueberry.png""]","[""blueberry.png""]","[""blueberry.png""]",blank.png,PB18.png,PB18.png,"[""blueberry.png""]","[""blueberry.png""]","[""blueberry.png""]",blank.png,blank.png,blank.png,"[""blueberry.png""]","[""blueberry.png""]","[""blueberry.png""]","[""blueberry.png""]","[""blueberry.png""]","[""blueberry.png""]",1,"[""marshmallow.png""]",blank.png,blank.png,blank.png,3,"[""blueberry.png""]","[""blueberry.png""]","[""blueberry.png""]",blank.png,blank.png,blank.png,PB14.png,,,,,,,,,,,1,,,,,,,,,,,,1000.0009999999893,,timeout,,,,,,,,,,,,,3,,,,,,,,,,,,,,,,,,,,,,,,,,,,,,,,,,,,,,,,,,,,,,,,,,,,,,,,,"[""blueberry.png""]","[""marshmallow.png""]",,,,5,,,false,,1,,,,,,,318954.3099999428,318954.038,318204.035,318205.8749999851,318210.974,319210.975,8,,,
timeout,canvas.Screen,2_4_2_6_1_0_1_0_0_0_1,2021-01-16T10:41:20.619Z,,,blank.png,"[""marshmallow.png""]",blank.png,blank.png,blank.png,blank.png,blank.png,blank.png,blank.png,blank.png,blank.png,blank.png,blank.png,,,,,,,,,,,,,,,,,,,,,,,,,,,,,"[""marshmallow.png""]","[""blueberry.png""]",PB14.png,,,,,,,,,,,0,6,"[""blueberry.png""]","[""blueberry.png""]","[""blueberry.png""]","[""blueberry.png""]","[""blueberry.png""]","[""blueberry.png""]",blank.png,PB18.png,PB18.png,"[""blueberry.png""]","[""blueberry.png""]","[""blueberry.png""]",blank.png,blank.png,blank.png,"[""blueberry.png""]","[""blueberry.png""]","[""blueberry.png""]","[""blueberry.png""]","[""blueberry.png""]","[""blueberry.png""]",1,"[""marshmallow.png""]",blank.png,blank.png,blank.png,3,"[""blueberry.png""]","[""blueberry.png""]","[""blueberry.png""]",blank.png,blank.png,blank.png,PB14.png,,,,,,,,,,,1,,,,,,,,,,,,743.0439999999944,,timeout,,,,,,,,,,,,,3,,,,,,,,,,,,,,,,,,,,,,,,,,,,,,,,,,,,,,,,,,,,,,,,,,,,,,,,,"[""blueberry.png""]","[""marshmallow.png""]",,,,5,,,false,,1,,,,,,,319704.28000018,319704.02,318954.038,319206.45500021055,319210.975,319954.019,,,,
choice,canvas.Screen,2_4_2_6_1_0_1_0_0_0_2,2021-01-16T10:41:20.979Z,,,blank.png,"[""marshmallow.png""]",blank.png,blank.png,blank.png,blank.png,blank.png,blank.png,blank.png,blank.png,blank.png,blank.png,blank.png,,,,,,,,,,,,,,,,,,,,,,,,,,,,,"[""marshmallow.png""]","[""blueberry.png""]",PB14.png,,,,,,,,,,,0,6,"[""blueberry.png""]","[""blueberry.png""]","[""blueberry.png""]","[""blueberry.png""]","[""blueberry.png""]","[""blueberry.png""]",blank.png,PB18.png,PB18.png,"[""blueberry.png""]","[""blueberry.png""]","[""blueberry.png""]",blank.png,blank.png,blank.png,"[""blueberry.png""]","[""blueberry.png""]","[""blueberry.png""]","[""blueberry.png""]","[""blueberry.png""]","[""blueberry.png""]",1,"[""marshmallow.png""]",blank.png,blank.png,blank.png,3,"[""blueberry.png""]","[""blueberry.png""]","[""blueberry.png""]",blank.png,blank.png,blank.png,PB14.png,,,,,,,,,,,1,,,,,,,,,,,,110.10600003355648,,response,,,,,,,,,,,,,3,,,,,,,,,,,,,,,,,,,,,,,,,,,,,,,,,,,,,,,,,,,,,,,,,,,,,,,,,"[""blueberry.png""]","[""marshmallow.png""]",,,,5,left,keydown(ArrowLeft),false,,1,,,,,,,320064.67500003055,320064.1250000335,319704.02,319951.90500002354,319954.019,320315.153,,8,,
square,canvas.Screen,2_4_2_6_1_0_1_0_0_0_3,2021-01-16T10:41:22.223Z,,,blank.png,"[""marshmallow.png""]",blank.png,blank.png,blank.png,blank.png,blank.png,blank.png,blank.png,blank.png,blank.png,blank.png,blank.png,,,,,,,,,,,,,,,,,,,,,,,,,,,,,"[""marshmallow.png""]","[""blueberry.png""]",PB14.png,,,,,,,,,,,0,6,"[""blueberry.png""]","[""blueberry.png""]","[""blueberry.png""]","[""blueberry.png""]","[""blueberry.png""]","[""blueberry.png""]",blank.png,PB18.png,PB18.png,"[""blueberry.png""]","[""blueberry.png""]","[""blueberry.png""]",blank.png,blank.png,blank.png,"[""blueberry.png""]","[""blueberry.png""]","[""blueberry.png""]","[""blueberry.png""]","[""blueberry.png""]","[""blueberry.png""]",1,"[""marshmallow.png""]",blank.png,blank.png,blank.png,3,"[""blueberry.png""]","[""blueberry.png""]","[""blueberry.png""]",blank.png,blank.png,blank.png,PB14.png,,,,,,,,,,,1,,#33ff3f,#808080,,,,,,,,,999.9949999999953,,timeout,,,,,,,,,,,,,3,,,,,,,,,,,,,,,,,,,,,,,,,,,,,,,,,,,,,,,,,,,,,,,,,,,,,,,,,"[""blueberry.png""]","[""marshmallow.png""]",,,,5,,,false,,1,,,,,black,white,321308.47500031814,321308.215,320308.164,320309.355000034,320315.153,321315.148,,,,
ITI_late,canvas.Screen,2_4_2_6_1_0_1_0_0_0_4,2021-01-16T10:41:22.724Z,,,blank.png,"[""marshmallow.png""]",blank.png,blank.png,blank.png,blank.png,blank.png,blank.png,blank.png,blank.png,blank.png,blank.png,blank.png,,,,,,,,,,,,,,,,,,,,,,,,,,,,,"[""marshmallow.png""]","[""blueberry.png""]",PB14.png,,,,,,,,,,,0,6,"[""blueberry.png""]","[""blueberry.png""]","[""blueberry.png""]","[""blueberry.png""]","[""blueberry.png""]","[""blueberry.png""]",blank.png,PB18.png,PB18.png,"[""blueberry.png""]","[""blueberry.png""]","[""blueberry.png""]",blank.png,blank.png,blank.png,"[""blueberry.png""]","[""blueberry.png""]","[""blueberry.png""]","[""blueberry.png""]","[""blueberry.png""]","[""blueberry.png""]",1,"[""marshmallow.png""]",blank.png,blank.png,blank.png,3,"[""blueberry.png""]","[""blueberry.png""]","[""blueberry.png""]",blank.png,blank.png,blank.png,PB14.png,,,,,,,,,,,1,,,,,,,,,,,,500,,timeout,,,,,,,,,,,,white,3,,,,,,,,,,,,,,,,,,,,,,,,,,,,,,,,,,,,,,,,,,,,,,,,,,,,,,,,,"[""blueberry.png""]","[""marshmallow.png""]",,,,5,,,false,,1,,,,,,,321808.8449998759,321808.203,321308.215,321309.39000006765,321315.148,321815.148,,,,
choice_sequence,flow.Sequence,2_4_2_6_1_0_1_0_0_0,2021-01-16T10:41:22.724Z,,,blank.png,"[""marshmallow.png""]",blank.png,blank.png,blank.png,blank.png,blank.png,blank.png,blank.png,blank.png,blank.png,blank.png,blank.png,,,,,,,,,,,,,,,,,,,,,,,,,,,,,"[""marshmallow.png""]","[""blueberry.png""]",PB14.png,,,,,,,,,,,0,6,"[""blueberry.png""]","[""blueberry.png""]","[""blueberry.png""]","[""blueberry.png""]","[""blueberry.png""]","[""blueberry.png""]",blank.png,PB18.png,PB18.png,"[""blueberry.png""]","[""blueberry.png""]","[""blueberry.png""]",blank.png,blank.png,blank.png,"[""blueberry.png""]","[""blueberry.png""]","[""blueberry.png""]","[""blueberry.png""]","[""blueberry.png""]","[""blueberry.png""]",1,"[""marshmallow.png""]",blank.png,blank.png,blank.png,3,"[""blueberry.png""]","[""blueberry.png""]","[""blueberry.png""]",blank.png,blank.png,blank.png,PB14.png,,,,,,,,,,,1,,,,,,,,,,,,3597.228999999992,,completion,,,,,,,,,,,,,3,,,,,,,,,,,,,,,,,,,,,,,,,,,,,,,,,,,,,,,,,,,,,,,,,,,,,,,,,"[""blueberry.png""]","[""marshmallow.png""]",,,,5,,,false,,1,,,,,,,321809.15499990806,321808.203,318204.035,318205.46000031754,318210.974,321815.148,,,,
fixCross,canvas.Screen,2_4_2_6_1_0_1_0_0_1_0,2021-01-16T10:41:23.223Z,,,blank.png,"[""marshmallow.png""]",blank.png,blank.png,blank.png,blank.png,blank.png,blank.png,blank.png,blank.png,blank.png,blank.png,blank.png,,,,,,,,,,,,,,,,,,,,,,,,,,,,,"[""marshmallow.png""]","[""blueberry.png""]",PB07.png,,,,,,,,,,,0,6,"[""blueberry.png""]","[""blueberry.png""]","[""blueberry.png""]","[""blueberry.png""]","[""blueberry.png""]","[""blueberry.png""]",blank.png,PB18.png,PB18.png,"[""blueberry.png""]",blank.png,blank.png,blank.png,blank.png,blank.png,"[""blueberry.png""]","[""blueberry.png""]","[""blueberry.png""]","[""blueberry.png""]","[""blueberry.png""]","[""blueberry.png""]",1,"[""marshmallow.png""]",blank.png,blank.png,blank.png,1,"[""blueberry.png""]",blank.png,blank.png,blank.png,blank.png,blank.png,PB07.png,,,,,,,,,,,1,,,,,,,,,,,,715.2609999999986,,timeout,,,,,,,,,,,,,3,,,,,,,,,,,,,,,,,,,,,,,,,,,,,,,,,,,,,,,,,,,,,,,,,,,,,,,,,"[""blueberry.png""]","[""marshmallow.png""]",,,,5,,,false,,1,,,,,,,322308.4599999711,322308.214,321808.203,321811.4550001919,321815.148,322530.409,9,,,
timeout,canvas.Screen,2_4_2_6_1_0_1_0_0_1_1,2021-01-16T10:41:23.938Z,,,blank.png,"[""marshmallow.png""]",blank.png,blank.png,blank.png,blank.png,blank.png,blank.png,blank.png,blank.png,blank.png,blank.png,blank.png,,,,,,,,,,,,,,,,,,,,,,,,,,,,,"[""marshmallow.png""]","[""blueberry.png""]",PB07.png,,,,,,,,,,,0,6,"[""blueberry.png""]","[""blueberry.png""]","[""blueberry.png""]","[""blueberry.png""]","[""blueberry.png""]","[""blueberry.png""]",blank.png,PB18.png,PB18.png,"[""blueberry.png""]",blank.png,blank.png,blank.png,blank.png,blank.png,"[""blueberry.png""]","[""blueberry.png""]","[""blueberry.png""]","[""blueberry.png""]","[""blueberry.png""]","[""blueberry.png""]",1,"[""marshmallow.png""]",blank.png,blank.png,blank.png,1,"[""blueberry.png""]",blank.png,blank.png,blank.png,blank.png,blank.png,PB07.png,,,,,,,,,,,1,,,,,,,,,,,,722.2119999999995,,timeout,,,,,,,,,,,,,3,,,,,,,,,,,,,,,,,,,,,,,,,,,,,,,,,,,,,,,,,,,,,,,,,,,,,,,,,"[""blueberry.png""]","[""marshmallow.png""]",,,,5,,,false,,1,,,,,,,323023.7400000915,323023.475,322308.214,322531.160000246,322530.409,323252.621,,,,
choice,canvas.Screen,2_4_2_6_1_0_1_0_0_1_2,2021-01-16T10:41:24.688Z,,,blank.png,"[""marshmallow.png""]",blank.png,blank.png,blank.png,blank.png,blank.png,blank.png,blank.png,blank.png,blank.png,blank.png,blank.png,,,,,,,,,,,,,,,,,,,,,,,,,,,,,"[""marshmallow.png""]","[""blueberry.png""]",PB07.png,,,,,,,,,,,0,6,"[""blueberry.png""]","[""blueberry.png""]","[""blueberry.png""]","[""blueberry.png""]","[""blueberry.png""]","[""blueberry.png""]",blank.png,PB18.png,PB18.png,"[""blueberry.png""]",blank.png,blank.png,blank.png,blank.png,blank.png,"[""blueberry.png""]","[""blueberry.png""]","[""blueberry.png""]","[""blueberry.png""]","[""blueberry.png""]","[""blueberry.png""]",1,"[""marshmallow.png""]",blank.png,blank.png,blank.png,1,"[""blueberry.png""]",blank.png,blank.png,blank.png,blank.png,blank.png,PB07.png,,,,,,,,,,,1,,,,,,,,,,,,520.5040002980386,,response,,,,,,,,,,,,,3,,,,,,,,,,,,,,,,,,,,,,,,,,,,,,,,,,,,,,,,,,,,,,,,,,,,,,,,,"[""blueberry.png""]","[""marshmallow.png""]",,,,5,left,keydown(ArrowLeft),false,,1,,,,,,,323773.7400000915,323773.125000298,323023.475,323248.02500009537,323252.621,323995.701,,9,,
square,canvas.Screen,2_4_2_6_1_0_1_0_0_1_3,2021-01-16T10:41:25.904Z,,,blank.png,"[""marshmallow.png""]",blank.png,blank.png,blank.png,blank.png,blank.png,blank.png,blank.png,blank.png,blank.png,blank.png,blank.png,,,,,,,,,,,,,,,,,,,,,,,,,,,,,"[""marshmallow.png""]","[""blueberry.png""]",PB07.png,,,,,,,,,,,0,6,"[""blueberry.png""]","[""blueberry.png""]","[""blueberry.png""]","[""blueberry.png""]","[""blueberry.png""]","[""blueberry.png""]",blank.png,PB18.png,PB18.png,"[""blueberry.png""]",blank.png,blank.png,blank.png,blank.png,blank.png,"[""blueberry.png""]","[""blueberry.png""]","[""blueberry.png""]","[""blueberry.png""]","[""blueberry.png""]","[""blueberry.png""]",1,"[""marshmallow.png""]",blank.png,blank.png,blank.png,1,"[""blueberry.png""]",blank.png,blank.png,blank.png,blank.png,blank.png,PB07.png,,,,,,,,,,,1,,#33ff3f,#808080,,,,,,,,,999.9780000000028,,timeout,,,,,,,,,,,,,3,,,,,,,,,,,,,,,,,,,,,,,,,,,,,,,,,,,,,,,,,,,,,,,,,,,,,,,,,"[""blueberry.png""]","[""marshmallow.png""]",,,,5,,,false,,1,,,,,black,white,324989.04999997467,324988.743,323988.706,323990.8900000155,323995.701,324995.679,,,,
ITI_late,canvas.Screen,2_4_2_6_1_0_1_0_0_1_4,2021-01-16T10:41:26.154Z,,,blank.png,"[""marshmallow.png""]",blank.png,blank.png,blank.png,blank.png,blank.png,blank.png,blank.png,blank.png,blank.png,blank.png,blank.png,,,,,,,,,,,,,,,,,,,,,,,,,,,,,"[""marshmallow.png""]","[""blueberry.png""]",PB07.png,,,,,,,,,,,0,6,"[""blueberry.png""]","[""blueberry.png""]","[""blueberry.png""]","[""blueberry.png""]","[""blueberry.png""]","[""blueberry.png""]",blank.png,PB18.png,PB18.png,"[""blueberry.png""]",blank.png,blank.png,blank.png,blank.png,blank.png,"[""blueberry.png""]","[""blueberry.png""]","[""blueberry.png""]","[""blueberry.png""]","[""blueberry.png""]","[""blueberry.png""]",1,"[""marshmallow.png""]",blank.png,blank.png,blank.png,1,"[""blueberry.png""]",blank.png,blank.png,blank.png,blank.png,blank.png,PB07.png,,,,,,,,,,,1,,,,,,,,,,,,250.00699999998324,,timeout,,,,,,,,,,,,white,3,,,,,,,,,,,,,,,,,,,,,,,,,,,,,,,,,,,,,,,,,,,,,,,,,,,,,,,,,"[""blueberry.png""]","[""marshmallow.png""]",,,,5,,,false,,1,,,,,,,325239.0950000845,325238.794,324988.743,324990.1550002396,324995.679,325245.686,,,,
choice_sequence,flow.Sequence,2_4_2_6_1_0_1_0_0_1,2021-01-16T10:41:26.154Z,,,blank.png,"[""marshmallow.png""]",blank.png,blank.png,blank.png,blank.png,blank.png,blank.png,blank.png,blank.png,blank.png,blank.png,blank.png,,,,,,,,,,,,,,,,,,,,,,,,,,,,,"[""marshmallow.png""]","[""blueberry.png""]",PB07.png,,,,,,,,,,,0,6,"[""blueberry.png""]","[""blueberry.png""]","[""blueberry.png""]","[""blueberry.png""]","[""blueberry.png""]","[""blueberry.png""]",blank.png,PB18.png,PB18.png,"[""blueberry.png""]",blank.png,blank.png,blank.png,blank.png,blank.png,"[""blueberry.png""]","[""blueberry.png""]","[""blueberry.png""]","[""blueberry.png""]","[""blueberry.png""]","[""blueberry.png""]",1,"[""marshmallow.png""]",blank.png,blank.png,blank.png,1,"[""blueberry.png""]",blank.png,blank.png,blank.png,blank.png,blank.png,PB07.png,,,,,,,,,,,1,,,,,,,,,,,,3423.646000000008,,completion,,,,,,,,,,,,,3,,,,,,,,,,,,,,,,,,,,,,,,,,,,,,,,,,,,,,,,,,,,,,,,,,,,,,,,,"[""blueberry.png""]","[""marshmallow.png""]",,,,5,,,false,,1,,,,,,,325239.42500026897,325238.794,321808.203,321811.06500001624,321815.148,325245.686,,,,
fixCross,canvas.Screen,2_4_2_6_1_0_1_0_0_2_0,2021-01-16T10:41:26.501Z,,,blank.png,"[""marshmallow.png""]",blank.png,blank.png,blank.png,blank.png,blank.png,blank.png,blank.png,blank.png,blank.png,blank.png,blank.png,,,,,,,,,,,,,,,,,,,,,,,,,,,,,"[""marshmallow.png""]","[""blueberry.png""]",PB16.png,,,,,,,,,,,0,6,"[""blueberry.png""]","[""blueberry.png""]","[""blueberry.png""]","[""blueberry.png""]","[""blueberry.png""]","[""blueberry.png""]",blank.png,PB18.png,PB18.png,"[""blueberry.png""]","[""blueberry.png""]","[""blueberry.png""]","[""blueberry.png""]","[""blueberry.png""]",blank.png,"[""blueberry.png""]","[""blueberry.png""]","[""blueberry.png""]","[""blueberry.png""]","[""blueberry.png""]","[""blueberry.png""]",1,"[""marshmallow.png""]",blank.png,blank.png,blank.png,5,"[""blueberry.png""]","[""blueberry.png""]","[""blueberry.png""]","[""blueberry.png""]","[""blueberry.png""]",blank.png,PB16.png,,,,,,,,,,,1,,,,,,,,,,,,618.0510000000359,,timeout,,,,,,,,,,,,,3,,,,,,,,,,,,,,,,,,,,,,,,,,,,,,,,,,,,,,,,,,,,,,,,,,,,,,,,,"[""blueberry.png""]","[""marshmallow.png""]",,,,5,,,false,,1,,,,,,,325586.2549999729,325585.974,325238.794,325241.82000011206,325245.686,325863.737,10,,,
