sender,sender_type,sender_id,timestamp,meta,,Blank,DownLeft1,DownLeft2,DownLeft3,DownLeft4,DownLeft5,DownLeft6,DownRight1,DownRight2,DownRight3,DownRight4,DownRight5,DownRight6,FoodHabits_Fru_item1,FoodHabits_Fru_item2,FoodHabits_Fru_item3,FoodHabits_Fru_item4,FoodHabits_Fru_item5,FoodHabits_Fru_item6,FoodHabits_Fru_item7,FoodHabits_Meat_item1,FoodHabits_Meat_item2,FoodHabits_Meat_item3,FoodHabits_Meat_item4,FoodHabits_Meat_item5,FoodHabits_Meat_item6,FoodHabits_Meat_item7,FoodHabits_Swe_item1,FoodHabits_Swe_item2,FoodHabits_Swe_item3,FoodHabits_Swe_item4,FoodHabits_Swe_item5,FoodHabits_Swe_item6,FoodHabits_Swe_item7,FoodHabits_Veg_item1,FoodHabits_Veg_item2,FoodHabits_Veg_item3,FoodHabits_Veg_item4,FoodHabits_Veg_item5,FoodHabits_Veg_item6,FoodHabits_Veg_item7,ImgA,ImgB,LeftBar,PSS_item01,PSS_item02,PSS_item03,PSS_item04,PSS_item05,PSS_item06,PSS_item07,PSS_item08,PSS_item09,PSS_item10,RefA,RefB,RefB1,RefB2,RefB3,RefB4,RefB5,RefB6,RefB7,Ref_PB,RightBar,UpLeft1,UpLeft2,UpLeft3,UpLeft4,UpLeft5,UpLeft6,UpRight1,UpRight2,UpRight3,UpRight4,UpRight5,UpRight6,VarA,VarA1,VarA2,VarA3,VarA4,VarB,VarB1,VarB2,VarB3,VarB4,VarB5,VarB6,Var_PB,attCheck_fileA,attCheck_fileB,attCheck_fileC,attCheck_fileD,attCheck_options,attCheck_valueA,attCheck_valueB,attCheck_valueC,attCheck_valueD,attention_check,block,browser_name,choseL,choseR,consent_form1,consent_form2,consentconfirmation_form1,consentconfirmation_form2,correct,correctResponse,diet,disorder,duration,edu,ended_on,enjoy,full_version,gender,group,hunger,img,imgTask,input_age,input_meal,input_occ,input_remark,lateRespFeed,list,major_version,message,mixQ_item1,mixQ_item2,mixQ_item3,mixQ_item4,mixQ_item5,name,navigator_appName,navigator_userAgent,os,pracQ1_IDa,pracQ1_IDb,pracQ1_IDc,pracQ1_IDd,pracQ1_optionA,pracQ1_optionB,pracQ1_optionC,pracQ1_optionD,pracQ1_valueA,pracQ1_valueB,pracQ1_valueC,pracQ1_valueD,pracQ2_IDa,pracQ2_IDb,pracQ2_IDc,pracQ2_optionA,pracQ2_optionB,pracQ2_optionC,pracQ2_valueA,pracQ2_valueB,pracQ2_valueC,pracQ4_IDa,pracQ4_IDb,pracQ4_IDc,pracQ4_IDd,pracQ4_optionA,pracQ4_optionB,pracQ4_optionC,pracQ4_optionD,pracQ4_valueA,pracQ4_valueB,pracQ4_valueC,pracQ4_valueD,pracQ5_IDa,pracQ5_IDb,pracQ5_IDc,pracQ5_IDd,pracQ5_optionA,pracQ5_optionB,pracQ5_optionC,pracQ5_optionD,pracQ5_valueA,pracQ5_valueB,pracQ5_valueC,pracQ5_valueD,prefHealty,prefUnhealthy,prolific_ID,psessionID,pstudyID,rep,response,response_action,skip,snack,sublock,subtitle,task_difficulty,task_engagement,task_focus,textL,textR,time_commit,time_end,time_render,time_run,time_show,time_switch,trial_count,trial_countO,url,valence
Title,html.Page,0,2021-01-14T18:56:17.557Z,"{""labjs_version"":""20.1.1"",""labjs_build"":{""flavor"":""production"",""commit"":""c48ac4ada3769e8d34489594ab03097d5f256ac7""},""location"":""https://run.pavlovia.org/E3lab/rebund/html/?PROLIFIC_PID={{%PROLIFIC_PID%}}&STUDY_ID={{%STUDY_ID%}}&SESSION_ID={{SESSION_ID%}}"",""userAgent"":""Mozilla/5.0 (Windows NT 10.0; Win64; x64) AppleWebKit/537.36 (KHTML, like Gecko) Chrome/87.0.4280.88 Safari/537.36 OPR/73.0.3856.284"",""platform"":""Win32"",""language"":""pl-PL"",""locale"":""pl"",""timeZone"":""Europe/Warsaw"",""timezoneOffset"":-60,""screen_width"":1536,""screen_height"":864,""scroll_width"":1536,""scroll_height"":706,""window_innerWidth"":1536,""window_innerHeight"":754,""devicePixelRatio"":1.25}",,,,,,,,,,,,,,,,,,,,,,,,,,,,,,,,,,,,,,,,,,,,,,,,,,,,,,,,,,,,,,,,,,,,,,,,,,,,,,,,,,,,,,,,,,,,,,,,,,,,,,,,,,,,,,,,,,10361.97500023961,,form submission,,,,,,,,,,,,,,,,,,,,,,,,,,,,,,,,,,,,,,,,,,,,,,,,,,,,,,,,,,,,,,,,,,,,,,,,,,,,,,,,,,,,,,,13631.535000167787,13630.78000023961,3068.875,3248.150000348687,3268.805,13933.627,,,"{""PROLIFIC_PID"":""{{%PROLIFIC_PID%}}"",""STUDY_ID"":""{{%STUDY_ID%}}"",""SESSION_ID"":""{{SESSION_ID%}}""}",
get_systemInfo,canvas.Screen,1,2021-01-14T18:56:17.878Z,,,,,,,,,,,,,,,,,,,,,,,,,,,,,,,,,,,,,,,,,,,,,,,,,,,,,,,,,,,,,,,,,,,,,,,,,,,,,,,,,,,,,,,,,,,,,,,,,,,,,,,,Opera,,,,,,,,,,,4298.904999999999,,timeout,,73.0.3856.284,,,,,,,,,,,,73,,,,,,,,Netscape,"Mozilla/5.0 (Windows NT 10.0; Win64; x64) AppleWebKit/537.36 (KHTML, like Gecko) Chrome/87.0.4280.88 Safari/537.36 OPR/73.0.3856.284",Windows,,,,,,,,,,,,,,,,,,,,,,,,,,,,,,,,,,,,,,,,,,,,,,,,{{%PROLIFIC_PID%}},,{{%STUDY_ID%}},,,,,,,,,,,,,13951.77000015974,13951.360000297427,13450.209,13632.77000002563,13933.627,18232.532,,,,
ConsentForm,html.Form,2_0,2021-01-14T18:57:40.731Z,,,,,,,,,,,,,,,,,,,,,,,,,,,,,,,,,,,,,,,,,,,,,,,,,,,,,,,,,,,,,,,,,,,,,,,,,,,,,,,,,,,,,,,,,,,,,,,,,,,,,,,,,,,true,true,,,,,,,78568.74299997615,,form submission,,,,,,,,,,,,,,,,,,,,,,,,,,,,,,,,,,,,,,,,,,,,,,,,,,,,,,,,,,,,,,,,,,,,,,,,,,,,,,,,,,,,,,,96801.80499982089,96801.27499997616,13951.360000297427,18242.139999754727,18232.532,96833.869,,,,
PepTalk,html.Page,2_1,2021-01-14T18:58:02.744Z,,,,,,,,,,,,,,,,,,,,,,,,,,,,,,,,,,,,,,,,,,,,,,,,,,,,,,,,,,,,,,,,,,,,,,,,,,,,,,,,,,,,,,,,,,,,,,,,,,,,,,,,,,,,,,,,,,,21980.99599961465,,form submission,,,,,,,,,,,,,,,,,,,,,,,,,,,,,,,,,,,,,,,,,,,,,,,,,,,,,,,,,,,,,,,,,,,,,,,,,,,,,,,,,,,,,,,118815.34500047565,118814.86499961466,96750.558,96802.03500017524,96833.869,118926.186,,,,
Demographics,html.Form,2_2,2021-01-14T18:58:23.664Z,,,,,,,,,,,,,,,,,,,,,,,,,,,,,,,,,,,,,,,,,,,,,,,,,,,,,,,,,,,,,,,,,,,,,,,,,,,,,,,,,,,,,,,,,,,,,,,,,,,,,,,,,,,,,,,,,,,20808.118999932645,2,form submission,,,2,,,,,20,,Poland,,,,,,,,,,,,,,,,,,,,,,,,,,,,,,,,,,,,,,,,,,,,,,,,,,,,,,,,,,,,,,,,,,,,,,,,,,,,,139734.6900003031,139734.30499993265,118809.184,118815.65999984741,118926.186,139799.628,,,,
InclusionCrit,html.Form,2_3,2021-01-14T18:58:32.828Z,,,,,,,,,,,,,,,,,,,,,,,,,,,,,,,,,,,,,,,,,,,,,,,,,,,,,,,,,,,,,,,,,,,,,,,,,,,,,,,,,,,,,,,,,,,,,,,,,,,,,,,,,,,,,,,,,1,1,9098.617000280443,,form submission,1,,,,,,,,,,,,,,,,,,,,,,,,,,,,,,,,,,,,,,,,,,,,,,,,,,,,,,,,,,,,,,,,,,,,,,,,,,,,,,,,,,,,,,148898.50999973714,148898.24500028044,139732.838,139734.9399998784,139799.628,148900.053,,,,
Selection,html.Page,2_4_0,2021-01-14T18:58:38.986Z,,,,,,,,,,,,,,,,,,,,,,,,,,,,,,,,,,,,,,,,,,,,,,,,,,,,,,,,,,,,,,,,,,,,,,,,,,,,,,,,,,,,,,,,,,,,,,,,,,,,,,,,,,,,,,,,,,,6156.8120001659845,,form submission,,,,,,,,,,,,,,,,,,,,,,,,,,,,,,,,,,,,,,,,,,,,,,,,,,,,,,,,,,,,,,,,,,,,,,,,,,,,,,,0,,,,,,,,155057.1800004691,155056.865000166,148883.486,148898.77500012517,148900.053,155196.459,,,,
Load,html.Page,2_4_1,2021-01-14T18:58:39.143Z,,,,,,,,,,,,,,,,,,,,,,,,,,,,,,,,,,,,,,,,,,,,,,,,,,,,,,,,,,,,,,,,,,,,,,,,,,,,,,,,,,,,,,,,,,,,,,,,,,,,,,,,,,,,,,,,,,,26105.628999999986,,timeout,,,,,,,,,,,,,,,,,,,,,,,,,,,,,,,,,,,,,,,,,,,,,,,,,,,,,,,,,,,,,,,,,,,,,,,,,,,,,,,,,,,,,,,155213.8550002128,155212.8349998966,155046.267,155057.37499985844,155196.459,181302.088,,,,
ratings_instructions,html.Screen,2_4_2_0,2021-01-14T18:59:35.757Z,,,,,,,,,,,,,,,,,,,,,,,,,,,,,,,,,,,,,,,,,,,,,,,,,,,,,,,,,,,,,,,,,,,,,,,,,,,,,,,,,,,,,,,,,,,,,,,,,,,,,,,,,,,,,,,,,,,30524.15200031502,,response,,,,,,,,,,,,,,,,,,,,,,,,,,,,,,,,,,,,,,,,,,,,,,,,,,,,,,,,,,,,,,,,,,,,,,,,,,,,continue,keypress(Space),false,,,,,,,,,211829.77499999106,211826.240000315,155212.8349998966,181510.06999984384,181302.088,212043.561,0,0,,
fixCross,canvas.Screen,2_4_2_1_0_0,2021-01-14T18:59:36.456Z,,,,,,,,,,,,,,,,,,,,,,,,,,,,,,,,,,,,,,,,,,,,,,,,,,,,,,,,,,,,,,,,,,,,,,,,,,,,,,,,,,,,,,,,,,,,,,,,,,,,,,,,,,,,,,,,,,,617.7460000000137,,timeout,,,,unhealthy,,m&m.png,,,,,,,,,,,,,,,m&m,,,,,,,,,,,,,,,,,,,,,,,,,,,,,,,,,,,,,,,,,,,,,,,,,,,,,,,,,false,,,,,,,,,212528.45500037074,212527.726,211825.625,211846.03499993682,212043.561,212661.307,,,,
Rating,html.Form,2_4_2_1_0_1,2021-01-14T18:59:44.291Z,,,,,,,,,,,,,,,,,,,,,,,,,,,,,,,,,,,,,,,,,,,,,,,,,,,,,,,,,,,,,,,,,,,,,,,,,,,,,,,,,,,,,,,,,,,,,,,,,,,,,,,,,,,,,,,,,,,7701.552999760985,,form submission,,,,unhealthy,,m&m.png,,,,,,,,,,,,,,,m&m,,,,,,,,,,,,,,,,,,,,,,,,,,,,,,,,,,,,,,,,,,,,,,,,,,,,,,,,,false,,,,,,,,,220363.33500035107,220362.85999976099,212527.726,212528.69000006467,212661.307,220359.655,,,,72
rating_sequence,flow.Sequence,2_4_2_1_0,2021-01-14T18:59:44.293Z,,,,,,,,,,,,,,,,,,,,,,,,,,,,,,,,,,,,,,,,,,,,,,,,,,,,,,,,,,,,,,,,,,,,,,,,,,,,,,,,,,,,,,,,,,,,,,,,,,,,,,,,,,,,,,,,,,,8319.298999760998,,completion,,,,unhealthy,,m&m.png,,,,,,,,,,,,,,,m&m,,,,,,,,,,,,,,,,,,,,,,,,,,,,,,,,,,,,,,,,,,,,,,,,,,,,,,,,,false,,,,,,,,,220365.71000050753,220362.85999976099,211825.625,211845.98500002176,212043.561,220359.655,,,,
fixCross,canvas.Screen,2_4_2_1_1_0,2021-01-14T18:59:44.773Z,,,,,,,,,,,,,,,,,,,,,,,,,,,,,,,,,,,,,,,,,,,,,,,,,,,,,,,,,,,,,,,,,,,,,,,,,,,,,,,,,,,,,,,,,,,,,,,,,,,,,,,,,,,,,,,,,,,500.82300000000396,,timeout,,,,unhealthy,,gummybear.png,,,,,,,,,,,,,,,gummybear,,,,,,,,,,,,,,,,,,,,,,,,,,,,,,,,,,,,,,,,,,,,,,,,,,,,,,,,,false,,,,,,,,,220845.52500024438,220843.798,220326.226,220365.9100001678,220359.655,220860.478,,,,
Rating,html.Form,2_4_2_1_1_1,2021-01-14T18:59:50.067Z,,,,,,,,,,,,,,,,,,,,,,,,,,,,,,,,,,,,,,,,,,,,,,,,,,,,,,,,,,,,,,,,,,,,,,,,,,,,,,,,,,,,,,,,,,,,,,,,,,,,,,,,,,,,,,,,,,,5278.491999738035,,form submission,,,,unhealthy,,gummybear.png,,,,,,,,,,,,,,,gummybear,,,,,,,,,,,,,,,,,,,,,,,,,,,,,,,,,,,,,,,,,,,,,,,,,,,,,,,,,false,,,,,,,,,226139.43499978632,226138.96999973804,220843.798,220845.80999985337,220860.478,226158.471,,,,72
rating_sequence,flow.Sequence,2_4_2_1_1,2021-01-14T18:59:50.067Z,,,,,,,,,,,,,,,,,,,,,,,,,,,,,,,,,,,,,,,,,,,,,,,,,,,,,,,,,,,,,,,,,,,,,,,,,,,,,,,,,,,,,,,,,,,,,,,,,,,,,,,,,,,,,,,,,,,5779.314999738039,,completion,,,,unhealthy,,gummybear.png,,,,,,,,,,,,,,,gummybear,,,,,,,,,,,,,,,,,,,,,,,,,,,,,,,,,,,,,,,,,,,,,,,,,,,,,,,,,false,,,,,,,,,226139.89500049502,226138.96999973804,220326.226,220365.8699998632,220359.655,226158.471,,,,
fixCross,canvas.Screen,2_4_2_1_2_0,2021-01-14T18:59:50.568Z,,,,,,,,,,,,,,,,,,,,,,,,,,,,,,,,,,,,,,,,,,,,,,,,,,,,,,,,,,,,,,,,,,,,,,,,,,,,,,,,,,,,,,,,,,,,,,,,,,,,,,,,,,,,,,,,,,,497.8889999999956,,timeout,,,,healthy,,raspberry.png,,,,,,,,,,,,,,,raspberry,,,,,,,,,,,,,,,,,,,,,,,,,,,,,,,,,,,,,,,,,,,,,,,,,,,,,,,,,false,,,,,,,,,226640.54500032216,226639.684,226121.886,226140.2150001377,226158.471,226656.36,,,,
Rating,html.Form,2_4_2_1_2_1,2021-01-14T18:59:54.819Z,,,,,,,,,,,,,,,,,,,,,,,,,,,,,,,,,,,,,,,,,,,,,,,,,,,,,,,,,,,,,,,,,,,,,,,,,,,,,,,,,,,,,,,,,,,,,,,,,,,,,,,,,,,,,,,,,,,4234.990000165417,,form submission,,,,healthy,,raspberry.png,,,,,,,,,,,,,,,raspberry,,,,,,,,,,,,,,,,,,,,,,,,,,,,,,,,,,,,,,,,,,,,,,,,,,,,,,,,,false,,,,,,,,,230891.60500001162,230891.3500001654,226639.684,226640.7800000161,226656.36,230882.356,,,,33
rating_sequence,flow.Sequence,2_4_2_1_2,2021-01-14T18:59:54.819Z,,,,,,,,,,,,,,,,,,,,,,,,,,,,,,,,,,,,,,,,,,,,,,,,,,,,,,,,,,,,,,,,,,,,,,,,,,,,,,,,,,,,,,,,,,,,,,,,,,,,,,,,,,,,,,,,,,,4732.879000165412,,completion,,,,healthy,,raspberry.png,,,,,,,,,,,,,,,raspberry,,,,,,,,,,,,,,,,,,,,,,,,,,,,,,,,,,,,,,,,,,,,,,,,,,,,,,,,,false,,,,,,,,,230891.85999985784,230891.3500001654,226121.886,226140.11999964714,226158.471,230882.356,,,,
fixCross,canvas.Screen,2_4_2_1_3_0,2021-01-14T18:59:55.295Z,,,,,,,,,,,,,,,,,,,,,,,,,,,,,,,,,,,,,,,,,,,,,,,,,,,,,,,,,,,,,,,,,,,,,,,,,,,,,,,,,,,,,,,,,,,,,,,,,,,,,,,,,,,,,,,,,,,501.10899999999674,,timeout,,,,unhealthy,,maltesers.png,,,,,,,,,,,,,,,malteser,,,,,,,,,,,,,,,,,,,,,,,,,,,,,,,,,,,,,,,,,,,,,,,,,,,,,,,,,false,,,,,,,,,231367.29499977082,231366.765,230865.5,230892.00500026345,230882.356,231383.465,,,,
Rating,html.Form,2_4_2_1_3_1,2021-01-14T18:59:59.095Z,,,,,,,,,,,,,,,,,,,,,,,,,,,,,,,,,,,,,,,,,,,,,,,,,,,,,,,,,,,,,,,,,,,,,,,,,,,,,,,,,,,,,,,,,,,,,,,,,,,,,,,,,,,,,,,,,,,3784.3750002419984,,form submission,,,,unhealthy,,maltesers.png,,,,,,,,,,,,,,,malteser,,,,,,,,,,,,,,,,,,,,,,,,,,,,,,,,,,,,,,,,,,,,,,,,,,,,,,,,,false,,,,,,,,,235168.09500008821,235167.840000242,231366.765,231367.480000481,231383.465,235192.232,,,,98
rating_sequence,flow.Sequence,2_4_2_1_3,2021-01-14T18:59:59.096Z,,,,,,,,,,,,,,,,,,,,,,,,,,,,,,,,,,,,,,,,,,,,,,,,,,,,,,,,,,,,,,,,,,,,,,,,,,,,,,,,,,,,,,,,,,,,,,,,,,,,,,,,,,,,,,,,,,,4285.484000241995,,completion,,,,unhealthy,,maltesers.png,,,,,,,,,,,,,,,malteser,,,,,,,,,,,,,,,,,,,,,,,,,,,,,,,,,,,,,,,,,,,,,,,,,,,,,,,,,false,,,,,,,,,235168.32000017166,235167.840000242,230865.5,230891.97000022978,230882.356,235192.232,,,,
fixCross,canvas.Screen,2_4_2_1_4_0,2021-01-14T18:59:59.604Z,,,,,,,,,,,,,,,,,,,,,,,,,,,,,,,,,,,,,,,,,,,,,,,,,,,,,,,,,,,,,,,,,,,,,,,,,,,,,,,,,,,,,,,,,,,,,,,,,,,,,,,,,,,,,,,,,,,500.9410000000207,,timeout,,,,unhealthy,,praline.png,,,,,,,,,,,,,,,praline,,,,,,,,,,,,,,,,,,,,,,,,,,,,,,,,,,,,,,,,,,,,,,,,,,,,,,,,,false,,,,,,,,,235677.19000019133,235676.584,235175.445,235168.46999991685,235192.232,235693.173,,,,
Rating,html.Form,2_4_2_1_4_1,2021-01-14T19:00:02.893Z,,,,,,,,,,,,,,,,,,,,,,,,,,,,,,,,,,,,,,,,,,,,,,,,,,,,,,,,,,,,,,,,,,,,,,,,,,,,,,,,,,,,,,,,,,,,,,,,,,,,,,,,,,,,,,,,,,,3272.182000458648,,form submission,,,,unhealthy,,praline.png,,,,,,,,,,,,,,,praline,,,,,,,,,,,,,,,,,,,,,,,,,,,,,,,,,,,,,,,,,,,,,,,,,,,,,,,,,false,,,,,,,,,238965.82499984652,238965.35500045866,235676.584,235677.33999993652,235693.173,238967.149,,,,68
rating_sequence,flow.Sequence,2_4_2_1_4,2021-01-14T19:00:02.893Z,,,,,,,,,,,,,,,,,,,,,,,,,,,,,,,,,,,,,,,,,,,,,,,,,,,,,,,,,,,,,,,,,,,,,,,,,,,,,,,,,,,,,,,,,,,,,,,,,,,,,,,,,,,,,,,,,,,3773.1230004586687,,completion,,,,unhealthy,,praline.png,,,,,,,,,,,,,,,praline,,,,,,,,,,,,,,,,,,,,,,,,,,,,,,,,,,,,,,,,,,,,,,,,,,,,,,,,,false,,,,,,,,,238966.18499979377,238965.35500045866,235175.445,235168.4200000018,235192.232,238967.149,,,,
fixCross,canvas.Screen,2_4_2_1_5_0,2021-01-14T19:00:03.380Z,,,,,,,,,,,,,,,,,,,,,,,,,,,,,,,,,,,,,,,,,,,,,,,,,,,,,,,,,,,,,,,,,,,,,,,,,,,,,,,,,,,,,,,,,,,,,,,,,,,,,,,,,,,,,,,,,,,501.1160000000091,,timeout,,,,unhealthy,,chocolate_truffle.png,,,,,,,,,,,,,,,chocolate truffle,,,,,,,,,,,,,,,,,,,,,,,,,,,,,,,,,,,,,,,,,,,,,,,,,,,,,,,,,false,,,,,,,,,239452.2449998185,239451.533,238950.365,238966.41500014812,238967.149,239468.265,,,,
Rating,html.Form,2_4_2_1_5_1,2021-01-14T19:00:08.036Z,,,,,,,,,,,,,,,,,,,,,,,,,,,,,,,,,,,,,,,,,,,,,,,,,,,,,,,,,,,,,,,,,,,,,,,,,,,,,,,,,,,,,,,,,,,,,,,,,,,,,,,,,,,,,,,,,,,4643.595000528381,,form submission,,,,unhealthy,,chocolate_truffle.png,,,,,,,,,,,,,,,chocolate truffle,,,,,,,,,,,,,,,,,,,,,,,,,,,,,,,,,,,,,,,,,,,,,,,,,,,,,,,,,false,,,,,,,,,244112.2599998489,244111.8600005284,239451.533,239452.44000013918,239468.265,244136,,,,59
rating_sequence,flow.Sequence,2_4_2_1_5,2021-01-14T19:00:08.036Z,,,,,,,,,,,,,,,,,,,,,,,,,,,,,,,,,,,,,,,,,,,,,,,,,,,,,,,,,,,,,,,,,,,,,,,,,,,,,,,,,,,,,,,,,,,,,,,,,,,,,,,,,,,,,,,,,,,5144.71100052839,,completion,,,,unhealthy,,chocolate_truffle.png,,,,,,,,,,,,,,,chocolate truffle,,,,,,,,,,,,,,,,,,,,,,,,,,,,,,,,,,,,,,,,,,,,,,,,,,,,,,,,,false,,,,,,,,,244112.67499998212,244111.8600005284,238950.365,238966.35000035167,238967.149,244136,,,,
fixCross,canvas.Screen,2_4_2_1_6_0,2021-01-14T19:00:08.538Z,,,,,,,,,,,,,,,,,,,,,,,,,,,,,,,,,,,,,,,,,,,,,,,,,,,,,,,,,,,,,,,,,,,,,,,,,,,,,,,,,,,,,,,,,,,,,,,,,,,,,,,,,,,,,,,,,,,493.81700000001,,timeout,,,,unhealthy,,candy.png,,,,,,,,,,,,,,,candy,,,,,,,,,,,,,,,,,,,,,,,,,,,,,,,,,,,,,,,,,,,,,,,,,,,,,,,,,false,,,,,,,,,244613.9949997887,244613.101,244095.2,244112.8650000319,244136,244629.817,,,,
Rating,html.Form,2_4_2_1_6_1,2021-01-14T19:00:13.034Z,,,,,,,,,,,,,,,,,,,,,,,,,,,,,,,,,,,,,,,,,,,,,,,,,,,,,,,,,,,,,,,,,,,,,,,,,,,,,,,,,,,,,,,,,,,,,,,,,,,,,,,,,,,,,,,,,,,4479.9529999809165,,form submission,,,,unhealthy,,candy.png,,,,,,,,,,,,,,,candy,,,,,,,,,,,,,,,,,,,,,,,,,,,,,,,,,,,,,,,,,,,,,,,,,,,,,,,,,false,,,,,,,,,249110.0899996236,249109.76999998093,244613.101,244614.33500051498,244629.817,249122.681,,,,40
rating_sequence,flow.Sequence,2_4_2_1_6,2021-01-14T19:00:13.034Z,,,,,,,,,,,,,,,,,,,,,,,,,,,,,,,,,,,,,,,,,,,,,,,,,,,,,,,,,,,,,,,,,,,,,,,,,,,,,,,,,,,,,,,,,,,,,,,,,,,,,,,,,,,,,,,,,,,4973.7699999809265,,completion,,,,unhealthy,,candy.png,,,,,,,,,,,,,,,candy,,,,,,,,,,,,,,,,,,,,,,,,,,,,,,,,,,,,,,,,,,,,,,,,,,,,,,,,,false,,,,,,,,,249110.44500023127,249109.76999998093,244095.2,244112.81500011683,244136,249122.681,,,,
fixCross,canvas.Screen,2_4_2_1_7_0,2021-01-14T19:00:13.532Z,,,,,,,,,,,,,,,,,,,,,,,,,,,,,,,,,,,,,,,,,,,,,,,,,,,,,,,,,,,,,,,,,,,,,,,,,,,,,,,,,,,,,,,,,,,,,,,,,,,,,,,,,,,,,,,,,,,501.05199999999604,,timeout,,,,healthy,,apple.png,,,,,,,,,,,,,,,apple,,,,,,,,,,,,,,,,,,,,,,,,,,,,,,,,,,,,,,,,,,,,,,,,,,,,,,,,,false,,,,,,,,,249607.97000024468,249607.184,249105.962,249110.70999968797,249122.681,249623.733,,,,
Rating,html.Form,2_4_2_1_7_1,2021-01-14T19:00:16.620Z,,,,,,,,,,,,,,,,,,,,,,,,,,,,,,,,,,,,,,,,,,,,,,,,,,,,,,,,,,,,,,,,,,,,,,,,,,,,,,,,,,,,,,,,,,,,,,,,,,,,,,,,,,,,,,,,,,,3072.2219998864457,,form submission,,,,healthy,,apple.png,,,,,,,,,,,,,,,apple,,,,,,,,,,,,,,,,,,,,,,,,,,,,,,,,,,,,,,,,,,,,,,,,,,,,,,,,,false,,,,,,,,,252696.24499976635,252695.95499988645,249607.184,249608.18499978632,249623.733,252713.338,,,,68
rating_sequence,flow.Sequence,2_4_2_1_7,2021-01-14T19:00:16.620Z,,,,,,,,,,,,,,,,,,,,,,,,,,,,,,,,,,,,,,,,,,,,,,,,,,,,,,,,,,,,,,,,,,,,,,,,,,,,,,,,,,,,,,,,,,,,,,,,,,,,,,,,,,,,,,,,,,,3573.2739998864417,,completion,,,,healthy,,apple.png,,,,,,,,,,,,,,,apple,,,,,,,,,,,,,,,,,,,,,,,,,,,,,,,,,,,,,,,,,,,,,,,,,,,,,,,,,false,,,,,,,,,252696.4900000021,252695.95499988645,249105.962,249110.63500028104,249122.681,252713.338,,,,
fixCross,canvas.Screen,2_4_2_1_8_0,2021-01-14T19:00:17.122Z,,,,,,,,,,,,,,,,,,,,,,,,,,,,,,,,,,,,,,,,,,,,,,,,,,,,,,,,,,,,,,,,,,,,,,,,,,,,,,,,,,,,,,,,,,,,,,,,,,,,,,,,,,,,,,,,,,,500.96000000002095,,timeout,,,,healthy,,blueberry.png,,,,,,,,,,,,,,,blueberry,,,,,,,,,,,,,,,,,,,,,,,,,,,,,,,,,,,,,,,,,,,,,,,,,,,,,,,,,false,,,,,,,,,253198.4949996695,253197.626,252696.678,252696.65000028908,252713.338,253214.298,,,,
Rating,html.Form,2_4_2_1_8_1,2021-01-14T19:00:20.546Z,,,,,,,,,,,,,,,,,,,,,,,,,,,,,,,,,,,,,,,,,,,,,,,,,,,,,,,,,,,,,,,,,,,,,,,,,,,,,,,,,,,,,,,,,,,,,,,,,,,,,,,,,,,,,,,,,,,3407.6569998640916,,form submission,,,,healthy,,blueberry.png,,,,,,,,,,,,,,,blueberry,,,,,,,,,,,,,,,,,,,,,,,,,,,,,,,,,,,,,,,,,,,,,,,,,,,,,,,,,false,,,,,,,,,256622.16500006616,256621.9549998641,253197.626,253198.73499963433,253214.298,256637.835,,,,59
rating_sequence,flow.Sequence,2_4_2_1_8,2021-01-14T19:00:20.546Z,,,,,,,,,,,,,,,,,,,,,,,,,,,,,,,,,,,,,,,,,,,,,,,,,,,,,,,,,,,,,,,,,,,,,,,,,,,,,,,,,,,,,,,,,,,,,,,,,,,,,,,,,,,,,,,,,,,3908.6169998641126,,completion,,,,healthy,,blueberry.png,,,,,,,,,,,,,,,blueberry,,,,,,,,,,,,,,,,,,,,,,,,,,,,,,,,,,,,,,,,,,,,,,,,,,,,,,,,,false,,,,,,,,,256622.34999984503,256621.9549998641,252696.678,252696.6049997136,252713.338,256637.835,,,,
fixCross,canvas.Screen,2_4_2_1_9_0,2021-01-14T19:00:21.046Z,,,,,,,,,,,,,,,,,,,,,,,,,,,,,,,,,,,,,,,,,,,,,,,,,,,,,,,,,,,,,,,,,,,,,,,,,,,,,,,,,,,,,,,,,,,,,,,,,,,,,,,,,,,,,,,,,,,500.7740000000049,,timeout,,,,healthy,,pear.png,,,,,,,,,,,,,,,pear,,,,,,,,,,,,,,,,,,,,,,,,,,,,,,,,,,,,,,,,,,,,,,,,,,,,,,,,,false,,,,,,,,,257122.8200001642,257121.925,256620.91,256622.48999997973,256637.835,257138.609,,,,
Rating,html.Form,2_4_2_1_9_1,2021-01-14T19:00:25.757Z,,,,,,,,,,,,,,,,,,,,,,,,,,,,,,,,,,,,,,,,,,,,,,,,,,,,,,,,,,,,,,,,,,,,,,,,,,,,,,,,,,,,,,,,,,,,,,,,,,,,,,,,,,,,,,,,,,,4694.076000263158,,form submission,,,,healthy,,pear.png,,,,,,,,,,,,,,,pear,,,,,,,,,,,,,,,,,,,,,,,,,,,,,,,,,,,,,,,,,,,,,,,,,,,,,,,,,false,,,,,,,,,261832.96500053257,261832.68500026315,257121.925,257123.1249999255,257138.609,261847.688,,,,30
rating_sequence,flow.Sequence,2_4_2_1_9,2021-01-14T19:00:25.757Z,,,,,,,,,,,,,,,,,,,,,,,,,,,,,,,,,,,,,,,,,,,,,,,,,,,,,,,,,,,,,,,,,,,,,,,,,,,,,,,,,,,,,,,,,,,,,,,,,,,,,,,,,,,,,,,,,,,5194.850000263163,,completion,,,,healthy,,pear.png,,,,,,,,,,,,,,,pear,,,,,,,,,,,,,,,,,,,,,,,,,,,,,,,,,,,,,,,,,,,,,,,,,,,,,,,,,false,,,,,,,,,261833.2000002265,261832.68500026315,256620.91,256622.44999967515,256637.835,261847.688,,,,
fixCross,canvas.Screen,2_4_2_1_10_0,2021-01-14T19:00:26.256Z,,,,,,,,,,,,,,,,,,,,,,,,,,,,,,,,,,,,,,,,,,,,,,,,,,,,,,,,,,,,,,,,,,,,,,,,,,,,,,,,,,,,,,,,,,,,,,,,,,,,,,,,,,,,,,,,,,,500.94200000001,,timeout,,,,healthy,,cherry.png,,,,,,,,,,,,,,,cherry,,,,,,,,,,,,,,,,,,,,,,,,,,,,,,,,,,,,,,,,,,,,,,,,,,,,,,,,,false,,,,,,,,,262332.7449997887,262332.06,261830.939,261833.3550002426,261847.688,262348.63,,,,
Rating,html.Form,2_4_2_1_10_1,2021-01-14T19:00:29.374Z,,,,,,,,,,,,,,,,,,,,,,,,,,,,,,,,,,,,,,,,,,,,,,,,,,,,,,,,,,,,,,,,,,,,,,,,,,,,,,,,,,,,,,,,,,,,,,,,,,,,,,,,,,,,,,,,,,,3101.0600001540734,,form submission,,,,healthy,,cherry.png,,,,,,,,,,,,,,,cherry,,,,,,,,,,,,,,,,,,,,,,,,,,,,,,,,,,,,,,,,,,,,,,,,,,,,,,,,,false,,,,,,,,,265449.924999848,265449.6900001541,262332.06,262332.8900001943,262348.63,265454.504,,,,63
rating_sequence,flow.Sequence,2_4_2_1_10,2021-01-14T19:00:29.374Z,,,,,,,,,,,,,,,,,,,,,,,,,,,,,,,,,,,,,,,,,,,,,,,,,,,,,,,,,,,,,,,,,,,,,,,,,,,,,,,,,,,,,,,,,,,,,,,,,,,,,,,,,,,,,,,,,,,3602.0020001540834,,completion,,,,healthy,,cherry.png,,,,,,,,,,,,,,,cherry,,,,,,,,,,,,,,,,,,,,,,,,,,,,,,,,,,,,,,,,,,,,,,,,,,,,,,,,,false,,,,,,,,,265450.1200001687,265449.6900001541,261830.939,261833.30500032753,261847.688,265454.504,,,,
fixCross,canvas.Screen,2_4_2_1_11_0,2021-01-14T19:00:29.863Z,,,,,,,,,,,,,,,,,,,,,,,,,,,,,,,,,,,,,,,,,,,,,,,,,,,,,,,,,,,,,,,,,,,,,,,,,,,,,,,,,,,,,,,,,,,,,,,,,,,,,,,,,,,,,,,,,,,500.82199999998556,,timeout,,,,unhealthy,,marshmallow.png,,,,,,,,,,,,,,,marshmallow,,,,,,,,,,,,,,,,,,,,,,,,,,,,,,,,,,,,,,,,,,,,,,,,,,,,,,,,,false,,,,,,,,,265939.5350003615,265938.78,265437.625,265450.2600003034,265454.504,265955.326,,,,
Rating,html.Form,2_4_2_1_11_1,2021-01-14T19:00:33.376Z,,,,,,,,,,,,,,,,,,,,,,,,,,,,,,,,,,,,,,,,,,,,,,,,,,,,,,,,,,,,,,,,,,,,,,,,,,,,,,,,,,,,,,,,,,,,,,,,,,,,,,,,,,,,,,,,,,,3496.5039996852865,,form submission,,,,unhealthy,,marshmallow.png,,,,,,,,,,,,,,,marshmallow,,,,,,,,,,,,,,,,,,,,,,,,,,,,,,,,,,,,,,,,,,,,,,,,,,,,,,,,,false,,,,,,,,,269452.2400004789,269451.8299996853,265938.78,265939.76499978453,265955.326,269461.896,,,,12
rating_sequence,flow.Sequence,2_4_2_1_11,2021-01-14T19:00:33.376Z,,,,,,,,,,,,,,,,,,,,,,,,,,,,,,,,,,,,,,,,,,,,,,,,,,,,,,,,,,,,,,,,,,,,,,,,,,,,,,,,,,,,,,,,,,,,,,,,,,,,,,,,,,,,,,,,,,,3997.325999685272,,completion,,,,unhealthy,,marshmallow.png,,,,,,,,,,,,,,,marshmallow,,,,,,,,,,,,,,,,,,,,,,,,,,,,,,,,,,,,,,,,,,,,,,,,,,,,,,,,,false,,,,,,,,,269452.64500007033,269451.8299996853,265437.625,265450.2250002697,265454.504,269461.896,,,,
fixCross,canvas.Screen,2_4_2_1_12_0,2021-01-14T19:00:33.871Z,,,,,,,,,,,,,,,,,,,,,,,,,,,,,,,,,,,,,,,,,,,,,,,,,,,,,,,,,,,,,,,,,,,,,,,,,,,,,,,,,,,,,,,,,,,,,,,,,,,,,,,,,,,,,,,,,,,500.8269999999902,,timeout,,,,healthy,,strawberry.png,,,,,,,,,,,,,,,strawberry,,,,,,,,,,,,,,,,,,,,,,,,,,,,,,,,,,,,,,,,,,,,,,,,,,,,,,,,,false,,,,,,,,,269947.5100003183,269946.15,269444.961,269452.9499998316,269461.896,269962.723,,,,
Rating,html.Form,2_4_2_1_12_1,2021-01-14T19:00:40.708Z,,,,,,,,,,,,,,,,,,,,,,,,,,,,,,,,,,,,,,,,,,,,,,,,,,,,,,,,,,,,,,,,,,,,,,,,,,,,,,,,,,,,,,,,,,,,,,,,,,,,,,,,,,,,,,,,,,,6821.066999783041,,form submission,,,,healthy,,strawberry.png,,,,,,,,,,,,,,,strawberry,,,,,,,,,,,,,,,,,,,,,,,,,,,,,,,,,,,,,,,,,,,,,,,,,,,,,,,,,false,,,,,,,,,276784.09000020474,276783.78999978304,269946.15,269947.6399999112,269962.723,276792.025,,,,75
rating_sequence,flow.Sequence,2_4_2_1_12,2021-01-14T19:00:40.708Z,,,,,,,,,,,,,,,,,,,,,,,,,,,,,,,,,,,,,,,,,,,,,,,,,,,,,,,,,,,,,,,,,,,,,,,,,,,,,,,,,,,,,,,,,,,,,,,,,,,,,,,,,,,,,,,,,,,7321.893999783031,,completion,,,,healthy,,strawberry.png,,,,,,,,,,,,,,,strawberry,,,,,,,,,,,,,,,,,,,,,,,,,,,,,,,,,,,,,,,,,,,,,,,,,,,,,,,,,false,,,,,,,,,276784.4099998474,276783.78999978304,269444.961,269452.8649998829,269461.896,276792.025,,,,
fixCross,canvas.Screen,2_4_2_1_13_0,2021-01-14T19:00:41.200Z,,,,,,,,,,,,,,,,,,,,,,,,,,,,,,,,,,,,,,,,,,,,,,,,,,,,,,,,,,,,,,,,,,,,,,,,,,,,,,,,,,,,,,,,,,,,,,,,,,,,,,,,,,,,,,,,,,,500.54999999998836,,timeout,,,,healthy,,grape.png,,,,,,,,,,,,,,,grape,,,,,,,,,,,,,,,,,,,,,,,,,,,,,,,,,,,,,,,,,,,,,,,,,,,,,,,,,false,,,,,,,,,277276.4999996871,277275.869,276774.848,276784.65500008315,276792.025,277292.575,,,,
Rating,html.Form,2_4_2_1_13_1,2021-01-14T19:00:45.458Z,,,,,,,,,,,,,,,,,,,,,,,,,,,,,,,,,,,,,,,,,,,,,,,,,,,,,,,,,,,,,,,,,,,,,,,,,,,,,,,,,,,,,,,,,,,,,,,,,,,,,,,,,,,,,,,,,,,4241.295000392187,,form submission,,,,healthy,,grape.png,,,,,,,,,,,,,,,grape,,,,,,,,,,,,,,,,,,,,,,,,,,,,,,,,,,,,,,,,,,,,,,,,,,,,,,,,,false,,,,,,,,,281534.1199999675,281533.8700003922,277275.869,277276.70999988914,277292.575,281551.598,,,,66
rating_sequence,flow.Sequence,2_4_2_1_13,2021-01-14T19:00:45.458Z,,,,,,,,,,,,,,,,,,,,,,,,,,,,,,,,,,,,,,,,,,,,,,,,,,,,,,,,,,,,,,,,,,,,,,,,,,,,,,,,,,,,,,,,,,,,,,,,,,,,,,,,,,,,,,,,,,,4741.845000392175,,completion,,,,healthy,,grape.png,,,,,,,,,,,,,,,grape,,,,,,,,,,,,,,,,,,,,,,,,,,,,,,,,,,,,,,,,,,,,,,,,,,,,,,,,,false,,,,,,,,,281534.3350004405,281533.8700003922,276774.848,276784.5949996263,276792.025,281551.598,,,,
fixCross,canvas.Screen,2_4_2_1_14_0,2021-01-14T19:00:45.960Z,,,,,,,,,,,,,,,,,,,,,,,,,,,,,,,,,,,,,,,,,,,,,,,,,,,,,,,,,,,,,,,,,,,,,,,,,,,,,,,,,,,,,,,,,,,,,,,,,,,,,,,,,,,,,,,,,,,500.7870000000112,,timeout,,,,healthy,,orange.png,,,,,,,,,,,,,,,orange,,,,,,,,,,,,,,,,,,,,,,,,,,,,,,,,,,,,,,,,,,,,,,,,,,,,,,,,,false,,,,,,,,,282036.600000225,282035.71,281534.696,281534.48500018567,281551.598,282052.385,,,,
Rating,html.Form,2_4_2_1_14_1,2021-01-14T19:00:49.432Z,,,,,,,,,,,,,,,,,,,,,,,,,,,,,,,,,,,,,,,,,,,,,,,,,,,,,,,,,,,,,,,,,,,,,,,,,,,,,,,,,,,,,,,,,,,,,,,,,,,,,,,,,,,,,,,,,,,3455.4900001266506,,form submission,,,,healthy,,orange.png,,,,,,,,,,,,,,,orange,,,,,,,,,,,,,,,,,,,,,,,,,,,,,,,,,,,,,,,,,,,,,,,,,,,,,,,,,false,,,,,,,,,285508.2250004634,285507.87500012666,282035.71,282036.7400003597,282052.385,285509.404,,,,29
rating_sequence,flow.Sequence,2_4_2_1_14,2021-01-14T19:00:49.432Z,,,,,,,,,,,,,,,,,,,,,,,,,,,,,,,,,,,,,,,,,,,,,,,,,,,,,,,,,,,,,,,,,,,,,,,,,,,,,,,,,,,,,,,,,,,,,,,,,,,,,,,,,,,,,,,,,,,3956.2770001266617,,completion,,,,healthy,,orange.png,,,,,,,,,,,,,,,orange,,,,,,,,,,,,,,,,,,,,,,,,,,,,,,,,,,,,,,,,,,,,,,,,,,,,,,,,,false,,,,,,,,,285508.57499986887,285507.87500012666,281534.696,281534.4449998811,281551.598,285509.404,,,,
fixCross,canvas.Screen,2_4_2_1_15_0,2021-01-14T19:00:49.918Z,,,,,,,,,,,,,,,,,,,,,,,,,,,,,,,,,,,,,,,,,,,,,,,,,,,,,,,,,,,,,,,,,,,,,,,,,,,,,,,,,,,,,,,,,,,,,,,,,,,,,,,,,,,,,,,,,,,501.05000000004657,,timeout,,,,unhealthy,,chocolate.png,,,,,,,,,,,,,,,chocolate,,,,,,,,,,,,,,,,,,,,,,,,,,,,,,,,,,,,,,,,,,,,,,,,,,,,,,,,,false,,,,,,,,,285994.2500004545,285993.736,285492.64,285508.8499998674,285509.404,286010.454,,,,
Rating,html.Form,2_4_2_1_15_1,2021-01-14T19:00:54.615Z,,,,,,,,,,,,,,,,,,,,,,,,,,,,,,,,,,,,,,,,,,,,,,,,,,,,,,,,,,,,,,,,,,,,,,,,,,,,,,,,,,,,,,,,,,,,,,,,,,,,,,,,,,,,,,,,,,,4680.2810001856415,,form submission,,,,unhealthy,,chocolate.png,,,,,,,,,,,,,,,chocolate,,,,,,,,,,,,,,,,,,,,,,,,,,,,,,,,,,,,,,,,,,,,,,,,,,,,,,,,,false,,,,,,,,,290691.04500021785,290690.73500018567,285993.736,285994.3700004369,286010.454,290703.589,,,,98
rating_sequence,flow.Sequence,2_4_2_1_15,2021-01-14T19:00:54.615Z,,,,,,,,,,,,,,,,,,,,,,,,,,,,,,,,,,,,,,,,,,,,,,,,,,,,,,,,,,,,,,,,,,,,,,,,,,,,,,,,,,,,,,,,,,,,,,,,,,,,,,,,,,,,,,,,,,,5181.331000185688,,completion,,,,unhealthy,,chocolate.png,,,,,,,,,,,,,,,chocolate,,,,,,,,,,,,,,,,,,,,,,,,,,,,,,,,,,,,,,,,,,,,,,,,,,,,,,,,,false,,,,,,,,,290691.34000036865,290690.73500018567,285492.64,285508.7799998,285509.404,290703.589,,,,
fixCross,canvas.Screen,2_4_2_1_16_0,2021-01-14T19:00:55.112Z,,,,,,,,,,,,,,,,,,,,,,,,,,,,,,,,,,,,,,,,,,,,,,,,,,,,,,,,,,,,,,,,,,,,,,,,,,,,,,,,,,,,,,,,,,,,,,,,,,,,,,,,,,,,,,,,,,,501.1260000000475,,timeout,,,,healthy,,coconut.png,,,,,,,,,,,,,,,coconut,,,,,,,,,,,,,,,,,,,,,,,,,,,,,,,,,,,,,,,,,,,,,,,,,,,,,,,,,false,,,,,,,,,291188.57999984175,291187.991,290686.752,290691.51500053704,290703.589,291204.715,,,,
Rating,html.Form,2_4_2_1_16_1,2021-01-14T19:00:59.497Z,,,,,,,,,,,,,,,,,,,,,,,,,,,,,,,,,,,,,,,,,,,,,,,,,,,,,,,,,,,,,,,,,,,,,,,,,,,,,,,,,,,,,,,,,,,,,,,,,,,,,,,,,,,,,,,,,,,4368.2050001805765,,form submission,,,,healthy,,coconut.png,,,,,,,,,,,,,,,coconut,,,,,,,,,,,,,,,,,,,,,,,,,,,,,,,,,,,,,,,,,,,,,,,,,,,,,,,,,false,,,,,,,,,295573.28000012785,295572.9200001806,291187.991,291188.70500009507,291204.715,295580.209,,,,16
rating_sequence,flow.Sequence,2_4_2_1_16,2021-01-14T19:00:59.497Z,,,,,,,,,,,,,,,,,,,,,,,,,,,,,,,,,,,,,,,,,,,,,,,,,,,,,,,,,,,,,,,,,,,,,,,,,,,,,,,,,,,,,,,,,,,,,,,,,,,,,,,,,,,,,,,,,,,4869.331000180624,,completion,,,,healthy,,coconut.png,,,,,,,,,,,,,,,coconut,,,,,,,,,,,,,,,,,,,,,,,,,,,,,,,,,,,,,,,,,,,,,,,,,,,,,,,,,false,,,,,,,,,295573.6199999228,295572.9200001806,290686.752,290691.4600003511,290703.589,295580.209,,,,
fixCross,canvas.Screen,2_4_2_1_17_0,2021-01-14T19:00:59.989Z,,,,,,,,,,,,,,,,,,,,,,,,,,,,,,,,,,,,,,,,,,,,,,,,,,,,,,,,,,,,,,,,,,,,,,,,,,,,,,,,,,,,,,,,,,,,,,,,,,,,,,,,,,,,,,,,,,,500.6910000000498,,timeout,,,,unhealthy,,liqorice.png,,,,,,,,,,,,,,,liquorice,,,,,,,,,,,,,,,,,,,,,,,,,,,,,,,,,,,,,,,,,,,,,,,,,,,,,,,,,false,,,,,,,,,296065.3950003907,296064.36,295563.186,295573.87499976903,295580.209,296080.9,,,,
Rating,html.Form,2_4_2_1_17_1,2021-01-14T19:01:03.295Z,,,,,,,,,,,,,,,,,,,,,,,,,,,,,,,,,,,,,,,,,,,,,,,,,,,,,,,,,,,,,,,,,,,,,,,,,,,,,,,,,,,,,,,,,,,,,,,,,,,,,,,,,,,,,,,,,,,3290.050000360585,,form submission,,,,unhealthy,,liqorice.png,,,,,,,,,,,,,,,liquorice,,,,,,,,,,,,,,,,,,,,,,,,,,,,,,,,,,,,,,,,,,,,,,,,,,,,,,,,,false,,,,,,,,,299371.2750002742,299370.9500003606,296064.36,296065.59500005096,296080.9,299821.519,,,,7
rating_sequence,flow.Sequence,2_4_2_1_17,2021-01-14T19:01:03.295Z,,,,,,,,,,,,,,,,,,,,,,,,,,,,,,,,,,,,,,,,,,,,,,,,,,,,,,,,,,,,,,,,,,,,,,,,,,,,,,,,,,,,,,,,,,,,,,,,,,,,,,,,,,,,,,,,,,,3790.7410003606346,,completion,,,,unhealthy,,liqorice.png,,,,,,,,,,,,,,,liquorice,,,,,,,,,,,,,,,,,,,,,,,,,,,,,,,,,,,,,,,,,,,,,,,,,,,,,,,,,false,,,,,,,,,299371.5049996972,299370.9500003606,295563.186,295573.8049997017,295580.209,299821.519,,,,
rating_loop,flow.Loop,2_4_2_1,2021-01-14T19:01:03.295Z,,,,,,,,,,,,,,,,,,,,,,,,,,,,,,,,,,,,,,,,,,,,,,,,,,,,,,,,,,,,,,,,,,,,,,,,,,,,,,,,,,,,,,,,,,,,,,,,,,,,,,,,,,,,,,,,,,,87327.38900036062,,completion,,,,,,,,,,,,,,,,,,,,,,,,,,,,,,,,,,,,,,,,,,,,,,,,,,,,,,,,,,,,,,,,,,,,,,,,,,,,,,false,,,,,,,,,299371.71499989927,299370.9500003606,211825.625,211845.90500034392,212043.561,299821.519,,,,
data_transmission,html.Screen,2_4_2_2,2021-01-14T19:01:03.578Z,,,,,,,,,,,,,,,,,,,,,,,,,,,,,,,,,,,,,,,,,,,,,,,,,,,,,,,,,,,,,,,,,,,,,,,,,,,,,,,,,,,,,,,,,,,,,,,,,,,,,,,,,,,,,,,,,,,NaN,,no compatible backend,,,,,,,,,,,,,,,Transferring data,,,,,,,,,,,,,,,,,,,,,,,,,,,,,,,,,,,,,,,,,,,,,,,,,,,,,,,,,,,,,,,false,,,Please wait a second…,,,,,,299654.044999741,299653.44000048935,,299371.8450004235,,299821.519,,,,
instructions,html.Screen,2_4_2_3,2021-01-14T19:02:51.790Z,,,,,,,,,,,,,,,,,,,,,,,,,,,,,,,,,,,,,,,,,,,,,,,,,,,,,,,,,,,,,,,,,,,,,,,,,,,,,,,,,,,,,,,,,,,,,,,,,,,,,,,,,,,,,,,,,,,108019.43600037077,,done,,,,,,,,,,,,,,,,,,,,,,,,,,,,,,,,,,,,,,,,,,,,,,,,,,,,,,,,,,,,,,,,,,,,,,,,,,,,,,false,,,,,,,,,407865.4300002381,407840.95500037074,299353.845,299654.56499997526,299821.519,407999.281,,,,
Q1,html.Screen,2_4_2_4_0,2021-01-14T19:03:06.469Z,,,,,,,,,,,,,,,,,,,,,,,,,,,,,,,,,,,,,,,,,,,,,,,,,,,,,,,,,,,,,,,,,,,,,,,,,,,,,,,,,,,,,,,,,,,,,,,,,,,,,,,,,,,,,,,false,input_Q1==3,,,14349.974000241084,,response,,,,,,,,,,,,,,,,,,,,,,,,,Q1_i3,Q1_i2,Q1_i4,Q1_i1,3,2,4,1,correct,false,false,false,,,,,,,,,,,,,,,,,,,,,,,,,,,,,,,,,,,,,,,,,click #Q1_i3,false,,,,,,,,,422545.09500041604,422349.2550002411,407929.285,407865.6999999657,407999.281,422810.207,,,,
Q1_correct,html.Screen,2_4_2_4_1,2021-01-14T19:03:09.882Z,,,,,,,,,,,,,,,,,,,,,,,,,,,,,,,,,,,,,,,,,,,,,,,,,,,,,,,,,,,,,,,,,,,,,,,,,,,,,,,,,,,,,,,,,,,,,,,,,,,,,,,,,,,,,,,,,,,3146.7730002500466,,response,,,,,,,,,,,,,,,,,,,,,,,,,,,,,,,,,,,,,,,,,,,,,,,,,,,,,,,,,,,,,,,,,,,,,,,,,,,,,keypress,false,,,,,,,,,425958.0349996686,425956.98000025004,422426.336,422545.6100003794,422810.207,426049.228,,,,
Q2,html.Screen,2_4_2_4_2,2021-01-14T19:03:17.899Z,,,,,,,,,,,,,,,,,,,,,,,,,,,,,,,,,,,,,,,,,,,,,,,,,,,,,,,,,,,,,,,,,,,,,,,,,,,,,,,,,,,,,,,,,,,,,,,,,,,,,,,,,,,,,,,,,,,7921.651999920723,,response,,,,,,,,,,,,,,,,,,,,,,,,,,,,,,,,,,,,,Q2_i1,Q2_i3,Q2_i2,Option 1,Same amount,Option 2,correct,same,opt2,,,,,,,,,,,,,,,,,,,,,,,,,,,,,,,,click #Q2_i1,false,,,,,,,,,433971.85499966145,433970.8799999207,425948.52,425958.1949999556,426049.228,433996.937,,,,
Q2_correct,html.Screen,2_4_2_4_3,2021-01-14T19:03:19.542Z,,,,,,,,,,,,,,,,,,,,,,,,,,,,,,,,,,,,,,,,,,,,,,,,,,,,,,,,,,,,,,,,,,,,,,,,,,,,,,,,,,,,,,,,,,,,,,,,,,,,,,,,,,,,,,,,,,,1617.8080003773212,,response,,,,,,,,,,,,,,,,,,,,,,,,,,,,,,,,,,,,,,,,,,,,,,,,,,,,,,,,,,,,,,,,,,,,,,,,,,,,,keypress,false,,,,,,,,,435615.5949998647,435614.7450003773,433980.374,433972.0850000158,433996.937,435616.714,,,,
Q4,html.Screen,2_4_2_4_4,2021-01-14T19:03:34.195Z,,,,,,,,,,,,,,,,,,,,,,,,,,,,,,,,,,,,,,,,,,,,,,,,,,,,,,,,,,,,,,,,,,,,,,,,,,,,,,,,,,,,,,,,,,,,,,,,,,,,,,,,,,,,,,,,,,,14649.970999689482,,response,,,,,,,,,,,,,,,,,,,,,,,,,,,,,,,,,,,,,,,,,,,,,,Q4_i2,Q4_i1,Q4_i4,Q4_i3,Indicate the number of food items in each snack option,Press the arrow key that corresponds with the snack option I prefer,Press the space key,Press the arrow key that corresponds with the snack option with more food items,indicate,correct,pressspace,morefood,,,,,,,,,,,,,,,,,,,,click #Q4_i1,false,,,,,,,,,450267.8100001067,450266.68499968946,435599.403,435615.720000118,435616.714,450280.366,,,,
Q4_correct,html.Screen,2_4_2_4_5,2021-01-14T19:03:35.651Z,,,,,,,,,,,,,,,,,,,,,,,,,,,,,,,,,,,,,,,,,,,,,,,,,,,,,,,,,,,,,,,,,,,,,,,,,,,,,,,,,,,,,,,,,,,,,,,,,,,,,,,,,,,,,,,,,,,1442.544000011345,,response,,,,,,,,,,,,,,,,,,,,,,,,,,,,,,,,,,,,,,,,,,,,,,,,,,,,,,,,,,,,,,,,,,,,,,,,,,,,,keypress,false,,,,,,,,,451723.7649997696,451722.9100000113,450263.507,450268.0550003424,450280.366,451733.216,,,,
Q5,html.Screen,2_4_2_4_6,2021-01-14T19:03:43.163Z,,,,,,,,,,,,,,,,,,,,,,,,,,,,,,,,,,,,,,,,,,,,,,,,,,,,,,,,,,,,,,,,,,,,,,,,,,,,,,,,,,,,,,,,,,,,,,,,,,,,,,,,,,,,,,,,,,,7501.454000150785,,response,,,,,,,,,,,,,,,,,,,,,,,,,,,,,,,,,,,,,,,,,,,,,,,,,,,,,,,,,,Q5_i2,Q5_i4,Q5_i3,Q5_i1,There are more pieces of chocolate in snack Option 2,Snack Option 1 has been chosen,There are more slices of kiwi in snack Option 1,Snack Option 2 has been chosen,morechoc2,chose1,morekiwi1,correct,,,,,,,,click #Q5_i1,false,,,,,,,,,459236.17000039667,459234.6700001508,451715.519,451723.9650003612,451733.216,459247.594,,,,
Q5_correct,html.Screen,2_4_2_4_7,2021-01-14T19:03:44.227Z,,,,,,,,,,,,,,,,,,,,,,,,,,,,,,,,,,,,,,,,,,,,,,,,,,,,,,,,,,,,,,,,,,,,,,,,,,,,,,,,,,,,,,,,,,,,,,,,,,,,,,,,,,,,,,,,,,,1052.115999933856,,response,,,,,,,,,,,,,,,,,,,,,,,,,,,,,,,,,,,,,,,,,,,,,,,,,,,,,,,,,,,,,,,,,,,,,,,,,,,,,keypress,false,,,,,,,,,460300.5250003189,460299.70999993384,459230.827,459236.6549996659,459247.594,460316.186,,,,
practice_sequence,flow.Sequence,2_4_2_4,2021-01-14T19:03:44.228Z,,,,,,,,,,,,,,,,,,,,,,,,,,,,,,,,,,,,,,,,,,,,,,,,,,,,,,,,,,,,,,,,,,,,,,,,,,,,,,,,,,,,,,,,,,,,,,,,,,,,,,,,,,,,,,,,,,,52300.42899993382,,completion,,,,,,,,,,,,,,,,,,,,,,,,,,,,,,,,,,,,,,,,,,,,,,,,,,,,,,,,,,,,,,,,,,,,,,,,,,,,,,false,,,,,,,,,460300.70499982685,460299.70999993384,407929.285,407865.64499977976,407999.281,460316.186,,,,
final_instru,html.Screen,2_4_2_5,2021-01-14T19:04:09.297Z,,,,,,,,,,,,,,,,,,,,,,,,,,,,,,,,,,,,,,,,,,,,,,,,,,,,,,,,,,,,,,,,,,,,,,,,,,,,,,,,,,,,,,,,,,,,,,,,,,,,,,,,,,,,,,,,,,,25054.12400014396,,done,,,,,,,,,,,,,,,,,,,,,,,,,,,,,,,,,,,,,,,,,,,,,,,,,,,,,,,,,,,,,,,,,,,,,,,,,,,,,,false,,,,,,,,,485370.5299999565,485370.31000014395,460298.383,460300.8000003174,460316.186,485563.529,,,,
blank_screen,canvas.Screen,2_4_2_6_0,2021-01-14T19:04:11.479Z,,,,,,,,,,,,,,,,,,,,,,,,,,,,,,,,,,,,,,,,,,,,,,,,,,,,,,,,,,,,,,,,,,,,,,,,,,,,,,,,,,,,,,,,,,,,,,,,,,,,,,,,,,,,,,,,,,,2355.032999999996,,timeout,,,,,,,,,,,,,,,,,,,,,,,,,,,,,,,,,,,,,,,,,,,,,,,,,,,,,,,,,,,,,,,,,,,,,,,,,,,,,,false,,,,,,,,,487551.7549999058,487551.146,485375.174,485370.7100003958,485563.529,487918.562,,,,
fixCross,canvas.Screen,2_4_2_6_1_0_0_0_0_0_0,2021-01-14T19:04:12.531Z,,,blank.png,"[""maltesers.png""]",blank.png,blank.png,blank.png,blank.png,blank.png,blank.png,blank.png,blank.png,blank.png,blank.png,blank.png,,,,,,,,,,,,,,,,,,,,,,,,,,,,,"[""maltesers.png""]","[""strawberry.png""]",PB12.png,,,,,,,,,,,0,6,"[""strawberry.png""]","[""strawberry.png""]","[""strawberry.png""]","[""strawberry.png""]","[""strawberry.png""]","[""strawberry.png""]",blank.png,PB18.png,PB18.png,"[""strawberry.png""]","[""strawberry.png""]",blank.png,blank.png,blank.png,blank.png,"[""strawberry.png""]","[""strawberry.png""]","[""strawberry.png""]","[""strawberry.png""]","[""strawberry.png""]","[""strawberry.png""]",1,"[""maltesers.png""]",blank.png,blank.png,blank.png,2,"[""strawberry.png""]","[""strawberry.png""]",blank.png,blank.png,blank.png,blank.png,PB12.png,,,,,,,,,,,1,,,,,,,,,,,,1687.0960000000196,,timeout,,,,,,,,,,,,,3,,,,,,,,,,,,,,,,,,,,,,,,,,,,,,,,,,,,,,,,,,,,,,,,,,,,,,,,,"[""strawberry.png""]","[""maltesers.png""]",,,,6,,,false,,1,,,,,,,488604.0500001982,488603.387,487551.146,487850.3900002688,487918.562,489605.658,1,,,
timeout,canvas.Screen,2_4_2_6_1_0_0_0_0_0_1,2021-01-14T19:04:14.088Z,,,blank.png,"[""maltesers.png""]",blank.png,blank.png,blank.png,blank.png,blank.png,blank.png,blank.png,blank.png,blank.png,blank.png,blank.png,,,,,,,,,,,,,,,,,,,,,,,,,,,,,"[""maltesers.png""]","[""strawberry.png""]",PB12.png,,,,,,,,,,,0,6,"[""strawberry.png""]","[""strawberry.png""]","[""strawberry.png""]","[""strawberry.png""]","[""strawberry.png""]","[""strawberry.png""]",blank.png,PB18.png,PB18.png,"[""strawberry.png""]","[""strawberry.png""]",blank.png,blank.png,blank.png,blank.png,"[""strawberry.png""]","[""strawberry.png""]","[""strawberry.png""]","[""strawberry.png""]","[""strawberry.png""]","[""strawberry.png""]",1,"[""maltesers.png""]",blank.png,blank.png,blank.png,2,"[""strawberry.png""]","[""strawberry.png""]",blank.png,blank.png,blank.png,blank.png,PB12.png,,,,,,,,,,,1,,,,,,,,,,,,4141.704000000027,,timeout,,,,,,,,,,,,,3,,,,,,,,,,,,,,,,,,,,,,,,,,,,,,,,,,,,,,,,,,,,,,,,,,,,,,,,,"[""strawberry.png""]","[""maltesers.png""]",,,,6,,,false,,1,,,,,,,490161.6400005296,490156.921,488603.387,489813.8199998066,489605.658,493747.362,,,,
choice,canvas.Screen,2_4_2_6_1_0_0_0_0_0_2,2021-01-14T19:04:21.533Z,,,blank.png,"[""maltesers.png""]",blank.png,blank.png,blank.png,blank.png,blank.png,blank.png,blank.png,blank.png,blank.png,blank.png,blank.png,,,,,,,,,,,,,,,,,,,,,,,,,,,,,"[""maltesers.png""]","[""strawberry.png""]",PB12.png,,,,,,,,,,,0,6,"[""strawberry.png""]","[""strawberry.png""]","[""strawberry.png""]","[""strawberry.png""]","[""strawberry.png""]","[""strawberry.png""]",blank.png,PB18.png,PB18.png,"[""strawberry.png""]","[""strawberry.png""]",blank.png,blank.png,blank.png,blank.png,"[""strawberry.png""]","[""strawberry.png""]","[""strawberry.png""]","[""strawberry.png""]","[""strawberry.png""]","[""strawberry.png""]",1,"[""maltesers.png""]",blank.png,blank.png,blank.png,2,"[""strawberry.png""]","[""strawberry.png""]",blank.png,blank.png,blank.png,blank.png,PB12.png,,,,,,,,,,,1,,,,,,,,,,,,3857.6229996343027,,response,,,,,,,,,,,,,3,,,,,,,,,,,,,,,,,,,,,,,,,,,,,,,,,,,,,,,,,,,,,,,,,,,,,,,,,"[""strawberry.png""]","[""maltesers.png""]",,,,6,left,keydown(ArrowLeft),false,,1,,,,,,,497606.0950001702,497604.9849996343,490156.921,493775.454999879,493747.362,498422.488,,1,,
square,canvas.Screen,2_4_2_6_1_0_0_0_0_0_3,2021-01-14T19:04:23.335Z,,,blank.png,"[""maltesers.png""]",blank.png,blank.png,blank.png,blank.png,blank.png,blank.png,blank.png,blank.png,blank.png,blank.png,blank.png,,,,,,,,,,,,,,,,,,,,,,,,,,,,,"[""maltesers.png""]","[""strawberry.png""]",PB12.png,,,,,,,,,,,0,6,"[""strawberry.png""]","[""strawberry.png""]","[""strawberry.png""]","[""strawberry.png""]","[""strawberry.png""]","[""strawberry.png""]",blank.png,PB18.png,PB18.png,"[""strawberry.png""]","[""strawberry.png""]",blank.png,blank.png,blank.png,blank.png,"[""strawberry.png""]","[""strawberry.png""]","[""strawberry.png""]","[""strawberry.png""]","[""strawberry.png""]","[""strawberry.png""]",1,"[""maltesers.png""]",blank.png,blank.png,blank.png,2,"[""strawberry.png""]","[""strawberry.png""]",blank.png,blank.png,blank.png,blank.png,PB12.png,,,,,,,,,,,1,,#33ff3f,#808080,,,,,,,,,1035.201000000001,,timeout,,,,,,,,,,,,,3,,,,,,,,,,,,,,,,,,,,,,,,,,,,,,,,,,,,,,,,,,,,,,,,,,,,,,,,,"[""strawberry.png""]","[""maltesers.png""]",,,,6,,,false,,1,,,,,black,white,499408.5400002077,499407.695,498396.503,498400.4849996418,498422.488,499457.689,,,,
ITI_late,canvas.Screen,2_4_2_6_1_0_0_0_0_0_4,2021-01-14T19:04:23.869Z,,,blank.png,"[""maltesers.png""]",blank.png,blank.png,blank.png,blank.png,blank.png,blank.png,blank.png,blank.png,blank.png,blank.png,blank.png,,,,,,,,,,,,,,,,,,,,,,,,,,,,,"[""maltesers.png""]","[""strawberry.png""]",PB12.png,,,,,,,,,,,0,6,"[""strawberry.png""]","[""strawberry.png""]","[""strawberry.png""]","[""strawberry.png""]","[""strawberry.png""]","[""strawberry.png""]",blank.png,PB18.png,PB18.png,"[""strawberry.png""]","[""strawberry.png""]",blank.png,blank.png,blank.png,blank.png,"[""strawberry.png""]","[""strawberry.png""]","[""strawberry.png""]","[""strawberry.png""]","[""strawberry.png""]","[""strawberry.png""]",1,"[""maltesers.png""]",blank.png,blank.png,blank.png,2,"[""strawberry.png""]","[""strawberry.png""]",blank.png,blank.png,blank.png,blank.png,PB12.png,,,,,,,,,,,1,,,,,,,,,,,,500.9439999999595,,timeout,,,,,,,,,,,,white,3,,,,,,,,,,,,,,,,,,,,,,,,,,,,,,,,,,,,,,,,,,,,,,,,,,,,,,,,,"[""strawberry.png""]","[""maltesers.png""]",,,,6,,,false,,1,,,,,,,499942.77499988675,499941.983,499407.695,499424.6000004932,499457.689,499958.633,,,,
choice_sequence,flow.Sequence,2_4_2_6_1_0_0_0_0_0,2021-01-14T19:04:23.870Z,,,blank.png,"[""maltesers.png""]",blank.png,blank.png,blank.png,blank.png,blank.png,blank.png,blank.png,blank.png,blank.png,blank.png,blank.png,,,,,,,,,,,,,,,,,,,,,,,,,,,,,"[""maltesers.png""]","[""strawberry.png""]",PB12.png,,,,,,,,,,,0,6,"[""strawberry.png""]","[""strawberry.png""]","[""strawberry.png""]","[""strawberry.png""]","[""strawberry.png""]","[""strawberry.png""]",blank.png,PB18.png,PB18.png,"[""strawberry.png""]","[""strawberry.png""]",blank.png,blank.png,blank.png,blank.png,"[""strawberry.png""]","[""strawberry.png""]","[""strawberry.png""]","[""strawberry.png""]","[""strawberry.png""]","[""strawberry.png""]",1,"[""maltesers.png""]",blank.png,blank.png,blank.png,2,"[""strawberry.png""]","[""strawberry.png""]",blank.png,blank.png,blank.png,blank.png,PB12.png,,,,,,,,,,,1,,,,,,,,,,,,12023.421000000031,,completion,,,,,,,,,,,,,3,,,,,,,,,,,,,,,,,,,,,,,,,,,,,,,,,,,,,,,,,,,,,,,,,,,,,,,,,"[""strawberry.png""]","[""maltesers.png""]",,,,6,,,false,,1,,,,,,,499943.4500001371,499941.983,487551.146,487847.4799999967,487918.562,499958.633,,,,
fixCross,canvas.Screen,2_4_2_6_1_0_0_0_0_1_0,2021-01-14T19:04:24.570Z,,,blank.png,"[""maltesers.png""]",blank.png,blank.png,blank.png,blank.png,blank.png,blank.png,blank.png,blank.png,blank.png,blank.png,blank.png,,,,,,,,,,,,,,,,,,,,,,,,,,,,,"[""maltesers.png""]","[""strawberry.png""]",PB14.png,,,,,,,,,,,0,6,"[""strawberry.png""]","[""strawberry.png""]","[""strawberry.png""]","[""strawberry.png""]","[""strawberry.png""]","[""strawberry.png""]",blank.png,PB18.png,PB18.png,"[""strawberry.png""]","[""strawberry.png""]","[""strawberry.png""]",blank.png,blank.png,blank.png,"[""strawberry.png""]","[""strawberry.png""]","[""strawberry.png""]","[""strawberry.png""]","[""strawberry.png""]","[""strawberry.png""]",1,"[""maltesers.png""]",blank.png,blank.png,blank.png,3,"[""strawberry.png""]","[""strawberry.png""]","[""strawberry.png""]",blank.png,blank.png,blank.png,PB14.png,,,,,,,,,,,1,,,,,,,,,,,,1536.1110000000335,,timeout,,,,,,,,,,,,,3,,,,,,,,,,,,,,,,,,,,,,,,,,,,,,,,,,,,,,,,,,,,,,,,,,,,,,,,,"[""strawberry.png""]","[""maltesers.png""]",,,,6,,,false,,1,,,,,,,500643.75500008464,500643.125,499941.983,499950.1149998978,499958.633,501494.744,2,,,
timeout,canvas.Screen,2_4_2_6_1_0_0_0_0_1_1,2021-01-14T19:04:25.907Z,,,blank.png,"[""maltesers.png""]",blank.png,blank.png,blank.png,blank.png,blank.png,blank.png,blank.png,blank.png,blank.png,blank.png,blank.png,,,,,,,,,,,,,,,,,,,,,,,,,,,,,"[""maltesers.png""]","[""strawberry.png""]",PB14.png,,,,,,,,,,,0,6,"[""strawberry.png""]","[""strawberry.png""]","[""strawberry.png""]","[""strawberry.png""]","[""strawberry.png""]","[""strawberry.png""]",blank.png,PB18.png,PB18.png,"[""strawberry.png""]","[""strawberry.png""]","[""strawberry.png""]",blank.png,blank.png,blank.png,"[""strawberry.png""]","[""strawberry.png""]","[""strawberry.png""]","[""strawberry.png""]","[""strawberry.png""]","[""strawberry.png""]",1,"[""maltesers.png""]",blank.png,blank.png,blank.png,3,"[""strawberry.png""]","[""strawberry.png""]","[""strawberry.png""]",blank.png,blank.png,blank.png,PB14.png,,,,,,,,,,,1,,,,,,,,,,,,1336.0270000000019,,timeout,,,,,,,,,,,,,3,,,,,,,,,,,,,,,,,,,,,,,,,,,,,,,,,,,,,,,,,,,,,,,,,,,,,,,,,"[""strawberry.png""]","[""maltesers.png""]",,,,6,,,false,,1,,,,,,,501979.8649996519,501979.053,500643.125,501505.0600003451,501494.744,502830.771,,,,
choice,canvas.Screen,2_4_2_6_1_0_0_0_0_1_2,2021-01-14T19:04:28.387Z,,,blank.png,"[""maltesers.png""]",blank.png,blank.png,blank.png,blank.png,blank.png,blank.png,blank.png,blank.png,blank.png,blank.png,blank.png,,,,,,,,,,,,,,,,,,,,,,,,,,,,,"[""maltesers.png""]","[""strawberry.png""]",PB14.png,,,,,,,,,,,0,6,"[""strawberry.png""]","[""strawberry.png""]","[""strawberry.png""]","[""strawberry.png""]","[""strawberry.png""]","[""strawberry.png""]",blank.png,PB18.png,PB18.png,"[""strawberry.png""]","[""strawberry.png""]","[""strawberry.png""]",blank.png,blank.png,blank.png,"[""strawberry.png""]","[""strawberry.png""]","[""strawberry.png""]","[""strawberry.png""]","[""strawberry.png""]","[""strawberry.png""]",1,"[""maltesers.png""]",blank.png,blank.png,blank.png,3,"[""strawberry.png""]","[""strawberry.png""]","[""strawberry.png""]",blank.png,blank.png,blank.png,PB14.png,,,,,,,,,,,1,,,,,,,,,,,,1628.2540002220194,,response,,,,,,,,,,,,,3,,,,,,,,,,,,,,,,,,,,,,,,,,,,,,,,,,,,,,,,,,,,,,,,,,,,,,,,,"[""strawberry.png""]","[""maltesers.png""]",,,,6,left,keydown(ArrowLeft),false,,1,,,,,,,504460.6299996376,504459.025000222,501979.053,502813.3850004524,502830.771,505319.062,,2,,
square,canvas.Screen,2_4_2_6_1_0_0_0_0_1_3,2021-01-14T19:04:30.232Z,,,blank.png,"[""maltesers.png""]",blank.png,blank.png,blank.png,blank.png,blank.png,blank.png,blank.png,blank.png,blank.png,blank.png,blank.png,,,,,,,,,,,,,,,,,,,,,,,,,,,,,"[""maltesers.png""]","[""strawberry.png""]",PB14.png,,,,,,,,,,,0,6,"[""strawberry.png""]","[""strawberry.png""]","[""strawberry.png""]","[""strawberry.png""]","[""strawberry.png""]","[""strawberry.png""]",blank.png,PB18.png,PB18.png,"[""strawberry.png""]","[""strawberry.png""]","[""strawberry.png""]",blank.png,blank.png,blank.png,"[""strawberry.png""]","[""strawberry.png""]","[""strawberry.png""]","[""strawberry.png""]","[""strawberry.png""]","[""strawberry.png""]",1,"[""maltesers.png""]",blank.png,blank.png,blank.png,3,"[""strawberry.png""]","[""strawberry.png""]","[""strawberry.png""]",blank.png,blank.png,blank.png,PB14.png,,,,,,,,,,,1,,#33ff3f,#808080,,,,,,,,,1002.1469999999972,,timeout,,,,,,,,,,,,,3,,,,,,,,,,,,,,,,,,,,,,,,,,,,,,,,,,,,,,,,,,,,,,,,,,,,,,,,,"[""strawberry.png""]","[""maltesers.png""]",,,,6,,,false,,1,,,,,black,white,506305.26500009,506304.488,505297.094,505312.055000104,505319.062,506321.209,,,,
ITI_late,canvas.Screen,2_4_2_6_1_0_0_0_0_1_4,2021-01-14T19:04:30.983Z,,,blank.png,"[""maltesers.png""]",blank.png,blank.png,blank.png,blank.png,blank.png,blank.png,blank.png,blank.png,blank.png,blank.png,blank.png,,,,,,,,,,,,,,,,,,,,,,,,,,,,,"[""maltesers.png""]","[""strawberry.png""]",PB14.png,,,,,,,,,,,0,6,"[""strawberry.png""]","[""strawberry.png""]","[""strawberry.png""]","[""strawberry.png""]","[""strawberry.png""]","[""strawberry.png""]",blank.png,PB18.png,PB18.png,"[""strawberry.png""]","[""strawberry.png""]","[""strawberry.png""]",blank.png,blank.png,blank.png,"[""strawberry.png""]","[""strawberry.png""]","[""strawberry.png""]","[""strawberry.png""]","[""strawberry.png""]","[""strawberry.png""]",1,"[""maltesers.png""]",blank.png,blank.png,blank.png,3,"[""strawberry.png""]","[""strawberry.png""]","[""strawberry.png""]",blank.png,blank.png,blank.png,PB14.png,,,,,,,,,,,1,,,,,,,,,,,,751.5320000000065,,timeout,,,,,,,,,,,,white,3,,,,,,,,,,,,,,,,,,,,,,,,,,,,,,,,,,,,,,,,,,,,,,,,,,,,,,,,,"[""strawberry.png""]","[""maltesers.png""]",,,,6,,,false,,1,,,,,,,507056.5499998629,507055.914,506304.488,506307.470000349,506321.209,507072.741,,,,
choice_sequence,flow.Sequence,2_4_2_6_1_0_0_0_0_1,2021-01-14T19:04:30.984Z,,,blank.png,"[""maltesers.png""]",blank.png,blank.png,blank.png,blank.png,blank.png,blank.png,blank.png,blank.png,blank.png,blank.png,blank.png,,,,,,,,,,,,,,,,,,,,,,,,,,,,,"[""maltesers.png""]","[""strawberry.png""]",PB14.png,,,,,,,,,,,0,6,"[""strawberry.png""]","[""strawberry.png""]","[""strawberry.png""]","[""strawberry.png""]","[""strawberry.png""]","[""strawberry.png""]",blank.png,PB18.png,PB18.png,"[""strawberry.png""]","[""strawberry.png""]","[""strawberry.png""]",blank.png,blank.png,blank.png,"[""strawberry.png""]","[""strawberry.png""]","[""strawberry.png""]","[""strawberry.png""]","[""strawberry.png""]","[""strawberry.png""]",1,"[""maltesers.png""]",blank.png,blank.png,blank.png,3,"[""strawberry.png""]","[""strawberry.png""]","[""strawberry.png""]",blank.png,blank.png,blank.png,PB14.png,,,,,,,,,,,1,,,,,,,,,,,,7097.281000000017,,completion,,,,,,,,,,,,,3,,,,,,,,,,,,,,,,,,,,,,,,,,,,,,,,,,,,,,,,,,,,,,,,,,,,,,,,,"[""strawberry.png""]","[""maltesers.png""]",,,,6,,,false,,1,,,,,,,507057.20499996096,507055.914,499941.983,499948.88000003994,499958.633,507072.741,,,,
fixCross,canvas.Screen,2_4_2_6_1_0_0_0_0_2_0,2021-01-14T19:04:31.485Z,,,blank.png,blank.png,blank.png,blank.png,blank.png,blank.png,blank.png,"[""maltesers.png""]",blank.png,blank.png,blank.png,blank.png,blank.png,,,,,,,,,,,,,,,,,,,,,,,,,,,,,"[""maltesers.png""]","[""strawberry.png""]",PB18.png,,,,,,,,,,,0,6,"[""strawberry.png""]","[""strawberry.png""]","[""strawberry.png""]","[""strawberry.png""]","[""strawberry.png""]","[""strawberry.png""]",blank.png,PB18.png,PB16.png,"[""strawberry.png""]","[""strawberry.png""]","[""strawberry.png""]","[""strawberry.png""]","[""strawberry.png""]","[""strawberry.png""]","[""strawberry.png""]","[""strawberry.png""]","[""strawberry.png""]","[""strawberry.png""]","[""strawberry.png""]",blank.png,1,"[""maltesers.png""]",blank.png,blank.png,blank.png,5,"[""strawberry.png""]","[""strawberry.png""]","[""strawberry.png""]","[""strawberry.png""]","[""strawberry.png""]",blank.png,PB16.png,,,,,,,,,,,1,,,,,,,,,,,,1369.4170000000158,,timeout,,,,,,,,,,,,,4,,,,,,,,,,,,,,,,,,,,,,,,,,,,,,,,,,,,,,,,,,,,,,,,,,,,,,,,,"[""strawberry.png""]","[""maltesers.png""]",,,,6,,,false,,1,,,,,,,507557.8699996695,507557.073,507055.914,507064.5099999383,507072.741,508442.158,3,,,
timeout,canvas.Screen,2_4_2_6_1_0_0_0_0_2_1,2021-01-14T19:04:32.854Z,,,blank.png,blank.png,blank.png,blank.png,blank.png,blank.png,blank.png,"[""maltesers.png""]",blank.png,blank.png,blank.png,blank.png,blank.png,,,,,,,,,,,,,,,,,,,,,,,,,,,,,"[""maltesers.png""]","[""strawberry.png""]",PB18.png,,,,,,,,,,,0,6,"[""strawberry.png""]","[""strawberry.png""]","[""strawberry.png""]","[""strawberry.png""]","[""strawberry.png""]","[""strawberry.png""]",blank.png,PB18.png,PB16.png,"[""strawberry.png""]","[""strawberry.png""]","[""strawberry.png""]","[""strawberry.png""]","[""strawberry.png""]","[""strawberry.png""]","[""strawberry.png""]","[""strawberry.png""]","[""strawberry.png""]","[""strawberry.png""]","[""strawberry.png""]",blank.png,1,"[""maltesers.png""]",blank.png,blank.png,blank.png,5,"[""strawberry.png""]","[""strawberry.png""]","[""strawberry.png""]","[""strawberry.png""]","[""strawberry.png""]",blank.png,PB16.png,,,,,,,,,,,1,,,,,,,,,,,,1403.0970000000088,,timeout,,,,,,,,,,,,,4,,,,,,,,,,,,,,,,,,,,,,,,,,,,,,,,,,,,,,,,,,,,,,,,,,,,,,,,,"[""strawberry.png""]","[""maltesers.png""]",,,,6,,,false,,1,,,,,,,508927.5150001049,508926.703,507557.073,508447.54999969155,508442.158,509845.255,,,,
choice,canvas.Screen,2_4_2_6_1_0_0_0_0_2_2,2021-01-14T19:04:35.856Z,,,blank.png,blank.png,blank.png,blank.png,blank.png,blank.png,blank.png,"[""maltesers.png""]",blank.png,blank.png,blank.png,blank.png,blank.png,,,,,,,,,,,,,,,,,,,,,,,,,,,,,"[""maltesers.png""]","[""strawberry.png""]",PB18.png,,,,,,,,,,,0,6,"[""strawberry.png""]","[""strawberry.png""]","[""strawberry.png""]","[""strawberry.png""]","[""strawberry.png""]","[""strawberry.png""]",blank.png,PB18.png,PB16.png,"[""strawberry.png""]","[""strawberry.png""]","[""strawberry.png""]","[""strawberry.png""]","[""strawberry.png""]","[""strawberry.png""]","[""strawberry.png""]","[""strawberry.png""]","[""strawberry.png""]","[""strawberry.png""]","[""strawberry.png""]",blank.png,1,"[""maltesers.png""]",blank.png,blank.png,blank.png,5,"[""strawberry.png""]","[""strawberry.png""]","[""strawberry.png""]","[""strawberry.png""]","[""strawberry.png""]",blank.png,PB16.png,,,,,,,,,,,1,,,,,,,,,,,,2080.815000044997,,response,,,,,,,,,,,,,4,,,,,,,,,,,,,,,,,,,,,,,,,,,,,,,,,,,,,,,,,,,,,,,,,,,,,,,,,"[""strawberry.png""]","[""maltesers.png""]",,,,6,right,keydown(ArrowRight),false,,1,,,,,,,511929.5850005001,511926.070000045,508926.703,509807.8699996695,509845.255,512851.731,,3,,
square,canvas.Screen,2_4_2_6_1_0_0_0_0_2_3,2021-01-14T19:04:37.765Z,,,blank.png,blank.png,blank.png,blank.png,blank.png,blank.png,blank.png,"[""maltesers.png""]",blank.png,blank.png,blank.png,blank.png,blank.png,,,,,,,,,,,,,,,,,,,,,,,,,,,,,"[""maltesers.png""]","[""strawberry.png""]",PB18.png,,,,,,,,,,,0,6,"[""strawberry.png""]","[""strawberry.png""]","[""strawberry.png""]","[""strawberry.png""]","[""strawberry.png""]","[""strawberry.png""]",blank.png,PB18.png,PB16.png,"[""strawberry.png""]","[""strawberry.png""]","[""strawberry.png""]","[""strawberry.png""]","[""strawberry.png""]","[""strawberry.png""]","[""strawberry.png""]","[""strawberry.png""]","[""strawberry.png""]","[""strawberry.png""]","[""strawberry.png""]",blank.png,1,"[""maltesers.png""]",blank.png,blank.png,blank.png,5,"[""strawberry.png""]","[""strawberry.png""]","[""strawberry.png""]","[""strawberry.png""]","[""strawberry.png""]",blank.png,PB16.png,,,,,,,,,,,1,,#808080,#33ff3f,,,,,,,,,1002.0979999999981,,timeout,,,,,,,,,,,,,4,,,,,,,,,,,,,,,,,,,,,,,,,,,,,,,,,,,,,,,,,,,,,,,,,,,,,,,,,"[""strawberry.png""]","[""maltesers.png""]",,,,6,,,false,,1,,,,,white,black,513837.9800003022,513837.161,512828.059,512844.1749997437,512851.731,513853.829,,,,
ITI_late,canvas.Screen,2_4_2_6_1_0_0_0_0_2_4,2021-01-14T19:04:38.516Z,,,blank.png,blank.png,blank.png,blank.png,blank.png,blank.png,blank.png,"[""maltesers.png""]",blank.png,blank.png,blank.png,blank.png,blank.png,,,,,,,,,,,,,,,,,,,,,,,,,,,,,"[""maltesers.png""]","[""strawberry.png""]",PB18.png,,,,,,,,,,,0,6,"[""strawberry.png""]","[""strawberry.png""]","[""strawberry.png""]","[""strawberry.png""]","[""strawberry.png""]","[""strawberry.png""]",blank.png,PB18.png,PB16.png,"[""strawberry.png""]","[""strawberry.png""]","[""strawberry.png""]","[""strawberry.png""]","[""strawberry.png""]","[""strawberry.png""]","[""strawberry.png""]","[""strawberry.png""]","[""strawberry.png""]","[""strawberry.png""]","[""strawberry.png""]",blank.png,1,"[""maltesers.png""]",blank.png,blank.png,blank.png,5,"[""strawberry.png""]","[""strawberry.png""]","[""strawberry.png""]","[""strawberry.png""]","[""strawberry.png""]",blank.png,PB16.png,,,,,,,,,,,1,,,,,,,,,,,,751.5429999999469,,timeout,,,,,,,,,,,,white,4,,,,,,,,,,,,,,,,,,,,,,,,,,,,,,,,,,,,,,,,,,,,,,,,,,,,,,,,,"[""strawberry.png""]","[""maltesers.png""]",,,,6,,,false,,1,,,,,,,514589.2799999565,514588.655,513837.161,513840.18499962986,513853.829,514605.372,,,,
choice_sequence,flow.Sequence,2_4_2_6_1_0_0_0_0_2,2021-01-14T19:04:38.517Z,,,blank.png,blank.png,blank.png,blank.png,blank.png,blank.png,blank.png,"[""maltesers.png""]",blank.png,blank.png,blank.png,blank.png,blank.png,,,,,,,,,,,,,,,,,,,,,,,,,,,,,"[""maltesers.png""]","[""strawberry.png""]",PB18.png,,,,,,,,,,,0,6,"[""strawberry.png""]","[""strawberry.png""]","[""strawberry.png""]","[""strawberry.png""]","[""strawberry.png""]","[""strawberry.png""]",blank.png,PB18.png,PB16.png,"[""strawberry.png""]","[""strawberry.png""]","[""strawberry.png""]","[""strawberry.png""]","[""strawberry.png""]","[""strawberry.png""]","[""strawberry.png""]","[""strawberry.png""]","[""strawberry.png""]","[""strawberry.png""]","[""strawberry.png""]",blank.png,1,"[""maltesers.png""]",blank.png,blank.png,blank.png,5,"[""strawberry.png""]","[""strawberry.png""]","[""strawberry.png""]","[""strawberry.png""]","[""strawberry.png""]",blank.png,PB16.png,,,,,,,,,,,1,,,,,,,,,,,,7515.914000000048,,completion,,,,,,,,,,,,,4,,,,,,,,,,,,,,,,,,,,,,,,,,,,,,,,,,,,,,,,,,,,,,,,,,,,,,,,,"[""strawberry.png""]","[""maltesers.png""]",,,,6,,,false,,1,,,,,,,514589.9700000882,514588.655,507055.914,507062.5,507072.741,514605.372,,,,
fixCross,canvas.Screen,2_4_2_6_1_0_0_0_0_3_0,2021-01-14T19:04:39.067Z,,,blank.png,"[""maltesers.png""]",blank.png,blank.png,blank.png,blank.png,blank.png,blank.png,blank.png,blank.png,blank.png,blank.png,blank.png,,,,,,,,,,,,,,,,,,,,,,,,,,,,,"[""maltesers.png""]","[""strawberry.png""]",PB15.png,,,,,,,,,,,0,6,"[""strawberry.png""]","[""strawberry.png""]","[""strawberry.png""]","[""strawberry.png""]","[""strawberry.png""]","[""strawberry.png""]",blank.png,PB18.png,PB18.png,"[""strawberry.png""]","[""strawberry.png""]","[""strawberry.png""]","[""strawberry.png""]",blank.png,blank.png,"[""strawberry.png""]","[""strawberry.png""]","[""strawberry.png""]","[""strawberry.png""]","[""strawberry.png""]","[""strawberry.png""]",1,"[""maltesers.png""]",blank.png,blank.png,blank.png,4,"[""strawberry.png""]","[""strawberry.png""]","[""strawberry.png""]","[""strawberry.png""]",blank.png,blank.png,PB15.png,,,,,,,,,,,1,,,,,,,,,,,,1419.5890000000363,,timeout,,,,,,,,,,,,,3,,,,,,,,,,,,,,,,,,,,,,,,,,,,,,,,,,,,,,,,,,,,,,,,,,,,,,,,,"[""strawberry.png""]","[""maltesers.png""]",,,,6,,,false,,1,,,,,,,515140.70499967784,515139.846,514588.655,514596.4850001037,514605.372,516024.961,4,,,
timeout,canvas.Screen,2_4_2_6_1_0_0_0_0_3_1,2021-01-14T19:04:40.437Z,,,blank.png,"[""maltesers.png""]",blank.png,blank.png,blank.png,blank.png,blank.png,blank.png,blank.png,blank.png,blank.png,blank.png,blank.png,,,,,,,,,,,,,,,,,,,,,,,,,,,,,"[""maltesers.png""]","[""strawberry.png""]",PB15.png,,,,,,,,,,,0,6,"[""strawberry.png""]","[""strawberry.png""]","[""strawberry.png""]","[""strawberry.png""]","[""strawberry.png""]","[""strawberry.png""]",blank.png,PB18.png,PB18.png,"[""strawberry.png""]","[""strawberry.png""]","[""strawberry.png""]","[""strawberry.png""]",blank.png,blank.png,"[""strawberry.png""]","[""strawberry.png""]","[""strawberry.png""]","[""strawberry.png""]","[""strawberry.png""]","[""strawberry.png""]",1,"[""maltesers.png""]",blank.png,blank.png,blank.png,4,"[""strawberry.png""]","[""strawberry.png""]","[""strawberry.png""]","[""strawberry.png""]",blank.png,blank.png,PB15.png,,,,,,,,,,,1,,,,,,,,,,,,1469.826000000001,,timeout,,,,,,,,,,,,,3,,,,,,,,,,,,,,,,,,,,,,,,,,,,,,,,,,,,,,,,,,,,,,,,,,,,,,,,,"[""strawberry.png""]","[""maltesers.png""]",,,,6,,,false,,1,,,,,,,516510.0050000474,516509.367,515139.846,516033.7249999866,516024.961,517494.787,,,,
choice,canvas.Screen,2_4_2_6_1_0_0_0_0_3_2,2021-01-14T19:04:43.995Z,,,blank.png,"[""maltesers.png""]",blank.png,blank.png,blank.png,blank.png,blank.png,blank.png,blank.png,blank.png,blank.png,blank.png,blank.png,,,,,,,,,,,,,,,,,,,,,,,,,,,,,"[""maltesers.png""]","[""strawberry.png""]",PB15.png,,,,,,,,,,,0,6,"[""strawberry.png""]","[""strawberry.png""]","[""strawberry.png""]","[""strawberry.png""]","[""strawberry.png""]","[""strawberry.png""]",blank.png,PB18.png,PB18.png,"[""strawberry.png""]","[""strawberry.png""]","[""strawberry.png""]","[""strawberry.png""]",blank.png,blank.png,"[""strawberry.png""]","[""strawberry.png""]","[""strawberry.png""]","[""strawberry.png""]","[""strawberry.png""]","[""strawberry.png""]",1,"[""maltesers.png""]",blank.png,blank.png,blank.png,4,"[""strawberry.png""]","[""strawberry.png""]","[""strawberry.png""]","[""strawberry.png""]",blank.png,blank.png,PB15.png,,,,,,,,,,,1,,,,,,,,,,,,2569.4330000584014,,response,,,,,,,,,,,,,3,,,,,,,,,,,,,,,,,,,,,,,,,,,,,,,,,,,,,,,,,,,,,,,,,,,,,,,,,"[""strawberry.png""]","[""maltesers.png""]",,,,6,right,keydown(ArrowRight),false,,1,,,,,,,520067.9750004783,520064.2200000584,516509.367,517447.100000456,517494.787,521118.996,,4,,
square,canvas.Screen,2_4_2_6_1_0_0_0_0_3_3,2021-01-14T19:04:46.032Z,,,blank.png,"[""maltesers.png""]",blank.png,blank.png,blank.png,blank.png,blank.png,blank.png,blank.png,blank.png,blank.png,blank.png,blank.png,,,,,,,,,,,,,,,,,,,,,,,,,,,,,"[""maltesers.png""]","[""strawberry.png""]",PB15.png,,,,,,,,,,,0,6,"[""strawberry.png""]","[""strawberry.png""]","[""strawberry.png""]","[""strawberry.png""]","[""strawberry.png""]","[""strawberry.png""]",blank.png,PB18.png,PB18.png,"[""strawberry.png""]","[""strawberry.png""]","[""strawberry.png""]","[""strawberry.png""]",blank.png,blank.png,"[""strawberry.png""]","[""strawberry.png""]","[""strawberry.png""]","[""strawberry.png""]","[""strawberry.png""]","[""strawberry.png""]",1,"[""maltesers.png""]",blank.png,blank.png,blank.png,4,"[""strawberry.png""]","[""strawberry.png""]","[""strawberry.png""]","[""strawberry.png""]",blank.png,blank.png,PB15.png,,,,,,,,,,,1,,#808080,#33ff3f,,,,,,,,,1002.1730000000098,,timeout,,,,,,,,,,,,,3,,,,,,,,,,,,,,,,,,,,,,,,,,,,,,,,,,,,,,,,,,,,,,,,,,,,,,,,,"[""strawberry.png""]","[""maltesers.png""]",,,,6,,,false,,1,,,,,white,black,522105.285000056,522104.465,521094.101,521108.57000015676,521118.996,522121.169,,,,
ITI_late,canvas.Screen,2_4_2_6_1_0_0_0_0_3_4,2021-01-14T19:04:47.034Z,,,blank.png,"[""maltesers.png""]",blank.png,blank.png,blank.png,blank.png,blank.png,blank.png,blank.png,blank.png,blank.png,blank.png,blank.png,,,,,,,,,,,,,,,,,,,,,,,,,,,,,"[""maltesers.png""]","[""strawberry.png""]",PB15.png,,,,,,,,,,,0,6,"[""strawberry.png""]","[""strawberry.png""]","[""strawberry.png""]","[""strawberry.png""]","[""strawberry.png""]","[""strawberry.png""]",blank.png,PB18.png,PB18.png,"[""strawberry.png""]","[""strawberry.png""]","[""strawberry.png""]","[""strawberry.png""]",blank.png,blank.png,"[""strawberry.png""]","[""strawberry.png""]","[""strawberry.png""]","[""strawberry.png""]","[""strawberry.png""]","[""strawberry.png""]",1,"[""maltesers.png""]",blank.png,blank.png,blank.png,4,"[""strawberry.png""]","[""strawberry.png""]","[""strawberry.png""]","[""strawberry.png""]",blank.png,blank.png,PB15.png,,,,,,,,,,,1,,,,,,,,,,,,1001.9469999999856,,timeout,,,,,,,,,,,,white,3,,,,,,,,,,,,,,,,,,,,,,,,,,,,,,,,,,,,,,,,,,,,,,,,,,,,,,,,,"[""strawberry.png""]","[""maltesers.png""]",,,,6,,,false,,1,,,,,,,523107.169999741,523106.388,522104.465,522107.68499970436,522121.169,523123.116,,,,
choice_sequence,flow.Sequence,2_4_2_6_1_0_0_0_0_3,2021-01-14T19:04:47.035Z,,,blank.png,"[""maltesers.png""]",blank.png,blank.png,blank.png,blank.png,blank.png,blank.png,blank.png,blank.png,blank.png,blank.png,blank.png,,,,,,,,,,,,,,,,,,,,,,,,,,,,,"[""maltesers.png""]","[""strawberry.png""]",PB15.png,,,,,,,,,,,0,6,"[""strawberry.png""]","[""strawberry.png""]","[""strawberry.png""]","[""strawberry.png""]","[""strawberry.png""]","[""strawberry.png""]",blank.png,PB18.png,PB18.png,"[""strawberry.png""]","[""strawberry.png""]","[""strawberry.png""]","[""strawberry.png""]",blank.png,blank.png,"[""strawberry.png""]","[""strawberry.png""]","[""strawberry.png""]","[""strawberry.png""]","[""strawberry.png""]","[""strawberry.png""]",1,"[""maltesers.png""]",blank.png,blank.png,blank.png,4,"[""strawberry.png""]","[""strawberry.png""]","[""strawberry.png""]","[""strawberry.png""]",blank.png,blank.png,PB15.png,,,,,,,,,,,1,,,,,,,,,,,,8501.016000000003,,completion,,,,,,,,,,,,,3,,,,,,,,,,,,,,,,,,,,,,,,,,,,,,,,,,,,,,,,,,,,,,,,,,,,,,,,,"[""strawberry.png""]","[""maltesers.png""]",,,,6,,,false,,1,,,,,,,523107.85000026226,523106.388,514588.655,514595.27000039816,514605.372,523123.116,,,,
fixCross,canvas.Screen,2_4_2_6_1_0_0_0_0_4_0,2021-01-14T19:04:47.284Z,,,blank.png,"[""maltesers.png""]",blank.png,blank.png,blank.png,blank.png,blank.png,blank.png,blank.png,blank.png,blank.png,blank.png,blank.png,,,,,,,,,,,,,,,,,,,,,,,,,,,,,"[""maltesers.png""]","[""strawberry.png""]",PB17.png,,,,,,,,,,,0,6,"[""strawberry.png""]","[""strawberry.png""]","[""strawberry.png""]","[""strawberry.png""]","[""strawberry.png""]","[""strawberry.png""]",blank.png,PB18.png,PB18.png,"[""strawberry.png""]","[""strawberry.png""]","[""strawberry.png""]","[""strawberry.png""]","[""strawberry.png""]","[""strawberry.png""]","[""strawberry.png""]","[""strawberry.png""]","[""strawberry.png""]","[""strawberry.png""]","[""strawberry.png""]","[""strawberry.png""]",1,"[""maltesers.png""]",blank.png,blank.png,blank.png,6,"[""strawberry.png""]","[""strawberry.png""]","[""strawberry.png""]","[""strawberry.png""]","[""strawberry.png""]","[""strawberry.png""]",PB17.png,,,,,,,,,,,1,,,,,,,,,,,,1168.8460000000778,,timeout,,,,,,,,,,,,,3,,,,,,,,,,,,,,,,,,,,,,,,,,,,,,,,,,,,,,,,,,,,,,,,,,,,,,,,,"[""strawberry.png""]","[""maltesers.png""]",,,,6,,,false,,1,,,,,,,523357.6800003648,523356.861,523106.388,523113.97000029683,523123.116,524291.962,5,,,
timeout,canvas.Screen,2_4_2_6_1_0_0_0_0_4_1,2021-01-14T19:04:48.704Z,,,blank.png,"[""maltesers.png""]",blank.png,blank.png,blank.png,blank.png,blank.png,blank.png,blank.png,blank.png,blank.png,blank.png,blank.png,,,,,,,,,,,,,,,,,,,,,,,,,,,,,"[""maltesers.png""]","[""strawberry.png""]",PB17.png,,,,,,,,,,,0,6,"[""strawberry.png""]","[""strawberry.png""]","[""strawberry.png""]","[""strawberry.png""]","[""strawberry.png""]","[""strawberry.png""]",blank.png,PB18.png,PB18.png,"[""strawberry.png""]","[""strawberry.png""]","[""strawberry.png""]","[""strawberry.png""]","[""strawberry.png""]","[""strawberry.png""]","[""strawberry.png""]","[""strawberry.png""]","[""strawberry.png""]","[""strawberry.png""]","[""strawberry.png""]","[""strawberry.png""]",1,"[""maltesers.png""]",blank.png,blank.png,blank.png,6,"[""strawberry.png""]","[""strawberry.png""]","[""strawberry.png""]","[""strawberry.png""]","[""strawberry.png""]","[""strawberry.png""]",PB17.png,,,,,,,,,,,1,,,,,,,,,,,,1469.5019999999786,,timeout,,,,,,,,,,,,,3,,,,,,,,,,,,,,,,,,,,,,,,,,,,,,,,,,,,,,,,,,,,,,,,,,,,,,,,,"[""strawberry.png""]","[""maltesers.png""]",,,,6,,,false,,1,,,,,,,524777.1349996328,524776.33,523356.861,524297.2600003704,524291.962,525761.464,,,,
choice,canvas.Screen,2_4_2_6_1_0_0_0_0_4_2,2021-01-14T19:04:50.179Z,,,blank.png,"[""maltesers.png""]",blank.png,blank.png,blank.png,blank.png,blank.png,blank.png,blank.png,blank.png,blank.png,blank.png,blank.png,,,,,,,,,,,,,,,,,,,,,,,,,,,,,"[""maltesers.png""]","[""strawberry.png""]",PB17.png,,,,,,,,,,,0,6,"[""strawberry.png""]","[""strawberry.png""]","[""strawberry.png""]","[""strawberry.png""]","[""strawberry.png""]","[""strawberry.png""]",blank.png,PB18.png,PB18.png,"[""strawberry.png""]","[""strawberry.png""]","[""strawberry.png""]","[""strawberry.png""]","[""strawberry.png""]","[""strawberry.png""]","[""strawberry.png""]","[""strawberry.png""]","[""strawberry.png""]","[""strawberry.png""]","[""strawberry.png""]","[""strawberry.png""]",1,"[""maltesers.png""]",blank.png,blank.png,blank.png,6,"[""strawberry.png""]","[""strawberry.png""]","[""strawberry.png""]","[""strawberry.png""]","[""strawberry.png""]","[""strawberry.png""]",PB17.png,,,,,,,,,,,1,,,,,,,,,,,,489.8759999588365,,response,,,,,,,,,,,,,3,,,,,,,,,,,,,,,,,,,,,,,,,,,,,,,,,,,,,,,,,,,,,,,,,,,,,,,,,"[""strawberry.png""]","[""maltesers.png""]",,,,6,left,keydown(ArrowLeft),false,,1,,,,,,,526252.6200003922,526251.3399999589,524776.33,525734.4500003383,525761.464,527164.218,,5,,
square,canvas.Screen,2_4_2_6_1_0_0_0_0_4_3,2021-01-14T19:04:52.077Z,,,blank.png,"[""maltesers.png""]",blank.png,blank.png,blank.png,blank.png,blank.png,blank.png,blank.png,blank.png,blank.png,blank.png,blank.png,,,,,,,,,,,,,,,,,,,,,,,,,,,,,"[""maltesers.png""]","[""strawberry.png""]",PB17.png,,,,,,,,,,,0,6,"[""strawberry.png""]","[""strawberry.png""]","[""strawberry.png""]","[""strawberry.png""]","[""strawberry.png""]","[""strawberry.png""]",blank.png,PB18.png,PB18.png,"[""strawberry.png""]","[""strawberry.png""]","[""strawberry.png""]","[""strawberry.png""]","[""strawberry.png""]","[""strawberry.png""]","[""strawberry.png""]","[""strawberry.png""]","[""strawberry.png""]","[""strawberry.png""]","[""strawberry.png""]","[""strawberry.png""]",1,"[""maltesers.png""]",blank.png,blank.png,blank.png,6,"[""strawberry.png""]","[""strawberry.png""]","[""strawberry.png""]","[""strawberry.png""]","[""strawberry.png""]","[""strawberry.png""]",PB17.png,,,,,,,,,,,1,,#33ff3f,#808080,,,,,,,,,1001.9940000000643,,timeout,,,,,,,,,,,,,3,,,,,,,,,,,,,,,,,,,,,,,,,,,,,,,,,,,,,,,,,,,,,,,,,,,,,,,,,"[""strawberry.png""]","[""maltesers.png""]",,,,6,,,false,,1,,,,,black,white,528150.244999677,528149.44,527144.689,527150.1000002027,527164.218,528166.212,,,,
ITI_late,canvas.Screen,2_4_2_6_1_0_0_0_0_4_4,2021-01-14T19:04:52.578Z,,,blank.png,"[""maltesers.png""]",blank.png,blank.png,blank.png,blank.png,blank.png,blank.png,blank.png,blank.png,blank.png,blank.png,blank.png,,,,,,,,,,,,,,,,,,,,,,,,,,,,,"[""maltesers.png""]","[""strawberry.png""]",PB17.png,,,,,,,,,,,0,6,"[""strawberry.png""]","[""strawberry.png""]","[""strawberry.png""]","[""strawberry.png""]","[""strawberry.png""]","[""strawberry.png""]",blank.png,PB18.png,PB18.png,"[""strawberry.png""]","[""strawberry.png""]","[""strawberry.png""]","[""strawberry.png""]","[""strawberry.png""]","[""strawberry.png""]","[""strawberry.png""]","[""strawberry.png""]","[""strawberry.png""]","[""strawberry.png""]","[""strawberry.png""]","[""strawberry.png""]",1,"[""maltesers.png""]",blank.png,blank.png,blank.png,6,"[""strawberry.png""]","[""strawberry.png""]","[""strawberry.png""]","[""strawberry.png""]","[""strawberry.png""]","[""strawberry.png""]",PB17.png,,,,,,,,,,,1,,,,,,,,,,,,500.94699999992736,,timeout,,,,,,,,,,,,white,3,,,,,,,,,,,,,,,,,,,,,,,,,,,,,,,,,,,,,,,,,,,,,,,,,,,,,,,,,"[""strawberry.png""]","[""maltesers.png""]",,,,6,,,false,,1,,,,,,,528651.2299999595,528650.445,528149.44,528152.549999766,528166.212,528667.159,,,,
choice_sequence,flow.Sequence,2_4_2_6_1_0_0_0_0_4,2021-01-14T19:04:52.579Z,,,blank.png,"[""maltesers.png""]",blank.png,blank.png,blank.png,blank.png,blank.png,blank.png,blank.png,blank.png,blank.png,blank.png,blank.png,,,,,,,,,,,,,,,,,,,,,,,,,,,,,"[""maltesers.png""]","[""strawberry.png""]",PB17.png,,,,,,,,,,,0,6,"[""strawberry.png""]","[""strawberry.png""]","[""strawberry.png""]","[""strawberry.png""]","[""strawberry.png""]","[""strawberry.png""]",blank.png,PB18.png,PB18.png,"[""strawberry.png""]","[""strawberry.png""]","[""strawberry.png""]","[""strawberry.png""]","[""strawberry.png""]","[""strawberry.png""]","[""strawberry.png""]","[""strawberry.png""]","[""strawberry.png""]","[""strawberry.png""]","[""strawberry.png""]","[""strawberry.png""]",1,"[""maltesers.png""]",blank.png,blank.png,blank.png,6,"[""strawberry.png""]","[""strawberry.png""]","[""strawberry.png""]","[""strawberry.png""]","[""strawberry.png""]","[""strawberry.png""]",PB17.png,,,,,,,,,,,1,,,,,,,,,,,,5527.328999999969,,completion,,,,,,,,,,,,,3,,,,,,,,,,,,,,,,,,,,,,,,,,,,,,,,,,,,,,,,,,,,,,,,,,,,,,,,,"[""strawberry.png""]","[""maltesers.png""]",,,,6,,,false,,1,,,,,,,528651.9200000912,528650.445,523106.388,523112.75999993086,523123.116,528667.159,,,,
fixCross,canvas.Screen,2_4_2_6_1_0_0_0_0_5_0,2021-01-14T19:04:53.129Z,,,blank.png,"[""maltesers.png""]",blank.png,blank.png,blank.png,blank.png,blank.png,blank.png,blank.png,blank.png,blank.png,blank.png,blank.png,,,,,,,,,,,,,,,,,,,,,,,,,,,,,"[""maltesers.png""]","[""strawberry.png""]",PB01.png,,,,,,,,,,,0,6,"[""strawberry.png""]","[""strawberry.png""]","[""strawberry.png""]","[""strawberry.png""]","[""strawberry.png""]","[""strawberry.png""]",blank.png,PB18.png,PB18.png,blank.png,blank.png,blank.png,blank.png,blank.png,blank.png,"[""strawberry.png""]","[""strawberry.png""]","[""strawberry.png""]","[""strawberry.png""]","[""strawberry.png""]","[""strawberry.png""]",1,"[""maltesers.png""]",blank.png,blank.png,blank.png,0,blank.png,blank.png,blank.png,blank.png,blank.png,blank.png,PB01.png,,,,,,,,,,,1,,,,,,,,,,,,1235.3989999999758,,timeout,,,,,,,,,,,,,3,,,,,,,,,,,,,,,,,,,,,,,,,,,,,,,,,,,,,,,,,,,,,,,,,,,,,,,,,"[""strawberry.png""]","[""maltesers.png""]",,,,6,,,false,,1,,,,,,,529202.185000293,529201.434,528650.445,528658.2199996337,528667.159,529902.558,6,,,
timeout,canvas.Screen,2_4_2_6_1_0_0_0_0_5_1,2021-01-14T19:04:54.314Z,,,blank.png,"[""maltesers.png""]",blank.png,blank.png,blank.png,blank.png,blank.png,blank.png,blank.png,blank.png,blank.png,blank.png,blank.png,,,,,,,,,,,,,,,,,,,,,,,,,,,,,"[""maltesers.png""]","[""strawberry.png""]",PB01.png,,,,,,,,,,,0,6,"[""strawberry.png""]","[""strawberry.png""]","[""strawberry.png""]","[""strawberry.png""]","[""strawberry.png""]","[""strawberry.png""]",blank.png,PB18.png,PB18.png,blank.png,blank.png,blank.png,blank.png,blank.png,blank.png,"[""strawberry.png""]","[""strawberry.png""]","[""strawberry.png""]","[""strawberry.png""]","[""strawberry.png""]","[""strawberry.png""]",1,"[""maltesers.png""]",blank.png,blank.png,blank.png,0,blank.png,blank.png,blank.png,blank.png,blank.png,blank.png,PB01.png,,,,,,,,,,,1,,,,,,,,,,,,1218.9760000000242,,timeout,,,,,,,,,,,,,3,,,,,,,,,,,,,,,,,,,,,,,,,,,,,,,,,,,,,,,,,,,,,,,,,,,,,,,,,"[""strawberry.png""]","[""maltesers.png""]",,,,6,,,false,,1,,,,,,,530387.7349998802,530386.928,529201.434,529908.8150002062,529902.558,531121.534,,,,
choice,canvas.Screen,2_4_2_6_1_0_0_0_0_5_2,2021-01-14T19:04:56.724Z,,,blank.png,"[""maltesers.png""]",blank.png,blank.png,blank.png,blank.png,blank.png,blank.png,blank.png,blank.png,blank.png,blank.png,blank.png,,,,,,,,,,,,,,,,,,,,,,,,,,,,,"[""maltesers.png""]","[""strawberry.png""]",PB01.png,,,,,,,,,,,0,6,"[""strawberry.png""]","[""strawberry.png""]","[""strawberry.png""]","[""strawberry.png""]","[""strawberry.png""]","[""strawberry.png""]",blank.png,PB18.png,PB18.png,blank.png,blank.png,blank.png,blank.png,blank.png,blank.png,"[""strawberry.png""]","[""strawberry.png""]","[""strawberry.png""]","[""strawberry.png""]","[""strawberry.png""]","[""strawberry.png""]",1,"[""maltesers.png""]",blank.png,blank.png,blank.png,0,blank.png,blank.png,blank.png,blank.png,blank.png,blank.png,PB01.png,,,,,,,,,,,1,,,,,,,,,,,,1674.5060003940016,,response,,,,,,,,,,,,,3,,,,,,,,,,,,,,,,,,,,,,,,,,,,,,,,,,,,,,,,,,,,,,,,,,,,,,,,,"[""strawberry.png""]","[""maltesers.png""]",,,,6,right,keydown(ArrowRight),false,,1,,,,,,,532797.585000284,532796.040000394,530386.928,531093.2900002226,531121.534,533475.737,,6,,
square,canvas.Screen,2_4_2_6_1_0_0_0_0_5_3,2021-01-14T19:04:58.388Z,,,blank.png,"[""maltesers.png""]",blank.png,blank.png,blank.png,blank.png,blank.png,blank.png,blank.png,blank.png,blank.png,blank.png,blank.png,,,,,,,,,,,,,,,,,,,,,,,,,,,,,"[""maltesers.png""]","[""strawberry.png""]",PB01.png,,,,,,,,,,,0,6,"[""strawberry.png""]","[""strawberry.png""]","[""strawberry.png""]","[""strawberry.png""]","[""strawberry.png""]","[""strawberry.png""]",blank.png,PB18.png,PB18.png,blank.png,blank.png,blank.png,blank.png,blank.png,blank.png,"[""strawberry.png""]","[""strawberry.png""]","[""strawberry.png""]","[""strawberry.png""]","[""strawberry.png""]","[""strawberry.png""]",1,"[""maltesers.png""]",blank.png,blank.png,blank.png,0,blank.png,blank.png,blank.png,blank.png,blank.png,blank.png,PB01.png,,,,,,,,,,,1,,#808080,#33ff3f,,,,,,,,,1001.7710000000661,,timeout,,,,,,,,,,,,,3,,,,,,,,,,,,,,,,,,,,,,,,,,,,,,,,,,,,,,,,,,,,,,,,,,,,,,,,,"[""strawberry.png""]","[""maltesers.png""]",,,,6,,,false,,1,,,,,white,black,534461.5200003609,534460.79,533454.446,533469.8799997568,533475.737,534477.508,,,,
ITI_late,canvas.Screen,2_4_2_6_1_0_0_0_0_5_4,2021-01-14T19:04:59.390Z,,,blank.png,"[""maltesers.png""]",blank.png,blank.png,blank.png,blank.png,blank.png,blank.png,blank.png,blank.png,blank.png,blank.png,blank.png,,,,,,,,,,,,,,,,,,,,,,,,,,,,,"[""maltesers.png""]","[""strawberry.png""]",PB01.png,,,,,,,,,,,0,6,"[""strawberry.png""]","[""strawberry.png""]","[""strawberry.png""]","[""strawberry.png""]","[""strawberry.png""]","[""strawberry.png""]",blank.png,PB18.png,PB18.png,blank.png,blank.png,blank.png,blank.png,blank.png,blank.png,"[""strawberry.png""]","[""strawberry.png""]","[""strawberry.png""]","[""strawberry.png""]","[""strawberry.png""]","[""strawberry.png""]",1,"[""maltesers.png""]",blank.png,blank.png,blank.png,0,blank.png,blank.png,blank.png,blank.png,blank.png,blank.png,PB01.png,,,,,,,,,,,1,,,,,,,,,,,,1001.6999999999534,,timeout,,,,,,,,,,,,white,3,,,,,,,,,,,,,,,,,,,,,,,,,,,,,,,,,,,,,,,,,,,,,,,,,,,,,,,,,"[""strawberry.png""]","[""maltesers.png""]",,,,6,,,false,,1,,,,,,,535463.3450005203,535462.56,534460.79,534463.9100003988,534477.508,535479.208,,,,
choice_sequence,flow.Sequence,2_4_2_6_1_0_0_0_0_5,2021-01-14T19:04:59.391Z,,,blank.png,"[""maltesers.png""]",blank.png,blank.png,blank.png,blank.png,blank.png,blank.png,blank.png,blank.png,blank.png,blank.png,blank.png,,,,,,,,,,,,,,,,,,,,,,,,,,,,,"[""maltesers.png""]","[""strawberry.png""]",PB01.png,,,,,,,,,,,0,6,"[""strawberry.png""]","[""strawberry.png""]","[""strawberry.png""]","[""strawberry.png""]","[""strawberry.png""]","[""strawberry.png""]",blank.png,PB18.png,PB18.png,blank.png,blank.png,blank.png,blank.png,blank.png,blank.png,"[""strawberry.png""]","[""strawberry.png""]","[""strawberry.png""]","[""strawberry.png""]","[""strawberry.png""]","[""strawberry.png""]",1,"[""maltesers.png""]",blank.png,blank.png,blank.png,0,blank.png,blank.png,blank.png,blank.png,blank.png,blank.png,PB01.png,,,,,,,,,,,1,,,,,,,,,,,,6795.401000000071,,completion,,,,,,,,,,,,,3,,,,,,,,,,,,,,,,,,,,,,,,,,,,,,,,,,,,,,,,,,,,,,,,,,,,,,,,,"[""strawberry.png""]","[""maltesers.png""]",,,,6,,,false,,1,,,,,,,535463.9999996871,535462.56,528650.445,528656.9950003177,528667.159,535479.208,,,,
fixCross,canvas.Screen,2_4_2_6_1_0_0_0_0_6_0,2021-01-14T19:04:59.791Z,,,blank.png,blank.png,blank.png,blank.png,blank.png,blank.png,blank.png,"[""maltesers.png""]",blank.png,blank.png,blank.png,blank.png,blank.png,,,,,,,,,,,,,,,,,,,,,,,,,,,,,"[""maltesers.png""]","[""strawberry.png""]",PB18.png,,,,,,,,,,,0,6,"[""strawberry.png""]","[""strawberry.png""]","[""strawberry.png""]","[""strawberry.png""]","[""strawberry.png""]","[""strawberry.png""]",blank.png,PB18.png,PB07.png,"[""strawberry.png""]","[""strawberry.png""]","[""strawberry.png""]","[""strawberry.png""]","[""strawberry.png""]","[""strawberry.png""]","[""strawberry.png""]",blank.png,blank.png,blank.png,blank.png,blank.png,1,"[""maltesers.png""]",blank.png,blank.png,blank.png,1,"[""strawberry.png""]",blank.png,blank.png,blank.png,blank.png,blank.png,PB07.png,,,,,,,,,,,1,,,,,,,,,,,,1218.8560000000289,,timeout,,,,,,,,,,,,,4,,,,,,,,,,,,,,,,,,,,,,,,,,,,,,,,,,,,,,,,,,,,,,,,,,,,,,,,,"[""strawberry.png""]","[""maltesers.png""]",,,,6,,,false,,1,,,,,,,535864.1800004989,535863.333,535462.56,535470.5300005153,535479.208,536698.064,7,,,
timeout,canvas.Screen,2_4_2_6_1_0_0_0_0_6_1,2021-01-14T19:05:01.110Z,,,blank.png,blank.png,blank.png,blank.png,blank.png,blank.png,blank.png,"[""maltesers.png""]",blank.png,blank.png,blank.png,blank.png,blank.png,,,,,,,,,,,,,,,,,,,,,,,,,,,,,"[""maltesers.png""]","[""strawberry.png""]",PB18.png,,,,,,,,,,,0,6,"[""strawberry.png""]","[""strawberry.png""]","[""strawberry.png""]","[""strawberry.png""]","[""strawberry.png""]","[""strawberry.png""]",blank.png,PB18.png,PB07.png,"[""strawberry.png""]","[""strawberry.png""]","[""strawberry.png""]","[""strawberry.png""]","[""strawberry.png""]","[""strawberry.png""]","[""strawberry.png""]",blank.png,blank.png,blank.png,blank.png,blank.png,1,"[""maltesers.png""]",blank.png,blank.png,blank.png,1,"[""strawberry.png""]",blank.png,blank.png,blank.png,blank.png,blank.png,PB07.png,,,,,,,,,,,1,,,,,,,,,,,,3841.3769999999786,,timeout,,,,,,,,,,,,,4,,,,,,,,,,,,,,,,,,,,,,,,,,,,,,,,,,,,,,,,,,,,,,,,,,,,,,,,,"[""strawberry.png""]","[""maltesers.png""]",,,,6,,,false,,1,,,,,,,537183.020000346,537182.371,535863.333,536708.2500001416,536698.064,540539.441,,,,
choice,canvas.Screen,2_4_2_6_1_0_0_0_0_6_2,2021-01-14T19:05:04.550Z,,,blank.png,blank.png,blank.png,blank.png,blank.png,blank.png,blank.png,"[""maltesers.png""]",blank.png,blank.png,blank.png,blank.png,blank.png,,,,,,,,,,,,,,,,,,,,,,,,,,,,,"[""maltesers.png""]","[""strawberry.png""]",PB18.png,,,,,,,,,,,0,6,"[""strawberry.png""]","[""strawberry.png""]","[""strawberry.png""]","[""strawberry.png""]","[""strawberry.png""]","[""strawberry.png""]",blank.png,PB18.png,PB07.png,"[""strawberry.png""]","[""strawberry.png""]","[""strawberry.png""]","[""strawberry.png""]","[""strawberry.png""]","[""strawberry.png""]","[""strawberry.png""]",blank.png,blank.png,blank.png,blank.png,blank.png,1,"[""maltesers.png""]",blank.png,blank.png,blank.png,1,"[""strawberry.png""]",blank.png,blank.png,blank.png,blank.png,blank.png,PB07.png,,,,,,,,,,,1,,,,,,,,,,,,2273.7290000685025,,response,,,,,,,,,,,,,4,,,,,,,,,,,,,,,,,,,,,,,,,,,,,,,,,,,,,,,,,,,,,,,,,,,,,,,,,"[""strawberry.png""]","[""maltesers.png""]",,,,6,left,keydown(ArrowLeft),false,,1,,,,,,,540623.0549998581,539456.1000000685,537182.371,539409.5350001007,,541407.952,,7,,
square,canvas.Screen,2_4_2_6_1_0_0_0_0_6_3,2021-01-14T19:05:06.321Z,,,blank.png,blank.png,blank.png,blank.png,blank.png,blank.png,blank.png,"[""maltesers.png""]",blank.png,blank.png,blank.png,blank.png,blank.png,,,,,,,,,,,,,,,,,,,,,,,,,,,,,"[""maltesers.png""]","[""strawberry.png""]",PB18.png,,,,,,,,,,,0,6,"[""strawberry.png""]","[""strawberry.png""]","[""strawberry.png""]","[""strawberry.png""]","[""strawberry.png""]","[""strawberry.png""]",blank.png,PB18.png,PB07.png,"[""strawberry.png""]","[""strawberry.png""]","[""strawberry.png""]","[""strawberry.png""]","[""strawberry.png""]","[""strawberry.png""]","[""strawberry.png""]",blank.png,blank.png,blank.png,blank.png,blank.png,1,"[""maltesers.png""]",blank.png,blank.png,blank.png,1,"[""strawberry.png""]",blank.png,blank.png,blank.png,blank.png,blank.png,PB07.png,,,,,,,,,,,1,,#33ff3f,#808080,,,,,,,,,1002.1790000000037,,timeout,,,,,,,,,,,,,4,,,,,,,,,,,,,,,,,,,,,,,,,,,,,,,,,,,,,,,,,,,,,,,,,,,,,,,,,"[""strawberry.png""]","[""maltesers.png""]",,,,6,,,false,,1,,,,,black,white,542394.2350000143,542393.418,540539.441,541373.3200002462,541407.952,542410.131,,,,
ITI_late,canvas.Screen,2_4_2_6_1_0_0_0_0_6_4,2021-01-14T19:05:06.571Z,,,blank.png,blank.png,blank.png,blank.png,blank.png,blank.png,blank.png,"[""maltesers.png""]",blank.png,blank.png,blank.png,blank.png,blank.png,,,,,,,,,,,,,,,,,,,,,,,,,,,,,"[""maltesers.png""]","[""strawberry.png""]",PB18.png,,,,,,,,,,,0,6,"[""strawberry.png""]","[""strawberry.png""]","[""strawberry.png""]","[""strawberry.png""]","[""strawberry.png""]","[""strawberry.png""]",blank.png,PB18.png,PB07.png,"[""strawberry.png""]","[""strawberry.png""]","[""strawberry.png""]","[""strawberry.png""]","[""strawberry.png""]","[""strawberry.png""]","[""strawberry.png""]",blank.png,blank.png,blank.png,blank.png,blank.png,1,"[""maltesers.png""]",blank.png,blank.png,blank.png,1,"[""strawberry.png""]",blank.png,blank.png,blank.png,blank.png,blank.png,PB07.png,,,,,,,,,,,1,,,,,,,,,,,,350.68799999996554,,timeout,,,,,,,,,,,,white,4,,,,,,,,,,,,,,,,,,,,,,,,,,,,,,,,,,,,,,,,,,,,,,,,,,,,,,,,,"[""strawberry.png""]","[""maltesers.png""]",,,,6,,,false,,1,,,,,,,542644.6700002998,542643.897,542393.418,542396.4350000024,542410.131,542760.819,,,,
choice_sequence,flow.Sequence,2_4_2_6_1_0_0_0_0_6,2021-01-14T19:05:06.572Z,,,blank.png,blank.png,blank.png,blank.png,blank.png,blank.png,blank.png,"[""maltesers.png""]",blank.png,blank.png,blank.png,blank.png,blank.png,,,,,,,,,,,,,,,,,,,,,,,,,,,,,"[""maltesers.png""]","[""strawberry.png""]",PB18.png,,,,,,,,,,,0,6,"[""strawberry.png""]","[""strawberry.png""]","[""strawberry.png""]","[""strawberry.png""]","[""strawberry.png""]","[""strawberry.png""]",blank.png,PB18.png,PB07.png,"[""strawberry.png""]","[""strawberry.png""]","[""strawberry.png""]","[""strawberry.png""]","[""strawberry.png""]","[""strawberry.png""]","[""strawberry.png""]",blank.png,blank.png,blank.png,blank.png,blank.png,1,"[""maltesers.png""]",blank.png,blank.png,blank.png,1,"[""strawberry.png""]",blank.png,blank.png,blank.png,blank.png,blank.png,PB07.png,,,,,,,,,,,1,,,,,,,,,,,,7164.689000000013,,completion,,,,,,,,,,,,,4,,,,,,,,,,,,,,,,,,,,,,,,,,,,,,,,,,,,,,,,,,,,,,,,,,,,,,,,,"[""strawberry.png""]","[""maltesers.png""]",,,,6,,,false,,1,,,,,,,542645.3449996188,542643.897,535462.56,535469.3649997935,535479.208,542760.819,,,,
choice_loop,flow.Loop,2_4_2_6_1_0_0_0_0,2021-01-14T19:05:06.572Z,,,,,,,,,,,,,,,,,,,,,,,,,,,,,,,,,,,,,,,,,,,,"[""maltesers.png""]","[""strawberry.png""]",,,,,,,,,,,,,,,,,,,,,,,,,,,,,,,,,,,,,,,,,,,,,,,,,,,,,,,,,,,,,,,,,,,,,,54725.33500000002,,completion,,,,,,,,,,,,,,,,,,,,,,,,,,,,,,,,,,,,,,,,,,,,,,,,,,,,,,,,,,,,,,,,,,,,,,"[""strawberry.png""]","[""maltesers.png""]",,,,6,,,false,,,,,,,,,542645.7550004125,542643.897,487551.146,487836.3950001076,487918.562,542760.819,,,,
choice_frame,html.Frame,2_4_2_6_1_0_0_0,2021-01-14T19:05:06.573Z,,,,,,,,,,,,,,,,,,,,,,,,,,,,,,,,,,,,,,,,,,,,,,,,,,,,,,,,,,,,,,,,,,,,,,,,,,,,,,,,,,,,,,,,,,,,,,,,,,,,,,,,,,,,,,,,,,,54727.33299961587,,,,,,,,,,,,,,,,,,,,,,,,,,,,,,,,,,,,,,,,,,,,,,,,,,,,,,,,,,,,,,,,,,,,,,,,,,,,,6,,,false,,,,,,,,,542646.0600001737,542645.8949996158,487551.146,487552.14999988675,487918.562,542777.527,,,,
sublock_1,flow.Sequence,2_4_2_6_1_0_0,2021-01-14T19:05:06.573Z,,,,,,,,,,,,,,,,,,,,,,,,,,,,,,,,,,,,,,,,,,,,,,,,,,,,,,,,,,,,,,,,,,,,,,,,,,,,,,,,,,,,,,,,,,,,,,,,,,,,,,,,,,,,,,,,,,,54727.33299961587,,completion,,,,,,,,,,,,,,,,,,,,,,,,,,,,,,,,,,,,,,,,,,,,,,,,,,,,,,,,,,,,,,,,,,,,,,,,,,,6,,,false,,,,,,,,,542646.2350003421,542645.8949996158,487551.146,487552.0700002089,487918.562,542777.527,,,,
fixCross,canvas.Screen,2_4_2_6_1_0_1_0_0_0_0,2021-01-14T19:05:07.239Z,,,blank.png,blank.png,blank.png,blank.png,blank.png,blank.png,blank.png,"[""maltesers.png""]",blank.png,blank.png,blank.png,blank.png,blank.png,,,,,,,,,,,,,,,,,,,,,,,,,,,,,"[""maltesers.png""]","[""strawberry.png""]",PB18.png,,,,,,,,,,,0,6,"[""strawberry.png""]","[""strawberry.png""]","[""strawberry.png""]","[""strawberry.png""]","[""strawberry.png""]","[""strawberry.png""]",blank.png,PB18.png,PB15.png,"[""strawberry.png""]","[""strawberry.png""]","[""strawberry.png""]","[""strawberry.png""]","[""strawberry.png""]","[""strawberry.png""]","[""strawberry.png""]","[""strawberry.png""]","[""strawberry.png""]","[""strawberry.png""]",blank.png,blank.png,1,"[""maltesers.png""]",blank.png,blank.png,blank.png,4,"[""strawberry.png""]","[""strawberry.png""]","[""strawberry.png""]","[""strawberry.png""]",blank.png,blank.png,PB15.png,,,,,,,,,,,1,,,,,,,,,,,,1586.3340000000317,,timeout,,,,,,,,,,,,,4,,,,,,,,,,,,,,,,,,,,,,,,,,,,,,,,,,,,,,,,,,,,,,,,,,,,,,,,,"[""strawberry.png""]","[""maltesers.png""]",,,,4,,,false,,1,,,,,,,543312.784999609,543312,542760.819,542767.1849997714,542777.527,544363.861,8,,,
timeout,canvas.Screen,2_4_2_6_1_0_1_0_0_0_1,2021-01-14T19:05:08.776Z,,,blank.png,blank.png,blank.png,blank.png,blank.png,blank.png,blank.png,"[""maltesers.png""]",blank.png,blank.png,blank.png,blank.png,blank.png,,,,,,,,,,,,,,,,,,,,,,,,,,,,,"[""maltesers.png""]","[""strawberry.png""]",PB18.png,,,,,,,,,,,0,6,"[""strawberry.png""]","[""strawberry.png""]","[""strawberry.png""]","[""strawberry.png""]","[""strawberry.png""]","[""strawberry.png""]",blank.png,PB18.png,PB15.png,"[""strawberry.png""]","[""strawberry.png""]","[""strawberry.png""]","[""strawberry.png""]","[""strawberry.png""]","[""strawberry.png""]","[""strawberry.png""]","[""strawberry.png""]","[""strawberry.png""]","[""strawberry.png""]",blank.png,blank.png,1,"[""maltesers.png""]",blank.png,blank.png,blank.png,4,"[""strawberry.png""]","[""strawberry.png""]","[""strawberry.png""]","[""strawberry.png""]",blank.png,blank.png,PB15.png,,,,,,,,,,,1,,,,,,,,,,,,1720.1239999999525,,timeout,,,,,,,,,,,,,4,,,,,,,,,,,,,,,,,,,,,,,,,,,,,,,,,,,,,,,,,,,,,,,,,,,,,,,,,"[""strawberry.png""]","[""maltesers.png""]",,,,4,,,false,,1,,,,,,,544848.939999938,544848.187,543312,544346.3899996132,544363.861,546083.985,,,,
choice,canvas.Screen,2_4_2_6_1_0_1_0_0_0_2,2021-01-14T19:05:12.832Z,,,blank.png,blank.png,blank.png,blank.png,blank.png,blank.png,blank.png,"[""maltesers.png""]",blank.png,blank.png,blank.png,blank.png,blank.png,,,,,,,,,,,,,,,,,,,,,,,,,,,,,"[""maltesers.png""]","[""strawberry.png""]",PB18.png,,,,,,,,,,,0,6,"[""strawberry.png""]","[""strawberry.png""]","[""strawberry.png""]","[""strawberry.png""]","[""strawberry.png""]","[""strawberry.png""]",blank.png,PB18.png,PB15.png,"[""strawberry.png""]","[""strawberry.png""]","[""strawberry.png""]","[""strawberry.png""]","[""strawberry.png""]","[""strawberry.png""]","[""strawberry.png""]","[""strawberry.png""]","[""strawberry.png""]","[""strawberry.png""]",blank.png,blank.png,1,"[""maltesers.png""]",blank.png,blank.png,blank.png,4,"[""strawberry.png""]","[""strawberry.png""]","[""strawberry.png""]","[""strawberry.png""]",blank.png,blank.png,PB15.png,,,,,,,,,,,1,,,,,,,,,,,,2557.939999654307,,response,,,,,,,,,,,,,4,,,,,,,,,,,,,,,,,,,,,,,,,,,,,,,,,,,,,,,,,,,,,,,,,,,,,,,,,"[""strawberry.png""]","[""maltesers.png""]",,,,4,right,keydown(ArrowRight),false,,1,,,,,,,548905.4399998859,548641.9249996543,544848.187,545948.985000141,546083.985,550376.109,,8,,
square,canvas.Screen,2_4_2_6_1_0_1_0_0_0_3,2021-01-14T19:05:15.289Z,,,blank.png,blank.png,blank.png,blank.png,blank.png,blank.png,blank.png,"[""maltesers.png""]",blank.png,blank.png,blank.png,blank.png,blank.png,,,,,,,,,,,,,,,,,,,,,,,,,,,,,"[""maltesers.png""]","[""strawberry.png""]",PB18.png,,,,,,,,,,,0,6,"[""strawberry.png""]","[""strawberry.png""]","[""strawberry.png""]","[""strawberry.png""]","[""strawberry.png""]","[""strawberry.png""]",blank.png,PB18.png,PB15.png,"[""strawberry.png""]","[""strawberry.png""]","[""strawberry.png""]","[""strawberry.png""]","[""strawberry.png""]","[""strawberry.png""]","[""strawberry.png""]","[""strawberry.png""]","[""strawberry.png""]","[""strawberry.png""]",blank.png,blank.png,1,"[""maltesers.png""]",blank.png,blank.png,blank.png,4,"[""strawberry.png""]","[""strawberry.png""]","[""strawberry.png""]","[""strawberry.png""]",blank.png,blank.png,PB15.png,,,,,,,,,,,1,,#808080,#33ff3f,,,,,,,,,1002.0749999999534,,timeout,,,,,,,,,,,,,4,,,,,,,,,,,,,,,,,,,,,,,,,,,,,,,,,,,,,,,,,,,,,,,,,,,,,,,,,"[""strawberry.png""]","[""maltesers.png""]",,,,4,,,false,,1,,,,,white,black,551362.3200003058,551361.463,550349.78,550355.0450000912,550376.109,551378.184,,,,
ITI_late,canvas.Screen,2_4_2_6_1_0_1_0_0_0_4,2021-01-14T19:05:16.292Z,,,blank.png,blank.png,blank.png,blank.png,blank.png,blank.png,blank.png,"[""maltesers.png""]",blank.png,blank.png,blank.png,blank.png,blank.png,,,,,,,,,,,,,,,,,,,,,,,,,,,,,"[""maltesers.png""]","[""strawberry.png""]",PB18.png,,,,,,,,,,,0,6,"[""strawberry.png""]","[""strawberry.png""]","[""strawberry.png""]","[""strawberry.png""]","[""strawberry.png""]","[""strawberry.png""]",blank.png,PB18.png,PB15.png,"[""strawberry.png""]","[""strawberry.png""]","[""strawberry.png""]","[""strawberry.png""]","[""strawberry.png""]","[""strawberry.png""]","[""strawberry.png""]","[""strawberry.png""]","[""strawberry.png""]","[""strawberry.png""]",blank.png,blank.png,1,"[""maltesers.png""]",blank.png,blank.png,blank.png,4,"[""strawberry.png""]","[""strawberry.png""]","[""strawberry.png""]","[""strawberry.png""]",blank.png,blank.png,PB15.png,,,,,,,,,,,1,,,,,,,,,,,,1035.2249999999767,,timeout,,,,,,,,,,,,white,4,,,,,,,,,,,,,,,,,,,,,,,,,,,,,,,,,,,,,,,,,,,,,,,,,,,,,,,,,"[""strawberry.png""]","[""maltesers.png""]",,,,4,,,false,,1,,,,,,,552365.0550004095,552363.309,551361.463,551364.5050004125,551378.184,552413.409,,,,
choice_sequence,flow.Sequence,2_4_2_6_1_0_1_0_0_0,2021-01-14T19:05:16.292Z,,,blank.png,blank.png,blank.png,blank.png,blank.png,blank.png,blank.png,"[""maltesers.png""]",blank.png,blank.png,blank.png,blank.png,blank.png,,,,,,,,,,,,,,,,,,,,,,,,,,,,,"[""maltesers.png""]","[""strawberry.png""]",PB18.png,,,,,,,,,,,0,6,"[""strawberry.png""]","[""strawberry.png""]","[""strawberry.png""]","[""strawberry.png""]","[""strawberry.png""]","[""strawberry.png""]",blank.png,PB18.png,PB15.png,"[""strawberry.png""]","[""strawberry.png""]","[""strawberry.png""]","[""strawberry.png""]","[""strawberry.png""]","[""strawberry.png""]","[""strawberry.png""]","[""strawberry.png""]","[""strawberry.png""]","[""strawberry.png""]",blank.png,blank.png,1,"[""maltesers.png""]",blank.png,blank.png,blank.png,4,"[""strawberry.png""]","[""strawberry.png""]","[""strawberry.png""]","[""strawberry.png""]",blank.png,blank.png,PB15.png,,,,,,,,,,,1,,,,,,,,,,,,9585.782000000007,,completion,,,,,,,,,,,,,4,,,,,,,,,,,,,,,,,,,,,,,,,,,,,,,,,,,,,,,,,,,,,,,,,,,,,,,,,"[""strawberry.png""]","[""maltesers.png""]",,,,4,,,false,,1,,,,,,,552365.7449996099,552363.309,542760.819,542766.0300005227,542777.527,552413.409,,,,
fixCross,canvas.Screen,2_4_2_6_1_0_1_0_0_1_0,2021-01-14T19:05:16.675Z,,,blank.png,"[""maltesers.png""]",blank.png,blank.png,blank.png,blank.png,blank.png,blank.png,blank.png,blank.png,blank.png,blank.png,blank.png,,,,,,,,,,,,,,,,,,,,,,,,,,,,,"[""maltesers.png""]","[""strawberry.png""]",PB07.png,,,,,,,,,,,0,6,"[""strawberry.png""]","[""strawberry.png""]","[""strawberry.png""]","[""strawberry.png""]","[""strawberry.png""]","[""strawberry.png""]",blank.png,PB18.png,PB18.png,"[""strawberry.png""]",blank.png,blank.png,blank.png,blank.png,blank.png,"[""strawberry.png""]","[""strawberry.png""]","[""strawberry.png""]","[""strawberry.png""]","[""strawberry.png""]","[""strawberry.png""]",1,"[""maltesers.png""]",blank.png,blank.png,blank.png,1,"[""strawberry.png""]",blank.png,blank.png,blank.png,blank.png,blank.png,PB07.png,,,,,,,,,,,1,,,,,,,,,,,,1101.9000000000233,,timeout,,,,,,,,,,,,,3,,,,,,,,,,,,,,,,,,,,,,,,,,,,,,,,,,,,,,,,,,,,,,,,,,,,,,,,,"[""strawberry.png""]","[""maltesers.png""]",,,,4,,,false,,1,,,,,,,552748.1949999928,552747.359,552363.309,552420.7650003955,552413.409,553515.309,9,,,
timeout,canvas.Screen,2_4_2_6_1_0_1_0_0_1_1,2021-01-14T19:05:17.930Z,,,blank.png,"[""maltesers.png""]",blank.png,blank.png,blank.png,blank.png,blank.png,blank.png,blank.png,blank.png,blank.png,blank.png,blank.png,,,,,,,,,,,,,,,,,,,,,,,,,,,,,"[""maltesers.png""]","[""strawberry.png""]",PB07.png,,,,,,,,,,,0,6,"[""strawberry.png""]","[""strawberry.png""]","[""strawberry.png""]","[""strawberry.png""]","[""strawberry.png""]","[""strawberry.png""]",blank.png,PB18.png,PB18.png,"[""strawberry.png""]",blank.png,blank.png,blank.png,blank.png,blank.png,"[""strawberry.png""]","[""strawberry.png""]","[""strawberry.png""]","[""strawberry.png""]","[""strawberry.png""]","[""strawberry.png""]",1,"[""maltesers.png""]",blank.png,blank.png,blank.png,1,"[""strawberry.png""]",blank.png,blank.png,blank.png,blank.png,blank.png,PB07.png,,,,,,,,,,,1,,,,,,,,,,,,1335.875,,timeout,,,,,,,,,,,,,3,,,,,,,,,,,,,,,,,,,,,,,,,,,,,,,,,,,,,,,,,,,,,,,,,,,,,,,,,"[""strawberry.png""]","[""maltesers.png""]",,,,4,,,false,,1,,,,,,,554000.1800004393,553999.551,552747.359,553484.0750005096,553515.309,554851.184,,,,
choice,canvas.Screen,2_4_2_6_1_0_1_0_0_1_2,2021-01-14T19:05:20.865Z,,,blank.png,"[""maltesers.png""]",blank.png,blank.png,blank.png,blank.png,blank.png,blank.png,blank.png,blank.png,blank.png,blank.png,blank.png,,,,,,,,,,,,,,,,,,,,,,,,,,,,,"[""maltesers.png""]","[""strawberry.png""]",PB07.png,,,,,,,,,,,0,6,"[""strawberry.png""]","[""strawberry.png""]","[""strawberry.png""]","[""strawberry.png""]","[""strawberry.png""]","[""strawberry.png""]",blank.png,PB18.png,PB18.png,"[""strawberry.png""]",blank.png,blank.png,blank.png,blank.png,blank.png,"[""strawberry.png""]","[""strawberry.png""]","[""strawberry.png""]","[""strawberry.png""]","[""strawberry.png""]","[""strawberry.png""]",1,"[""maltesers.png""]",blank.png,blank.png,blank.png,1,"[""strawberry.png""]",blank.png,blank.png,blank.png,blank.png,blank.png,PB07.png,,,,,,,,,,,1,,,,,,,,,,,,2080.7210004705703,,response,,,,,,,,,,,,,3,,,,,,,,,,,,,,,,,,,,,,,,,,,,,,,,,,,,,,,,,,,,,,,,,,,,,,,,,"[""strawberry.png""]","[""maltesers.png""]",,,,4,right,keydown(ArrowRight),false,,1,,,,,,,556935.1249998435,556931.9050004706,553999.551,554839.610000141,554851.184,557706.421,,9,,
square,canvas.Screen,2_4_2_6_1_0_1_0_0_1_3,2021-01-14T19:05:22.622Z,,,blank.png,"[""maltesers.png""]",blank.png,blank.png,blank.png,blank.png,blank.png,blank.png,blank.png,blank.png,blank.png,blank.png,blank.png,,,,,,,,,,,,,,,,,,,,,,,,,,,,,"[""maltesers.png""]","[""strawberry.png""]",PB07.png,,,,,,,,,,,0,6,"[""strawberry.png""]","[""strawberry.png""]","[""strawberry.png""]","[""strawberry.png""]","[""strawberry.png""]","[""strawberry.png""]",blank.png,PB18.png,PB18.png,"[""strawberry.png""]",blank.png,blank.png,blank.png,blank.png,blank.png,"[""strawberry.png""]","[""strawberry.png""]","[""strawberry.png""]","[""strawberry.png""]","[""strawberry.png""]","[""strawberry.png""]",1,"[""maltesers.png""]",blank.png,blank.png,blank.png,1,"[""strawberry.png""]",blank.png,blank.png,blank.png,blank.png,blank.png,PB07.png,,,,,,,,,,,1,,#808080,#33ff3f,,,,,,,,,1001.9200000000419,,timeout,,,,,,,,,,,,,3,,,,,,,,,,,,,,,,,,,,,,,,,,,,,,,,,,,,,,,,,,,,,,,,,,,,,,,,,"[""strawberry.png""]","[""maltesers.png""]",,,,4,,,false,,1,,,,,white,black,558692.4750003964,558691.647,557650.698,557658.2599999383,557706.421,558708.341,,,,
ITI_late,canvas.Screen,2_4_2_6_1_0_1_0_0_1_4,2021-01-14T19:05:23.874Z,,,blank.png,"[""maltesers.png""]",blank.png,blank.png,blank.png,blank.png,blank.png,blank.png,blank.png,blank.png,blank.png,blank.png,blank.png,,,,,,,,,,,,,,,,,,,,,,,,,,,,,"[""maltesers.png""]","[""strawberry.png""]",PB07.png,,,,,,,,,,,0,6,"[""strawberry.png""]","[""strawberry.png""]","[""strawberry.png""]","[""strawberry.png""]","[""strawberry.png""]","[""strawberry.png""]",blank.png,PB18.png,PB18.png,"[""strawberry.png""]",blank.png,blank.png,blank.png,blank.png,blank.png,"[""strawberry.png""]","[""strawberry.png""]","[""strawberry.png""]","[""strawberry.png""]","[""strawberry.png""]","[""strawberry.png""]",1,"[""maltesers.png""]",blank.png,blank.png,blank.png,1,"[""strawberry.png""]",blank.png,blank.png,blank.png,blank.png,blank.png,PB07.png,,,,,,,,,,,1,,,,,,,,,,,,1252.091000000015,,timeout,,,,,,,,,,,,white,3,,,,,,,,,,,,,,,,,,,,,,,,,,,,,,,,,,,,,,,,,,,,,,,,,,,,,,,,,"[""strawberry.png""]","[""maltesers.png""]",,,,4,,,false,,1,,,,,,,559944.7250002995,559943.809,558691.647,558694.6250004694,558708.341,559960.432,,,,
choice_sequence,flow.Sequence,2_4_2_6_1_0_1_0_0_1,2021-01-14T19:05:23.875Z,,,blank.png,"[""maltesers.png""]",blank.png,blank.png,blank.png,blank.png,blank.png,blank.png,blank.png,blank.png,blank.png,blank.png,blank.png,,,,,,,,,,,,,,,,,,,,,,,,,,,,,"[""maltesers.png""]","[""strawberry.png""]",PB07.png,,,,,,,,,,,0,6,"[""strawberry.png""]","[""strawberry.png""]","[""strawberry.png""]","[""strawberry.png""]","[""strawberry.png""]","[""strawberry.png""]",blank.png,PB18.png,PB18.png,"[""strawberry.png""]",blank.png,blank.png,blank.png,blank.png,blank.png,"[""strawberry.png""]","[""strawberry.png""]","[""strawberry.png""]","[""strawberry.png""]","[""strawberry.png""]","[""strawberry.png""]",1,"[""maltesers.png""]",blank.png,blank.png,blank.png,1,"[""strawberry.png""]",blank.png,blank.png,blank.png,blank.png,blank.png,PB07.png,,,,,,,,,,,1,,,,,,,,,,,,7530.400000000023,,completion,,,,,,,,,,,,,3,,,,,,,,,,,,,,,,,,,,,,,,,,,,,,,,,,,,,,,,,,,,,,,,,,,,,,,,,"[""strawberry.png""]","[""maltesers.png""]",,,,4,,,false,,1,,,,,,,559945.4199997708,559943.809,552363.309,552419.5050001144,552413.409,559960.432,,,,
